p_code;trial_nr;practice;block;question;condition;seqPos;Same_or_Diff;ITS;T1_hz;T2_hz;P_hz;yes_key;sure_key;correct;yes_no;rating;resp_time
#4nox06;1;True;1;P = T1?;ST2_low_1;2;Same;low;82;132;132;f;v;1;j;v;2935.2252000001045
#4nox06;2;True;1;P = T2?;ST2_low_6;2;Same;low;154;96;96;f;v;1;f;n;1213.8041999999132
#4nox06;3;True;1;P = T2?;STb_2;0;Same;None;70;70;70;f;v;1;f;b;937.9719000000932
#4nox06;4;True;1;P = T1?;STb_1;0;Same;None;60;60;60;f;v;1;f;b;4617.0346999999765
#4nox06;5;True;1;P = T1?;STb_4;0;Same;None;96;96;96;f;v;0;j;n;1768.0049000000508
#4nox06;6;True;1;P = T1?;ST1_high_6;1;Same;high;132;96;132;f;v;0;j;n;1515.4844999999568
#4nox06;7;True;1;P = T1?;ST2_low_6;2;Same;low;154;96;96;f;v;1;j;b;955.169000000069
#4nox06;8;True;1;P = T2?;DT1_low_1;1;Different;low;82;132;70;f;v;1;j;b;1034.0743000001567
#4nox06;9;True;1;P = T2?;ST1_high_3;1;Same;high;70;96;70;f;v;1;j;b;775.7386999999198
#4nox06;10;True;1;P = T1?;ST1_low_6;1;Same;low;154;96;154;f;v;1;f;n;1322.8328999998666
#4nox06;11;True;1;P = T1?;DT1_high_3;1;Different;high;70;96;60;f;v;0;f;b;1790.90599999995
#4nox06;12;True;1;P = T2?;STb_1;0;Same;None;60;60;60;f;v;1;f;n;1577.6874999999109
#4nox06;13;True;1;P = T2?;ST2_low_5;2;Same;low;96;154;154;f;v;1;f;b;1072.764700000107
#4nox06;14;True;1;P = T1?;DT2_high_1;2;Different;high;82;112;132;f;v;1;j;n;1717.5892000000204
#4nox06;15;True;1;P = T2?;ST1_low_5;1;Same;low;96;154;96;f;v;1;j;n;1169.0522999999757
#4nox06;16;True;1;P = T2?;DT1_low_2;1;Different;low;132;82;154;f;v;1;j;b;744.5035999999163
p_code;trial_nr;practice;block;question;condition;seqPos;Same_or_Diff;ITS;T1_hz;T2_hz;P_hz;yes_key;sure_key;correct;yes_no;rating;resp_time
#4nox06;1;False;1;P = T1?;DT2_low_1;2;Different;low;82;132;154;f;v;1;j;n;1920.2366999998048
#4nox06;2;False;1;P = T2?;ST2_low_2;2;Same;low;132;82;82;f;v;1;f;b;1046.5632999998888
#4nox06;3;False;1;P = T1?;ST1_low_2;1;Same;low;132;82;132;f;v;0;j;n;1858.965299999909
#4nox06;4;False;1;P = T2?;ST1_high_1;1;Same;high;82;112;82;f;v;1;j;n;3101.047699999981
#4nox06;5;False;1;P = T2?;ST2_high_2;2;Same;high;112;82;82;f;v;1;f;n;1529.1214999999738
#4nox06;6;False;1;P = T1?;ST2_high_4;2;Same;high;96;70;70;f;v;1;j;n;944.0426999999545
#4nox06;7;False;1;P = T2?;ST1_low_5;1;Same;low;96;154;96;f;v;0;f;b;1029.0901999999278
#4nox06;8;False;1;P = T2?;ST1_low_2;1;Same;low;132;82;132;f;v;1;j;n;2506.685800000014
#4nox06;9;False;1;P = T2?;STb_7;0;Same;None;154;154;154;f;v;1;f;b;915.6138000000738
#4nox06;10;False;1;P = T1?;ST2_high_2;2;Same;high;112;82;82;f;v;1;j;b;2359.7202999999354
#4nox06;11;False;1;P = T1?;ST1_high_6;1;Same;high;132;96;132;f;v;1;f;n;1009.191200000032
#4nox06;12;False;1;P = T2?;DT2_high_2;2;Different;high;112;82;70;f;v;0;f;n;1822.7412999999615
#4nox06;13;False;1;P = T1?;ST1_low_1;1;Same;low;82;132;82;f;v;1;f;n;892.6899999999023
#4nox06;14;False;1;P = T1?;ST2_low_2;2;Same;low;132;82;82;f;v;1;j;b;948.0164999999943
#4nox06;15;False;1;P = T2?;ST1_high_3;1;Same;high;70;96;70;f;v;1;j;b;848.1315000001359
#4nox06;16;False;1;P = T2?;ST1_low_1;1;Same;low;82;132;82;f;v;1;j;n;1487.0018999999957
#4nox06;17;False;1;P = T1?;ST2_low_1;2;Same;low;82;132;132;f;v;1;j;b;914.7811000000274
#4nox06;18;False;1;P = T2?;ST2_high_4;2;Same;high;96;70;70;f;v;1;f;n;1004.2303999998694
#4nox06;19;False;1;P = T2?;ST2_low_4;2;Same;low;112;70;70;f;v;1;f;b;3463.133699999844
#4nox06;20;False;1;P = T2?;ST1_low_5;1;Same;low;96;154;96;f;v;1;j;b;1018.5179999998581
#4nox06;21;False;1;P = T1?;ST2_low_3;2;Same;low;70;112;112;f;v;1;j;b;1127.1710999999414
#4nox06;22;False;1;P = T2?;ST1_high_2;1;Same;high;112;82;112;f;v;1;j;n;1337.7445999999509
#4nox06;23;False;1;P = T2?;STb_8;0;Same;None;180;180;180;f;v;1;f;b;1026.252599999907
#4nox06;24;False;1;P = T1?;ST2_low_6;2;Same;low;154;96;96;f;v;1;j;b;873.6905000000661
#4nox06;25;False;1;P = T1?;ST2_high_3;2;Same;high;70;96;96;f;v;0;f;n;874.633700000004
#4nox06;26;False;1;P = T2?;DT1_high_2;1;Different;high;112;82;132;f;v;1;j;b;807.8930000001492
#4nox06;27;False;1;P = T2?;ST1_high_1;1;Same;high;82;112;82;f;v;1;j;b;1422.578799999883
#4nox06;28;False;1;P = T2?;ST2_low_5;2;Same;low;96;154;154;f;v;1;f;b;1050.1107000000047
#4nox06;29;False;1;P = T2?;ST1_high_2;1;Same;high;112;82;112;f;v;1;j;n;2176.3570999999047
#4nox06;30;False;1;P = T1?;ST2_low_6;2;Same;low;154;96;96;f;v;1;j;b;1728.5899000000882
#4nox06;31;False;1;P = T1?;ST1_low_4;1;Same;low;112;70;112;f;v;1;f;b;1161.1606999999822
#4nox06;32;False;1;P = T1?;ST1_high_4;1;Same;high;96;70;96;f;v;1;f;n;1542.064499999924
#4nox06;33;False;1;P = T2?;ST1_low_4;1;Same;low;112;70;112;f;v;1;j;n;5317.146500000035
#4nox06;34;False;1;P = T1?;ST1_low_4;1;Same;low;112;70;112;f;v;1;f;n;1047.5111000000652
#4nox06;35;False;1;P = T1?;ST1_high_1;1;Same;high;82;112;82;f;v;1;f;n;3342.7207999998245
#4nox06;36;False;1;P = T1?;ST2_high_3;2;Same;high;70;96;96;f;v;0;f;n;1045.9905999998682
#4nox06;37;False;1;P = T2?;ST1_low_4;1;Same;low;112;70;112;f;v;1;j;b;1504.5692999999574
#4nox06;38;False;1;P = T1?;ST2_low_4;2;Same;low;112;70;70;f;v;1;j;n;1121.4351999999508
#4nox06;39;False;1;P = T2?;ST2_low_1;2;Same;low;82;132;132;f;v;1;f;b;1013.8457999998991
#4nox06;40;False;1;P = T1?;ST2_low_4;2;Same;low;112;70;70;f;v;1;j;b;1122.9307000000972
#4nox06;41;False;1;P = T1?;ST2_low_1;2;Same;low;82;132;132;f;v;1;j;b;1040.240600000061
#4nox06;42;False;1;P = T1?;ST1_high_5;1;Same;high;96;132;96;f;v;1;f;n;847.4879999998848
#4nox06;43;False;1;P = T1?;ST1_low_1;1;Same;low;82;132;82;f;v;1;f;n;890.720999999985
#4nox06;44;False;1;P = T1?;STb_7;0;Same;None;154;154;154;f;v;1;f;b;1690.8574999999928
#4nox06;45;False;1;P = T1?;ST2_high_6;2;Same;high;132;96;96;f;v;1;j;b;805.7675999998537
#4nox06;46;False;1;P = T2?;ST1_high_3;1;Same;high;70;96;70;f;v;1;j;n;4074.9080000000504
#4nox06;47;False;1;P = T1?;DT2_high_4;2;Different;high;96;70;60;f;v;0;f;n;1244.1172999999708
#4nox06;48;False;1;P = T2?;ST2_high_1;2;Same;high;82;112;112;f;v;0;j;n;1406.6745000000083
#4nox06;49;False;1;P = T2?;ST1_high_5;1;Same;high;96;132;96;f;v;1;j;b;1082.0314000000053
#4nox06;50;False;1;P = T1?;ST1_low_2;1;Same;low;132;82;132;f;v;1;f;n;8184.26240000008
#4nox06;51;False;1;P = T1?;ST1_low_3;1;Same;low;70;112;70;f;v;1;f;n;920.1408999999785
#4nox06;52;False;1;P = T2?;DT1_low_2;1;Different;low;132;82;154;f;v;1;j;b;3732.5691999999435
#4nox06;53;False;1;P = T1?;ST2_high_2;2;Same;high;112;82;82;f;v;0;f;n;2106.6975999999613
#4nox06;54;False;1;P = T2?;ST1_high_5;1;Same;high;96;132;96;f;v;1;j;n;1855.12719999997
#4nox06;55;False;1;P = T2?;ST1_low_5;1;Same;low;96;154;96;f;v;1;j;b;1056.063100000074
#4nox06;56;False;1;P = T1?;ST2_high_5;2;Same;high;96;132;132;f;v;1;j;b;1369.995400000107
#4nox06;57;False;1;P = T1?;ST1_high_5;1;Same;high;96;132;96;f;v;1;f;b;1013.7618999999631
#4nox06;58;False;1;P = T2?;ST2_low_4;2;Same;low;112;70;70;f;v;1;f;n;2321.402600000056
#4nox06;59;False;1;P = T2?;ST2_high_4;2;Same;high;96;70;70;f;v;1;f;b;1224.2452999998932
#4nox06;60;False;1;P = T2?;ST2_low_2;2;Same;low;132;82;82;f;v;0;j;b;981.8892000000687
#4nox06;61;False;1;P = T2?;ST1_high_3;1;Same;high;70;96;70;f;v;1;j;n;941.2967000000663
#4nox06;62;False;1;P = T1?;ST2_high_4;2;Same;high;96;70;70;f;v;1;j;n;945.0653000001239
#4nox06;63;False;1;P = T2?;ST2_low_6;2;Same;low;154;96;96;f;v;1;f;b;1051.9243999999617
#4nox06;64;False;1;P = T1?;STb_5;0;Same;None;112;112;112;f;v;1;f;n;1102.4838999999247
#4nox06;65;False;1;P = T1?;ST1_low_6;1;Same;low;154;96;154;f;v;0;j;n;1156.9498999999723
#4nox06;66;False;1;P = T1?;ST1_high_5;1;Same;high;96;132;96;f;v;0;j;n;3019.1928000001553
#4nox06;67;False;1;P = T1?;ST1_high_4;1;Same;high;96;70;96;f;v;0;j;n;1011.6742000000158
#4nox06;68;False;1;P = T1?;DT2_low_5;2;Different;low;96;154;180;f;v;1;j;b;1073.283199999878
#4nox06;69;False;1;P = T2?;STb_4;0;Same;None;96;96;96;f;v;1;f;b;1472.902200000135
#4nox06;70;False;1;P = T1?;ST2_low_5;2;Same;low;96;154;154;f;v;1;j;n;1961.258600000292
#4nox06;71;False;1;P = T1?;ST1_high_2;1;Same;high;112;82;112;f;v;1;f;n;4192.89660000004
#4nox06;72;False;1;P = T1?;ST2_low_6;2;Same;low;154;96;96;f;v;1;j;b;952.2902000003342
#4nox06;73;False;1;P = T1?;DT1_high_5;1;Different;high;96;132;82;f;v;0;f;n;1266.9394999998076
#4nox06;74;False;1;P = T1?;ST2_high_3;2;Same;high;70;96;96;f;v;0;f;n;1052.5988999997935
#4nox06;75;False;1;P = T1?;ST2_low_5;2;Same;low;96;154;154;f;v;1;j;b;825.8531999999832
#4nox06;76;False;1;P = T2?;ST2_low_1;2;Same;low;82;132;132;f;v;1;f;b;698.8492999998925
#4nox06;77;False;1;P = T1?;ST2_high_1;2;Same;high;82;112;112;f;v;0;f;n;2566.278300000249
#4nox06;78;False;1;P = T2?;ST2_low_1;2;Same;low;82;132;132;f;v;1;f;n;1042.1746999995776
#4nox06;79;False;1;P = T1?;ST1_high_3;1;Same;high;70;96;70;f;v;0;j;b;840.1751000001241
#4nox06;80;False;1;P = T2?;ST1_high_4;1;Same;high;96;70;96;f;v;1;j;n;1163.1235999998353
#4nox06;81;False;1;P = T1?;ST1_high_6;1;Same;high;132;96;132;f;v;1;f;b;1238.466000000244
#4nox06;82;False;1;P = T2?;ST1_low_3;1;Same;low;70;112;70;f;v;1;j;b;1087.2090000002572
#4nox06;83;False;1;P = T1?;ST1_high_3;1;Same;high;70;96;70;f;v;1;f;b;979.3574000000262
#4nox06;84;False;1;P = T1?;ST2_low_2;2;Same;low;132;82;82;f;v;1;j;b;1166.942299999846
#4nox06;85;False;1;P = T1?;ST1_high_6;1;Same;high;132;96;132;f;v;0;j;n;1435.5405000001156
#4nox06;86;False;1;P = T2?;ST1_high_6;1;Same;high;132;96;132;f;v;1;j;b;1316.9922000001861
#4nox06;87;False;1;P = T2?;ST2_high_1;2;Same;high;82;112;112;f;v;0;j;b;1119.21620000021
#4nox06;88;False;1;P = T1?;ST1_low_3;1;Same;low;70;112;70;f;v;1;f;n;1080.5583999999726
#4nox06;89;False;1;P = T2?;STb_3;0;Same;None;82;82;82;f;v;1;f;b;803.1111000000237
#4nox06;90;False;1;P = T2?;ST1_low_3;1;Same;low;70;112;70;f;v;1;j;b;1051.6167999999197
#4nox06;91;False;1;P = T2?;ST2_low_6;2;Same;low;154;96;96;f;v;0;j;n;7730.455900000379
#4nox06;92;False;1;P = T2?;STb_5;0;Same;None;112;112;112;f;v;1;f;b;1163.3716999999706
#4nox06;93;False;1;P = T2?;ST2_high_6;2;Same;high;132;96;96;f;v;0;j;b;735.0950999998531
#4nox06;94;False;1;P = T1?;ST2_low_1;2;Same;low;82;132;132;f;v;1;j;n;4959.643799999867
#4nox06;95;False;1;P = T1?;ST1_low_5;1;Same;low;96;154;96;f;v;1;f;n;959.5491000000038
#4nox06;96;False;1;P = T1?;ST2_low_4;2;Same;low;112;70;70;f;v;1;j;b;1456.8859000000884
#4nox06;97;False;1;P = T1?;ST1_low_1;1;Same;low;82;132;82;f;v;0;j;n;1181.4923000001727
#4nox06;98;False;1;P = T1?;ST1_low_6;1;Same;low;154;96;154;f;v;1;f;b;1281.623099999706
#4nox06;99;False;1;P = T2?;ST2_high_5;2;Same;high;96;132;132;f;v;0;j;n;1025.2889999997024
#4nox06;100;False;1;P = T2?;ST1_high_6;1;Same;high;132;96;132;f;v;1;j;n;2512.3380999998517
#4nox06;101;False;1;P = T1?;STb_2;0;Same;None;70;70;70;f;v;1;f;b;1799.658299999919
#4nox06;102;False;1;P = T2?;ST1_low_1;1;Same;low;82;132;82;f;v;1;j;b;1002.6123000002372
#4nox06;103;False;1;P = T2?;DT1_high_3;1;Different;high;70;96;60;f;v;1;j;n;1228.8136000001941
#4nox06;104;False;1;P = T2?;STb_6;0;Same;None;132;132;132;f;v;1;f;b;1212.412100000165
#4nox06;105;False;1;P = T2?;STb_1;0;Same;None;60;60;60;f;v;1;f;b;3512.429500000053
#4nox06;106;False;1;P = T1?;ST1_high_4;1;Same;high;96;70;96;f;v;0;j;n;3235.2467000000615
#4nox06;107;False;1;P = T2?;ST2_high_3;2;Same;high;70;96;96;f;v;1;f;n;1226.7638999996962
#4nox06;108;False;1;P = T1?;ST1_low_5;1;Same;low;96;154;96;f;v;1;f;n;903.8509000001795
#4nox06;109;False;1;P = T1?;ST2_high_4;2;Same;high;96;70;70;f;v;0;f;b;2869.444100000237
#4nox06;110;False;1;P = T1?;ST2_low_5;2;Same;low;96;154;154;f;v;1;j;b;2007.1720000000823
#4nox06;111;False;1;P = T2?;ST1_high_4;1;Same;high;96;70;96;f;v;1;j;b;868.6106000000109
#4nox06;112;False;1;P = T2?;ST2_high_6;2;Same;high;132;96;96;f;v;1;f;b;1051.7629000000852
#4nox06;113;False;1;P = T2?;ST2_high_3;2;Same;high;70;96;96;f;v;1;f;n;1510.3180999999495
#4nox06;114;False;1;P = T2?;ST2_high_1;2;Same;high;82;112;112;f;v;0;j;b;774.4642999996358
#4nox06;115;False;1;P = T2?;ST2_high_5;2;Same;high;96;132;132;f;v;0;j;b;1364.6556999997301
#4nox06;116;False;1;P = T2?;ST1_low_3;1;Same;low;70;112;70;f;v;1;j;b;2752.924200000052
#4nox06;117;False;1;P = T2?;ST2_low_3;2;Same;low;70;112;112;f;v;1;f;n;2154.145999999855
#4nox06;118;False;1;P = T1?;ST1_high_2;1;Same;high;112;82;112;f;v;0;j;n;1433.258300000034
#4nox06;119;False;1;P = T1?;ST2_high_6;2;Same;high;132;96;96;f;v;1;j;b;1394.7668999999223
#4nox06;120;False;1;P = T1?;ST2_high_1;2;Same;high;82;112;112;f;v;0;f;n;2876.4147000001685
#4nox06;121;False;1;P = T2?;ST2_high_4;2;Same;high;96;70;70;f;v;1;f;b;2249.580799999876
#4nox06;122;False;1;P = T1?;ST1_high_2;1;Same;high;112;82;112;f;v;1;f;n;1384.0320999997857
#4nox06;123;False;1;P = T2?;ST1_low_6;1;Same;low;154;96;154;f;v;1;j;b;865.6528999999864
#4nox06;124;False;1;P = T1?;DT2_high_2;2;Different;high;112;82;70;f;v;0;f;n;1136.295599999812
#4nox06;125;False;1;P = T1?;ST1_low_2;1;Same;low;132;82;132;f;v;0;j;n;6352.493899999899
#4nox06;126;False;1;P = T1?;ST1_low_4;1;Same;low;112;70;112;f;v;1;f;n;917.3495999998522
#4nox06;127;False;1;P = T2?;ST1_high_4;1;Same;high;96;70;96;f;v;1;j;b;1556.9006999999147
#4nox06;128;False;1;P = T2?;DT2_high_6;2;Different;high;132;96;82;f;v;1;j;b;1029.1316999996525
#4nox06;129;False;1;P = T2?;ST1_low_4;1;Same;low;112;70;112;f;v;1;j;b;2038.6963000000833
#4nox06;130;False;1;P = T2?;ST2_high_3;2;Same;high;70;96;96;f;v;0;j;n;853.868600000169
#4nox06;131;False;1;P = T1?;STb_8;0;Same;None;180;180;180;f;v;0;j;n;1212.3177999997097
#4nox06;132;False;1;P = T2?;ST1_low_6;1;Same;low;154;96;154;f;v;1;j;b;1498.2803000002605
#4nox06;133;False;1;P = T2?;ST2_low_3;2;Same;low;70;112;112;f;v;1;f;n;2730.5882000000565
#4nox06;134;False;1;P = T2?;ST1_high_5;1;Same;high;96;132;96;f;v;1;j;b;2981.324399999721
#4nox06;135;False;1;P = T2?;STb_2;0;Same;None;70;70;70;f;v;1;f;b;1358.864000000267
#4nox06;136;False;1;P = T1?;ST2_high_1;2;Same;high;82;112;112;f;v;1;j;n;2967.659000000367
#4nox06;137;False;1;P = T1?;ST2_low_3;2;Same;low;70;112;112;f;v;1;j;n;1755.489000000125
#4nox06;138;False;1;P = T1?;ST2_low_3;2;Same;low;70;112;112;f;v;0;f;n;6759.672499999851
#4nox06;139;False;1;P = T2?;ST2_low_2;2;Same;low;132;82;82;f;v;1;f;b;2120.8913000000393
#4nox06;140;False;1;P = T1?;DT2_low_3;2;Different;low;70;112;132;f;v;1;j;b;1553.5882999997739
#4nox06;141;False;1;P = T1?;ST1_high_1;1;Same;high;82;112;82;f;v;1;f;n;1079.5591999999488
#4nox06;142;False;1;P = T1?;ST2_high_5;2;Same;high;96;132;132;f;v;1;j;b;919.8585999997704
#4nox06;143;False;1;P = T1?;STb_4;0;Same;None;96;96;96;f;v;1;f;b;2044.570499999736
#4nox06;144;False;1;P = T2?;ST1_high_1;1;Same;high;82;112;82;f;v;1;j;b;901.7912000003889
#4nox06;145;False;1;P = T1?;ST1_high_3;1;Same;high;70;96;70;f;v;1;f;n;1078.2068000003164
#4nox06;146;False;1;P = T1?;ST1_low_6;1;Same;low;154;96;154;f;v;1;f;n;3027.6583999998365
#4nox06;147;False;1;P = T2?;ST2_low_3;2;Same;low;70;112;112;f;v;0;j;n;1829.7645000002376
#4nox06;148;False;1;P = T1?;ST2_low_2;2;Same;low;132;82;82;f;v;1;j;b;1175.4507999999078
#4nox06;149;False;1;P = T2?;ST2_high_2;2;Same;high;112;82;82;f;v;1;f;n;1442.0617999999195
#4nox06;150;False;1;P = T1?;ST2_high_5;2;Same;high;96;132;132;f;v;1;j;n;1199.4838999999047
#4nox06;151;False;1;P = T2?;ST1_low_2;1;Same;low;132;82;132;f;v;1;j;b;1250.9188999997605
#4nox06;152;False;1;P = T2?;DT1_high_4;1;Different;high;96;70;112;f;v;1;j;b;996.1131000000023
#4nox06;153;False;1;P = T1?;STb_3;0;Same;None;82;82;82;f;v;1;f;b;993.5894999998709
#4nox06;154;False;1;P = T1?;ST1_high_1;1;Same;high;82;112;82;f;v;1;f;n;1700.395700000172
#4nox06;155;False;1;P = T2?;ST2_low_5;2;Same;low;96;154;154;f;v;0;j;n;2072.9253999998036
#4nox06;156;False;1;P = T1?;DT1_high_1;1;Different;high;82;112;70;f;v;0;f;b;1254.9857999997585
#4nox06;157;False;1;P = T2?;ST2_high_2;2;Same;high;112;82;82;f;v;0;j;n;1138.5098999999173
#4nox06;158;False;1;P = T1?;STb_6;0;Same;None;132;132;132;f;v;1;f;n;1468.3949000000212
#4nox06;159;False;1;P = T1?;ST1_low_5;1;Same;low;96;154;96;f;v;0;j;n;1644.8192000002564
#4nox06;160;False;1;P = T2?;ST2_high_5;2;Same;high;96;132;132;f;v;1;f;b;1089.1679000001204
#4nox06;161;False;1;P = T2?;ST2_high_6;2;Same;high;132;96;96;f;v;1;f;b;1331.213999999818
#4nox06;162;False;1;P = T1?;STb_1;0;Same;None;60;60;60;f;v;1;f;b;873.1868999998369
#4nox06;163;False;1;P = T1?;ST1_low_3;1;Same;low;70;112;70;f;v;1;f;n;2470.3645999998116
#4nox06;164;False;1;P = T2?;DT1_high_5;1;Different;high;96;132;82;f;v;1;j;b;2163.6946999997235
#4nox06;165;False;1;P = T2?;ST2_low_6;2;Same;low;154;96;96;f;v;1;f;n;1330.6157000001804
#4nox06;166;False;1;P = T2?;ST2_low_4;2;Same;low;112;70;70;f;v;1;f;n;5278.287799999816
#4nox06;167;False;1;P = T1?;ST2_high_6;2;Same;high;132;96;96;f;v;1;j;b;1299.6595000004163
#4nox06;168;False;1;P = T2?;DT2_low_2;2;Different;low;132;82;70;f;v;0;f;n;1337.8529999999955
#4nox06;169;False;1;P = T2?;ST1_low_6;1;Same;low;154;96;154;f;v;1;j;b;2055.5601999999453
#4nox06;170;False;1;P = T2?;ST1_low_2;1;Same;low;132;82;132;f;v;1;j;n;2371.2992999999187
#4nox06;171;False;1;P = T1?;ST2_high_2;2;Same;high;112;82;82;f;v;0;f;b;1595.4830999999103
#4nox06;172;False;1;P = T2?;ST2_low_5;2;Same;low;96;154;154;f;v;1;f;b;1146.0734000002049
#4nox06;173;False;1;P = T2?;ST1_high_2;1;Same;high;112;82;112;f;v;0;f;b;1034.6857000004093
#4nox06;174;False;1;P = T2?;ST1_low_1;1;Same;low;82;132;82;f;v;1;j;b;585.1238000000194
#4nox06;175;False;1;P = T2?;ST1_high_6;1;Same;high;132;96;132;f;v;1;j;b;1123.7992999999733
#4nox06;176;False;1;P = T1?;DT1_low_4;1;Different;low;112;70;132;f;v;1;j;b;976.9731000001229
#4nox06;1;True;2;P != T1?;ST1_high_2;1;Same;high;112;82;112;f;v;0;f;b;2220.4533999997693
#4nox06;2;True;2;P != T2?;DT2_low_5;2;Different;low;96;154;180;f;v;0;j;b;1559.0013999999428
#4nox06;3;True;2;P != T1?;DT2_high_3;2;Different;high;70;96;112;f;v;1;f;n;4966.0125000000335
#4nox06;4;True;2;P != T1?;STb_2;0;Same;None;70;70;70;f;v;1;j;n;1370.5873000003521
#4nox06;5;True;2;P != T2?;DT2_low_6;2;Different;low;154;96;82;f;v;0;j;n;1128.6334000001261
#4nox06;6;True;2;P != T1?;STb_5;0;Same;None;112;112;112;f;v;0;f;n;2813.6491000000206
#4nox06;7;True;2;P != T2?;ST1_high_2;1;Same;high;112;82;112;f;v;1;f;n;781.4610999998877
#4nox06;8;True;2;P != T2?;ST1_high_3;1;Same;high;70;96;70;f;v;0;j;n;730.5338000001029
#4nox06;9;True;2;P != T1?;ST1_low_5;1;Same;low;96;154;96;f;v;0;f;n;630.1482999997461
#4nox06;10;True;2;P != T2?;ST2_low_1;2;Same;low;82;132;132;f;v;1;j;n;2314.739599999939
#4nox06;11;True;2;P != T1?;DT1_low_5;1;Different;low;96;154;82;f;v;1;f;n;780.035300000236
#4nox06;12;True;2;P != T1?;ST2_high_5;2;Same;high;96;132;132;f;v;1;f;n;1724.3025999996462
#4nox06;13;True;2;P != T2?;STb_5;0;Same;None;112;112;112;f;v;1;j;n;2331.958499999928
#4nox06;14;True;2;P != T2?;STb_7;0;Same;None;154;154;154;f;v;1;j;n;1656.1965999999302
#4nox06;15;True;2;P != T1?;ST2_low_6;2;Same;low;154;96;96;f;v;1;f;b;1304.8631999999998
#4nox06;16;True;2;P != T2?;ST2_high_2;2;Same;high;112;82;82;f;v;0;f;n;803.0038000001696
#4nox06;1;False;2;P != T2?;DT1_high_5;1;Different;high;96;132;82;f;v;0;j;n;3786.1586000003626
#4nox06;2;False;2;P != T2?;ST2_high_5;2;Same;high;96;132;132;f;v;1;j;n;2035.3368999999475
#4nox06;3;False;2;P != T2?;DT1_high_6;1;Different;high;132;96;154;f;v;1;f;b;1035.3776000001744
#4nox06;4;False;2;P != T1?;DT1_high_5;1;Different;high;96;132;82;f;v;1;f;n;1377.5641000001997
#4nox06;5;False;2;P != T2?;ST2_low_6;2;Same;low;154;96;96;f;v;1;j;b;1210.8259999999973
#4nox06;6;False;2;P != T1?;ST1_high_3;1;Same;high;70;96;70;f;v;1;j;n;1288.3952000001955
#4nox06;7;False;2;P != T1?;ST2_high_6;2;Same;high;132;96;96;f;v;0;j;n;2163.1572000001142
#4nox06;8;False;2;P != T1?;ST2_low_1;2;Same;low;82;132;132;f;v;1;f;b;863.4130999998888
#4nox06;9;False;2;P != T1?;ST1_low_4;1;Same;low;112;70;112;f;v;0;f;n;801.7172999998365
#4nox06;10;False;2;P != T2?;ST1_high_3;1;Same;high;70;96;70;f;v;1;f;n;1005.5978999998842
#4nox06;11;False;2;P != T2?;ST2_low_1;2;Same;low;82;132;132;f;v;1;j;n;1866.2128999999368
#4nox06;12;False;2;P != T2?;ST2_high_2;2;Same;high;112;82;82;f;v;0;f;n;1373.0483999997887
#4nox06;13;False;2;P != T2?;ST1_high_5;1;Same;high;96;132;96;f;v;1;f;n;1501.0495999999875
#4nox06;14;False;2;P != T1?;ST2_low_3;2;Same;low;70;112;112;f;v;1;f;n;1467.4790000003668
#4nox06;15;False;2;P != T2?;ST2_low_3;2;Same;low;70;112;112;f;v;1;j;n;1940.570399999615
#4nox06;16;False;2;P != T1?;DT2_low_5;2;Different;low;96;154;180;f;v;1;f;n;2503.2648000001245
#4nox06;17;False;2;P != T2?;ST2_high_3;2;Same;high;70;96;96;f;v;0;f;b;1412.417000000005
#4nox06;18;False;2;P != T1?;ST1_low_4;1;Same;low;112;70;112;f;v;0;f;n;1073.7009999998008
#4nox06;19;False;2;P != T2?;DT1_high_4;1;Different;high;96;70;112;f;v;0;j;n;3085.750199999893
#4nox06;20;False;2;P != T2?;ST2_high_6;2;Same;high;132;96;96;f;v;1;j;n;1550.081599999885
#4nox06;21;False;2;P != T2?;ST1_high_3;1;Same;high;70;96;70;f;v;0;j;n;1700.9573000000273
#4nox06;22;False;2;P != T1?;ST2_high_6;2;Same;high;132;96;96;f;v;1;f;b;1495.2639000002819
#4nox06;23;False;2;P != T1?;ST2_high_1;2;Same;high;82;112;112;f;v;1;f;b;871.7440999998871
#4nox06;24;False;2;P != T1?;ST1_high_1;1;Same;high;82;112;82;f;v;1;j;n;2893.738300000223
#4nox06;25;False;2;P != T2?;ST1_high_1;1;Same;high;82;112;82;f;v;1;f;b;4417.70170000018
#4nox06;26;False;2;P != T1?;ST1_low_1;1;Same;low;82;132;82;f;v;0;f;n;7693.065599999954
#4nox06;27;False;2;P != T2?;ST1_high_6;1;Same;high;132;96;132;f;v;1;f;n;1197.7833999999348
#4nox06;28;False;2;P != T2?;DT2_low_2;2;Different;low;132;82;70;f;v;0;j;n;1845.1697999998942
#4nox06;29;False;2;P != T2?;ST1_high_4;1;Same;high;96;70;96;f;v;1;f;n;3080.322100000103
#4nox06;30;False;2;P != T2?;ST2_low_2;2;Same;low;132;82;82;f;v;1;j;b;906.5982000001895
#4nox06;31;False;2;P != T1?;ST2_high_5;2;Same;high;96;132;132;f;v;1;f;b;859.1227000001709
#4nox06;32;False;2;P != T1?;ST1_low_3;1;Same;low;70;112;70;f;v;1;j;n;1525.374499999998
#4nox06;33;False;2;P != T2?;ST2_low_4;2;Same;low;112;70;70;f;v;1;j;b;1407.4169999998958
#4nox06;34;False;2;P != T1?;ST1_high_4;1;Same;high;96;70;96;f;v;0;f;n;2761.770500000239
#4nox06;35;False;2;P != T1?;ST2_high_5;2;Same;high;96;132;132;f;v;1;f;b;1489.89709999978
#4nox06;36;False;2;P != T1?;ST1_low_6;1;Same;low;154;96;154;f;v;1;j;b;1360.4138000000603
#4nox06;37;False;2;P != T2?;ST1_low_3;1;Same;low;70;112;70;f;v;1;f;n;1572.4549999999908
#4nox06;38;False;2;P != T2?;ST1_low_5;1;Same;low;96;154;96;f;v;1;f;b;1352.648400000362
#4nox06;39;False;2;P != T2?;ST2_low_3;2;Same;low;70;112;112;f;v;0;f;b;1041.8057999995654
#4nox06;40;False;2;P != T2?;ST1_high_5;1;Same;high;96;132;96;f;v;1;f;b;1494.7022000001198
#4nox06;41;False;2;P != T2?;DT2_high_1;2;Different;high;82;112;132;f;v;1;f;n;1487.6153000000158
#4nox06;42;False;2;P != T1?;ST2_high_5;2;Same;high;96;132;132;f;v;1;f;n;2629.8475000003236
#4nox06;43;False;2;P != T1?;ST2_low_2;2;Same;low;132;82;82;f;v;1;f;b;1686.9661999999153
#4nox06;44;False;2;P != T2?;ST1_high_5;1;Same;high;96;132;96;f;v;1;f;n;1982.2230999998283
#4nox06;45;False;2;P != T1?;ST2_low_4;2;Same;low;112;70;70;f;v;0;j;b;1667.9879000002984
#4nox06;46;False;2;P != T2?;ST1_high_2;1;Same;high;112;82;112;f;v;1;f;n;2650.714799999605
#4nox06;47;False;2;P != T1?;ST2_low_4;2;Same;low;112;70;70;f;v;0;j;n;2178.6917000003996
#4nox06;48;False;2;P != T2?;STb_4;0;Same;None;96;96;96;f;v;1;j;n;2147.967400000198
#4nox06;49;False;2;P != T2?;ST1_low_6;1;Same;low;154;96;154;f;v;0;j;n;1953.5013999998228
#4nox06;50;False;2;P != T2?;ST1_low_1;1;Same;low;82;132;82;f;v;1;f;n;2853.2021999999415
#4nox06;51;False;2;P != T2?;ST1_low_6;1;Same;low;154;96;154;f;v;1;f;b;1706.5816999997878
#4nox06;52;False;2;P != T1?;ST1_low_2;1;Same;low;132;82;132;f;v;1;j;n;2647.552800000085
#4nox06;53;False;2;P != T2?;STb_7;0;Same;None;154;154;154;f;v;1;j;b;729.1795999999522
#4nox06;54;False;2;P != T1?;ST1_low_6;1;Same;low;154;96;154;f;v;1;j;n;1258.692599999904
#4nox06;55;False;2;P != T2?;ST2_high_4;2;Same;high;96;70;70;f;v;1;j;n;1837.3185000000376
#4nox06;56;False;2;P != T1?;ST1_high_1;1;Same;high;82;112;82;f;v;1;j;n;1367.3217000000477
#4nox06;57;False;2;P != T1?;ST2_low_5;2;Same;low;96;154;154;f;v;1;f;b;3808.7496000007377
#4nox06;58;False;2;P != T1?;ST1_high_2;1;Same;high;112;82;112;f;v;1;j;n;1146.193999999923
#4nox06;59;False;2;P != T1?;ST2_low_6;2;Same;low;154;96;96;f;v;1;f;b;1359.3682999999146
#4nox06;60;False;2;P != T2?;ST1_high_1;1;Same;high;82;112;82;f;v;1;f;b;1819.3583000002036
#4nox06;61;False;2;P != T2?;DT1_low_6;1;Different;low;154;96;180;f;v;1;f;b;920.8420999993905
#4nox06;62;False;2;P != T2?;ST1_high_3;1;Same;high;70;96;70;f;v;1;f;n;914.361099999951
#4nox06;63;False;2;P != T2?;ST2_high_3;2;Same;high;70;96;96;f;v;1;j;n;2221.261200000299
#4nox06;64;False;2;P != T2?;ST1_low_2;1;Same;low;132;82;132;f;v;1;f;n;1314.612600000146
#4nox06;65;False;2;P != T1?;ST1_low_6;1;Same;low;154;96;154;f;v;0;f;n;1251.7959000006158
#4nox06;66;False;2;P != T2?;STb_3;0;Same;None;82;82;82;f;v;1;j;b;1675.5661999995937
#4nox06;67;False;2;P != T1?;ST2_high_4;2;Same;high;96;70;70;f;v;0;j;n;1402.9489000004105
#4nox06;68;False;2;P != T2?;ST2_high_6;2;Same;high;132;96;96;f;v;1;j;n;994.7556999995868
#4nox06;69;False;2;P != T1?;ST2_high_3;2;Same;high;70;96;96;f;v;0;j;n;5784.2147999999725
#4nox06;70;False;2;P != T1?;ST1_high_3;1;Same;high;70;96;70;f;v;1;j;n;1227.1154000000024
#4nox06;71;False;2;P != T1?;STb_8;0;Same;None;180;180;180;f;v;1;j;n;954.2056999998749
#4nox06;72;False;2;P != T2?;ST1_low_4;1;Same;low;112;70;112;f;v;1;f;b;1165.7280999997965
#4nox06;73;False;2;P != T1?;DT1_high_4;1;Different;high;96;70;112;f;v;0;j;n;851.1059000002206
#4nox06;74;False;2;P != T2?;DT2_low_6;2;Different;low;154;96;82;f;v;0;j;b;1606.6970000001675
#4nox06;75;False;2;P != T2?;ST1_low_1;1;Same;low;82;132;82;f;v;1;f;b;839.6698999995351
#4nox06;76;False;2;P != T1?;ST2_low_1;2;Same;low;82;132;132;f;v;1;f;b;1358.1784000007247
#4nox06;77;False;2;P != T1?;STb_7;0;Same;None;154;154;154;f;v;1;j;b;280.6998999994903
#4nox06;78;False;2;P != T1?;ST1_low_5;1;Same;low;96;154;96;f;v;1;j;n;1795.0561000006928
#4nox06;79;False;2;P != T1?;ST1_high_1;1;Same;high;82;112;82;f;v;1;j;n;3568.0480999999418
#4nox06;80;False;2;P != T2?;ST1_low_1;1;Same;low;82;132;82;f;v;1;f;b;1211.0172000002422
#4nox06;81;False;2;P != T1?;ST2_low_6;2;Same;low;154;96;96;f;v;1;f;b;2364.2582999991646
#4nox06;82;False;2;P != T1?;STb_3;0;Same;None;82;82;82;f;v;1;j;n;2661.0642999994525
#4nox06;83;False;2;P != T1?;ST2_high_4;2;Same;high;96;70;70;f;v;0;j;n;3550.813599999856
#4nox06;84;False;2;P != T1?;ST2_low_5;2;Same;low;96;154;154;f;v;1;f;b;1809.2641000002914
#4nox06;85;False;2;P != T2?;ST1_high_2;1;Same;high;112;82;112;f;v;1;f;b;1201.5261999995346
#4nox06;86;False;2;P != T2?;STb_5;0;Same;None;112;112;112;f;v;0;f;b;1221.1386999997558
#4nox06;87;False;2;P != T1?;ST1_high_5;1;Same;high;96;132;96;f;v;1;j;n;1310.6646999995064
#4nox06;88;False;2;P != T1?;ST2_low_3;2;Same;low;70;112;112;f;v;1;f;n;844.1468999999415
#4nox06;89;False;2;P != T2?;ST2_low_1;2;Same;low;82;132;132;f;v;1;j;n;1755.3428000001077
#4nox06;90;False;2;P != T1?;ST1_high_4;1;Same;high;96;70;96;f;v;0;f;n;1992.9550999995627
#4nox06;91;False;2;P != T1?;ST2_low_3;2;Same;low;70;112;112;f;v;1;f;n;2011.9428999996671
#4nox06;92;False;2;P != T1?;STb_5;0;Same;None;112;112;112;f;v;1;j;b;861.9236000004094
#4nox06;93;False;2;P != T1?;ST2_low_5;2;Same;low;96;154;154;f;v;1;f;b;1286.439700000301
#4nox06;94;False;2;P != T2?;ST2_low_6;2;Same;low;154;96;96;f;v;1;j;b;896.194199999627
#4nox06;95;False;2;P != T1?;ST1_high_2;1;Same;high;112;82;112;f;v;0;f;n;3419.875499999762
#4nox06;96;False;2;P != T1?;ST1_high_5;1;Same;high;96;132;96;f;v;1;j;n;1794.7006000003967
#4nox06;97;False;2;P != T1?;ST1_low_3;1;Same;low;70;112;70;f;v;1;j;n;1589.045000000624
#4nox06;98;False;2;P != T1?;ST2_high_6;2;Same;high;132;96;96;f;v;1;f;b;1250.168499999745
#4nox06;99;False;2;P != T1?;STb_1;0;Same;None;60;60;60;f;v;1;j;b;755.8626000000004
#4nox06;100;False;2;P != T1?;ST2_low_4;2;Same;low;112;70;70;f;v;1;f;n;3666.4469000006648
#4nox06;101;False;2;P != T1?;ST2_low_6;2;Same;low;154;96;96;f;v;0;j;b;373.0899000001955
#4nox06;102;False;2;P != T2?;ST2_low_6;2;Same;low;154;96;96;f;v;1;j;b;1047.340300000542
#4nox06;103;False;2;P != T2?;ST2_low_2;2;Same;low;132;82;82;f;v;1;j;b;1299.0095999994082
#4nox06;104;False;2;P != T1?;ST2_high_2;2;Same;high;112;82;82;f;v;0;j;n;1742.3648000003595
#4nox06;105;False;2;P != T2?;ST1_high_6;1;Same;high;132;96;132;f;v;1;f;b;1538.1294999997408
#4nox06;106;False;2;P != T2?;ST1_high_2;1;Same;high;112;82;112;f;v;0;j;n;4252.675499999896
#4nox06;107;False;2;P != T2?;ST2_high_1;2;Same;high;82;112;112;f;v;0;f;n;1134.6407999999428
#4nox06;108;False;2;P != T1?;ST1_low_2;1;Same;low;132;82;132;f;v;1;j;n;1261.8173999999271
#4nox06;109;False;2;P != T1?;DT1_low_5;1;Different;low;96;154;82;f;v;0;j;b;1244.2030000001978
#4nox06;110;False;2;P != T2?;ST2_high_4;2;Same;high;96;70;70;f;v;1;j;b;803.575500000079
#4nox06;111;False;2;P != T1?;ST1_high_3;1;Same;high;70;96;70;f;v;1;j;b;4543.7794999998005
#4nox06;112;False;2;P != T2?;ST1_low_5;1;Same;low;96;154;96;f;v;1;f;b;1334.4443000005413
#4nox06;113;False;2;P != T1?;STb_4;0;Same;None;96;96;96;f;v;1;j;b;1114.2506000005596
#4nox06;114;False;2;P != T2?;ST2_high_4;2;Same;high;96;70;70;f;v;1;j;n;1056.3602000001993
#4nox06;115;False;2;P != T1?;ST2_low_2;2;Same;low;132;82;82;f;v;1;f;b;1392.6775999998426
#4nox06;116;False;2;P != T1?;ST2_high_1;2;Same;high;82;112;112;f;v;1;f;b;1177.8865999995105
#4nox06;117;False;2;P != T2?;ST2_low_5;2;Same;low;96;154;154;f;v;1;j;b;860.1360000002387
#4nox06;118;False;2;P != T2?;STb_8;0;Same;None;180;180;180;f;v;1;j;b;268.5788999997385
#4nox06;119;False;2;P != T2?;ST1_low_4;1;Same;low;112;70;112;f;v;1;f;n;806.0277999993559
#4nox06;120;False;2;P != T1?;ST1_high_2;1;Same;high;112;82;112;f;v;1;j;n;1887.0629000002737
#4nox06;121;False;2;P != T2?;STb_6;0;Same;None;132;132;132;f;v;1;j;b;1006.9932999995217
#4nox06;122;False;2;P != T2?;ST2_low_4;2;Same;low;112;70;70;f;v;0;f;n;5297.092199999497
#4nox06;123;False;2;P != T1?;DT2_low_1;2;Different;low;82;132;154;f;v;1;f;b;1238.8308999998117
#4nox06;124;False;2;P != T1?;ST2_high_2;2;Same;high;112;82;82;f;v;1;f;n;2196.6311999995014
#4nox06;125;False;2;P != T1?;ST2_high_4;2;Same;high;96;70;70;f;v;1;f;n;1565.1916999995592
#4nox06;126;False;2;P != T2?;ST1_low_6;1;Same;low;154;96;154;f;v;1;f;b;1550.6549000001542
#4nox06;127;False;2;P != T2?;ST1_high_4;1;Same;high;96;70;96;f;v;0;j;n;1657.8832000004695
#4nox06;128;False;2;P != T1?;ST1_low_5;1;Same;low;96;154;96;f;v;1;j;n;959.1239000001224
#4nox06;129;False;2;P != T1?;STb_2;0;Same;None;70;70;70;f;v;1;j;n;2587.467999999717
#4nox06;130;False;2;P != T1?;ST1_low_1;1;Same;low;82;132;82;f;v;1;j;n;2022.3858999997901
#4nox06;131;False;2;P != T1?;ST1_high_6;1;Same;high;132;96;132;f;v;1;j;n;3363.4058000006917
#4nox06;132;False;2;P != T1?;ST1_high_4;1;Same;high;96;70;96;f;v;1;j;n;7891.494100000273
#4nox06;133;False;2;P != T2?;ST1_low_2;1;Same;low;132;82;132;f;v;1;f;b;1124.8860000005152
#4nox06;134;False;2;P != T2?;ST2_low_1;2;Same;low;82;132;132;f;v;0;f;n;2617.7575000001525
#4nox06;135;False;2;P != T1?;ST2_high_3;2;Same;high;70;96;96;f;v;0;j;n;1095.7819999994172
#4nox06;136;False;2;P != T1?;ST1_low_2;1;Same;low;132;82;132;f;v;1;j;n;1725.1341999999568
#4nox06;137;False;2;P != T1?;STb_6;0;Same;None;132;132;132;f;v;1;j;n;750.3375999995114
#4nox06;138;False;2;P != T1?;DT1_high_3;1;Different;high;70;96;60;f;v;1;f;n;404.04989999933605
#4nox06;139;False;2;P != T2?;ST2_high_3;2;Same;high;70;96;96;f;v;1;j;b;1195.0739000003523
#4nox06;140;False;2;P != T2?;ST1_high_4;1;Same;high;96;70;96;f;v;1;f;n;8926.013299999795
#4nox06;141;False;2;P != T2?;ST2_high_6;2;Same;high;132;96;96;f;v;1;j;n;950.8679999999003
#4nox06;142;False;2;P != T1?;ST1_low_5;1;Same;low;96;154;96;f;v;1;j;n;2954.0452999999616
#4nox06;143;False;2;P != T2?;STb_2;0;Same;None;70;70;70;f;v;1;j;n;851.9937999999456
#4nox06;144;False;2;P != T2?;ST1_low_5;1;Same;low;96;154;96;f;v;1;f;b;828.5525000001144
#4nox06;145;False;2;P != T1?;ST1_low_1;1;Same;low;82;132;82;f;v;1;j;n;1170.1445999997304
#4nox06;146;False;2;P != T1?;DT2_high_4;2;Different;high;96;70;60;f;v;1;f;n;1643.1573999998363
#4nox06;147;False;2;P != T1?;ST1_high_6;1;Same;high;132;96;132;f;v;1;j;b;2411.5437999998903
#4nox06;148;False;2;P != T1?;ST2_low_1;2;Same;low;82;132;132;f;v;1;f;n;2403.1423000005816
#4nox06;149;False;2;P != T2?;ST1_low_3;1;Same;low;70;112;70;f;v;1;f;b;857.5256000003719
#4nox06;150;False;2;P != T1?;ST1_high_5;1;Same;high;96;132;96;f;v;1;j;n;2131.4658999999665
#4nox06;151;False;2;P != T2?;ST1_high_6;1;Same;high;132;96;132;f;v;1;f;b;855.4385000006732
#4nox06;152;False;2;P != T1?;ST1_low_4;1;Same;low;112;70;112;f;v;1;j;n;3436.6175999994084
#4nox06;153;False;2;P != T1?;ST2_high_1;2;Same;high;82;112;112;f;v;1;f;b;1342.2762999998668
#4nox06;154;False;2;P != T2?;ST1_high_1;1;Same;high;82;112;82;f;v;1;f;b;3152.299999999741
#4nox06;155;False;2;P != T2?;ST2_low_5;2;Same;low;96;154;154;f;v;1;j;b;947.5217999997767
#4nox06;156;False;2;P != T2?;ST2_low_4;2;Same;low;112;70;70;f;v;1;j;n;1041.7999999999665
#4nox06;157;False;2;P != T2?;DT1_high_2;1;Different;high;112;82;132;f;v;1;f;n;4634.720999999445
#4nox06;158;False;2;P != T1?;ST1_low_3;1;Same;low;70;112;70;f;v;1;j;n;2316.3242999999056
#4nox06;159;False;2;P != T2?;ST2_low_3;2;Same;low;70;112;112;f;v;1;j;n;6385.259699999551
#4nox06;160;False;2;P != T2?;ST2_low_5;2;Same;low;96;154;154;f;v;1;j;b;1690.760099999352
#4nox06;161;False;2;P != T2?;ST2_high_2;2;Same;high;112;82;82;f;v;1;j;b;1452.6708000003055
#4nox06;162;False;2;P != T1?;DT1_high_6;1;Different;high;132;96;154;f;v;1;f;b;2950.180200000432
#4nox06;163;False;2;P != T2?;ST2_high_5;2;Same;high;96;132;132;f;v;1;j;b;2199.375300000611
#4nox06;164;False;2;P != T2?;ST1_low_4;1;Same;low;112;70;112;f;v;1;f;b;961.5247000001546
#4nox06;165;False;2;P != T2?;ST2_high_5;2;Same;high;96;132;132;f;v;1;j;b;1884.4098999998096
#4nox06;166;False;2;P != T2?;ST1_low_2;1;Same;low;132;82;132;f;v;1;f;b;1089.1330999993443
#4nox06;167;False;2;P != T2?;ST2_high_2;2;Same;high;112;82;82;f;v;1;j;b;1139.3573000004835
#4nox06;168;False;2;P != T2?;ST2_high_1;2;Same;high;82;112;112;f;v;1;j;n;1094.967799999722
#4nox06;169;False;2;P != T1?;ST2_high_3;2;Same;high;70;96;96;f;v;0;j;b;307.25620000066556
#4nox06;170;False;2;P != T2?;ST2_low_2;2;Same;low;132;82;82;f;v;1;j;n;2508.567800000492
#4nox06;171;False;2;P != T1?;ST2_high_2;2;Same;high;112;82;82;f;v;0;j;n;1122.545999999602
#4nox06;172;False;2;P != T2?;ST1_low_3;1;Same;low;70;112;70;f;v;0;j;n;1671.5543999998772
#4nox06;173;False;2;P != T1?;ST2_low_2;2;Same;low;132;82;82;f;v;1;f;n;1723.3484999997017
#4nox06;174;False;2;P != T2?;ST2_high_1;2;Same;high;82;112;112;f;v;0;f;b;962.5034999999116
#4nox06;175;False;2;P != T2?;STb_1;0;Same;None;60;60;60;f;v;1;j;b;516.2158999992243
#4nox06;176;False;2;P != T1?;ST1_high_6;1;Same;high;132;96;132;f;v;1;j;b;2253.704500000822
