p_code;trial_nr;practice;block;question;condition;seqPos;Same_or_Diff;ITS;T1_hz;T2_hz;P_hz;yes_key;sure_key;correct;yes_no;rating;resp_time
041r!ie;1;True;1;P = T2?;ST2_low_1;2;Same;low;82;132;132;j;n;1;j;v;2675.9972999998354
041r!ie;2;True;1;P = T1?;STb_5;0;Same;None;112;112;112;j;n;0;f;b;1263.3645999999317
041r!ie;3;True;1;P = T1?;ST1_low_3;1;Same;low;70;112;70;j;n;1;j;v;1750.3997999999683
041r!ie;4;True;1;P = T2?;ST2_high_5;2;Same;high;96;132;132;j;n;1;j;v;1055.1819999998315
041r!ie;5;True;1;P = T2?;ST1_low_5;1;Same;low;96;154;96;j;n;0;j;b;1510.3483000000324
041r!ie;6;True;1;P = T2?;DT2_high_4;2;Different;high;96;70;60;j;n;0;j;b;874.586600000157
041r!ie;7;True;1;P = T2?;ST1_high_1;1;Same;high;82;112;82;j;n;0;j;v;757.3406999999861
041r!ie;8;True;1;P = T1?;ST1_low_4;1;Same;low;112;70;112;j;n;1;j;v;1725.335399999949
041r!ie;9;True;1;P = T1?;ST2_low_1;2;Same;low;82;132;132;j;n;0;j;v;810.3697000001375
041r!ie;10;True;1;P = T2?;STb_1;0;Same;None;60;60;60;j;n;1;j;b;1139.874200000122
041r!ie;11;True;1;P = T1?;DT2_low_1;2;Different;low;82;132;154;j;n;1;f;v;959.8994000000403
041r!ie;12;True;1;P = T1?;STb_7;0;Same;None;154;154;154;j;n;1;j;v;1121.776200000113
041r!ie;13;True;1;P = T1?;DT2_high_5;2;Different;high;96;132;154;j;n;0;j;v;623.2346000001598
041r!ie;14;True;1;P = T2?;DT2_low_4;2;Different;low;112;70;60;j;n;0;j;v;685.0816000001032
041r!ie;15;True;1;P = T2?;STb_2;0;Same;None;70;70;70;j;n;1;j;v;674.1899000001013
041r!ie;16;True;1;P = T1?;ST2_low_3;2;Same;low;70;112;112;j;n;1;f;v;1888.2511000001614
p_code;trial_nr;practice;block;question;condition;seqPos;Same_or_Diff;ITS;T1_hz;T2_hz;P_hz;yes_key;sure_key;correct;yes_no;rating;resp_time
041r!ie;1;False;1;P = T2?;ST1_low_2;1;Same;low;132;82;132;j;n;0;j;v;1205.6978000000527
041r!ie;2;False;1;P = T2?;ST2_low_5;2;Same;low;96;154;154;j;n;1;j;v;520.566300000155
041r!ie;3;False;1;P = T1?;ST1_low_3;1;Same;low;70;112;70;j;n;0;f;b;1390.1917999999114
041r!ie;4;False;1;P = T1?;ST2_high_1;2;Same;high;82;112;112;j;n;0;j;v;1484.6835000000738
041r!ie;5;False;1;P = T2?;DT1_low_3;1;Different;low;70;112;60;j;n;1;f;v;981.5433999999641
041r!ie;6;False;1;P = T1?;ST2_low_6;2;Same;low;154;96;96;j;n;0;j;b;1787.9780000000665
041r!ie;7;False;1;P = T1?;DT2_low_2;2;Different;low;132;82;70;j;n;1;f;v;1316.6649000002053
041r!ie;8;False;1;P = T1?;DT1_low_6;1;Different;low;154;96;180;j;n;0;j;b;1704.03639999995
041r!ie;9;False;1;P = T2?;ST1_low_6;1;Same;low;154;96;154;j;n;0;j;v;2209.205000000111
041r!ie;10;False;1;P = T1?;DT1_low_3;1;Different;low;70;112;60;j;n;1;f;b;966.4895000000797
041r!ie;11;False;1;P = T2?;ST2_high_3;2;Same;high;70;96;96;j;n;1;j;b;1236.3552000001619
041r!ie;12;False;1;P = T2?;ST1_low_4;1;Same;low;112;70;112;j;n;0;j;v;1247.1477999999934
041r!ie;13;False;1;P = T2?;ST1_low_1;1;Same;low;82;132;82;j;n;0;j;v;1512.5854000000345
041r!ie;14;False;1;P = T2?;ST1_low_6;1;Same;low;154;96;154;j;n;0;j;v;1391.519199999948
041r!ie;15;False;1;P = T1?;ST1_high_6;1;Same;high;132;96;132;j;n;0;f;v;1165.8829999998943
041r!ie;16;False;1;P = T1?;ST1_low_4;1;Same;low;112;70;112;j;n;1;j;v;1735.5140999998184
041r!ie;17;False;1;P = T1?;ST2_high_5;2;Same;high;96;132;132;j;n;1;f;b;1095.3415999999834
041r!ie;18;False;1;P = T2?;ST1_low_5;1;Same;low;96;154;96;j;n;1;f;b;1021.2063000001308
041r!ie;19;False;1;P = T2?;DT2_high_1;2;Different;high;82;112;132;j;n;0;j;v;1052.5816999997915
041r!ie;20;False;1;P = T2?;ST1_high_4;1;Same;high;96;70;96;j;n;0;j;v;1406.708799999933
041r!ie;21;False;1;P = T2?;ST2_high_6;2;Same;high;132;96;96;j;n;0;f;v;1811.216899999863
041r!ie;22;False;1;P = T1?;ST2_high_2;2;Same;high;112;82;82;j;n;1;f;v;2383.88800000007
041r!ie;23;False;1;P = T2?;ST2_low_2;2;Same;low;132;82;82;j;n;0;f;v;864.3505000000005
041r!ie;24;False;1;P = T1?;ST1_high_2;1;Same;high;112;82;112;j;n;0;f;v;1022.4731999999221
041r!ie;25;False;1;P = T1?;ST1_high_2;1;Same;high;112;82;112;j;n;1;j;b;1302.7644000001146
041r!ie;26;False;1;P = T2?;DT2_low_2;2;Different;low;132;82;70;j;n;1;f;v;1004.8254999999244
041r!ie;27;False;1;P = T2?;ST1_high_1;1;Same;high;82;112;82;j;n;0;j;b;844.6016000000327
041r!ie;28;False;1;P = T2?;ST2_high_4;2;Same;high;96;70;70;j;n;0;f;v;936.6930000001048
041r!ie;29;False;1;P = T2?;ST1_high_1;1;Same;high;82;112;82;j;n;1;f;v;1458.8920000001053
041r!ie;30;False;1;P = T1?;STb_8;0;Same;None;180;180;180;j;n;1;j;b;440.4314999999315
041r!ie;31;False;1;P = T1?;ST1_high_5;1;Same;high;96;132;96;j;n;0;f;v;1564.5898000000216
041r!ie;32;False;1;P = T2?;ST1_high_2;1;Same;high;112;82;112;j;n;0;j;b;2412.9976000001534
041r!ie;33;False;1;P = T2?;ST2_high_1;2;Same;high;82;112;112;j;n;1;j;v;1502.9250999998567
041r!ie;34;False;1;P = T1?;DT1_high_6;1;Different;high;132;96;154;j;n;1;f;b;1266.6260000000875
041r!ie;35;False;1;P = T1?;ST2_low_5;2;Same;low;96;154;154;j;n;1;f;b;884.1612000001078
041r!ie;36;False;1;P = T1?;ST2_high_1;2;Same;high;82;112;112;j;n;0;j;b;1011.5093000001707
041r!ie;37;False;1;P = T1?;ST2_high_5;2;Same;high;96;132;132;j;n;0;j;v;1431.8528000001152
041r!ie;38;False;1;P = T1?;ST1_high_1;1;Same;high;82;112;82;j;n;1;j;v;373.0603000001338
041r!ie;39;False;1;P = T2?;ST1_low_2;1;Same;low;132;82;132;j;n;1;f;v;1749.2827000000943
041r!ie;40;False;1;P = T1?;ST1_high_5;1;Same;high;96;132;96;j;n;1;j;v;1332.3809999999412
041r!ie;41;False;1;P = T2?;ST2_low_1;2;Same;low;82;132;132;j;n;1;j;v;1756.3893000001372
041r!ie;42;False;1;P = T2?;ST1_low_1;1;Same;low;82;132;82;j;n;0;j;b;545.6162999998924
041r!ie;43;False;1;P = T1?;ST1_low_5;1;Same;low;96;154;96;j;n;1;j;v;679.089200000135
041r!ie;44;False;1;P = T1?;ST1_high_6;1;Same;high;132;96;132;j;n;0;f;v;810.7801000001018
041r!ie;45;False;1;P = T2?;ST1_low_2;1;Same;low;132;82;132;j;n;0;j;v;1364.4231000000673
041r!ie;46;False;1;P = T2?;ST1_high_4;1;Same;high;96;70;96;j;n;0;j;v;2120.6383000001097
041r!ie;47;False;1;P = T2?;ST2_high_5;2;Same;high;96;132;132;j;n;1;j;v;1129.3974000000162
041r!ie;48;False;1;P = T1?;ST1_low_5;1;Same;low;96;154;96;j;n;1;j;v;1394.015900000113
041r!ie;49;False;1;P = T1?;STb_3;0;Same;None;82;82;82;j;n;0;f;v;1363.7865000000602
041r!ie;50;False;1;P = T2?;ST1_high_5;1;Same;high;96;132;96;j;n;0;j;v;1397.7820999998585
041r!ie;51;False;1;P = T1?;ST2_high_2;2;Same;high;112;82;82;j;n;0;j;v;1695.5344999996669
041r!ie;52;False;1;P = T2?;ST2_low_6;2;Same;low;154;96;96;j;n;1;j;v;1651.6810000002806
041r!ie;53;False;1;P = T2?;DT1_high_3;1;Different;high;70;96;60;j;n;0;j;v;1903.5948000000644
041r!ie;54;False;1;P = T2?;STb_4;0;Same;None;96;96;96;j;n;1;j;v;1435.7061999999132
041r!ie;55;False;1;P = T2?;ST1_high_6;1;Same;high;132;96;132;j;n;1;f;v;754.883399999926
041r!ie;56;False;1;P = T2?;ST1_high_6;1;Same;high;132;96;132;j;n;1;f;v;1539.7130000001198
041r!ie;57;False;1;P = T2?;ST2_low_5;2;Same;low;96;154;154;j;n;1;j;v;1306.4284000001862
041r!ie;58;False;1;P = T1?;STb_7;0;Same;None;154;154;154;j;n;1;j;v;1196.4885999996113
041r!ie;59;False;1;P = T1?;ST2_high_1;2;Same;high;82;112;112;j;n;1;f;v;1448.630399999729
041r!ie;60;False;1;P = T1?;ST2_high_6;2;Same;high;132;96;96;j;n;0;j;b;1425.8639000004223
041r!ie;61;False;1;P = T2?;DT1_high_4;1;Different;high;96;70;112;j;n;0;j;v;2098.037900000236
041r!ie;62;False;1;P = T2?;ST2_low_4;2;Same;low;112;70;70;j;n;1;j;b;1719.2897999998422
041r!ie;63;False;1;P = T1?;DT2_low_1;2;Different;low;82;132;154;j;n;1;f;b;1080.341899999894
041r!ie;64;False;1;P = T1?;ST2_high_5;2;Same;high;96;132;132;j;n;1;f;v;2478.200199999719
041r!ie;65;False;1;P = T1?;ST1_high_3;1;Same;high;70;96;70;j;n;0;f;b;1579.2819999996937
041r!ie;66;False;1;P = T1?;ST1_high_4;1;Same;high;96;70;96;j;n;0;f;v;1247.4784999999429
041r!ie;67;False;1;P = T2?;ST2_high_1;2;Same;high;82;112;112;j;n;0;f;v;1516.1221000003025
041r!ie;68;False;1;P = T1?;ST2_low_6;2;Same;low;154;96;96;j;n;1;f;b;1118.8720000000103
041r!ie;69;False;1;P = T1?;ST2_low_1;2;Same;low;82;132;132;j;n;1;f;b;520.7402999999431
041r!ie;70;False;1;P = T2?;ST2_low_4;2;Same;low;112;70;70;j;n;0;f;v;1485.2901999997812
041r!ie;71;False;1;P = T2?;ST1_high_2;1;Same;high;112;82;112;j;n;0;j;b;1481.7278000000442
041r!ie;72;False;1;P = T1?;ST2_high_3;2;Same;high;70;96;96;j;n;1;f;b;554.4092000000092
041r!ie;73;False;1;P = T2?;STb_8;0;Same;None;180;180;180;j;n;1;j;b;1311.5903000002618
041r!ie;74;False;1;P = T2?;ST2_low_6;2;Same;low;154;96;96;j;n;1;j;b;1344.3237000001318
041r!ie;75;False;1;P = T2?;ST1_low_3;1;Same;low;70;112;70;j;n;0;j;b;1040.733100000125
041r!ie;76;False;1;P = T2?;ST1_low_5;1;Same;low;96;154;96;j;n;0;j;b;630.0975000003746
041r!ie;77;False;1;P = T1?;STb_1;0;Same;None;60;60;60;j;n;0;f;v;2438.3977000002233
041r!ie;78;False;1;P = T2?;DT2_low_5;2;Different;low;96;154;180;j;n;0;j;b;902.6117999997041
041r!ie;79;False;1;P = T2?;ST2_high_2;2;Same;high;112;82;82;j;n;1;j;v;1387.0504000001347
041r!ie;80;False;1;P = T2?;STb_3;0;Same;None;82;82;82;j;n;1;j;b;751.6924999999901
041r!ie;81;False;1;P = T2?;ST1_high_3;1;Same;high;70;96;70;j;n;0;j;v;759.9492999997892
041r!ie;82;False;1;P = T1?;ST2_low_6;2;Same;low;154;96;96;j;n;0;j;b;861.6044999998849
041r!ie;83;False;1;P = T1?;ST1_low_1;1;Same;low;82;132;82;j;n;0;f;b;373.30800000017916
041r!ie;84;False;1;P = T2?;ST2_high_4;2;Same;high;96;70;70;j;n;1;j;v;1659.6543000000565
041r!ie;85;False;1;P = T2?;ST2_low_6;2;Same;low;154;96;96;j;n;1;j;v;276.68610000000626
041r!ie;86;False;1;P = T2?;ST1_high_3;1;Same;high;70;96;70;j;n;0;j;v;1636.2419000001864
041r!ie;87;False;1;P = T1?;ST2_low_5;2;Same;low;96;154;154;j;n;1;f;b;500.39709999964543
041r!ie;88;False;1;P = T1?;ST1_low_4;1;Same;low;112;70;112;j;n;1;j;v;1772.7561000001515
041r!ie;89;False;1;P = T1?;ST1_high_3;1;Same;high;70;96;70;j;n;0;f;b;418.79240000025675
041r!ie;90;False;1;P = T1?;STb_2;0;Same;None;70;70;70;j;n;0;f;b;359.0761000000384
041r!ie;91;False;1;P = T2?;ST1_low_1;1;Same;low;82;132;82;j;n;0;j;b;661.603500000183
041r!ie;92;False;1;P = T2?;ST2_low_2;2;Same;low;132;82;82;j;n;1;j;b;688.5512999997445
041r!ie;93;False;1;P = T2?;ST2_low_4;2;Same;low;112;70;70;j;n;1;j;b;1762.2781000000032
041r!ie;94;False;1;P = T2?;ST2_low_1;2;Same;low;82;132;132;j;n;1;j;v;1185.726799999884
041r!ie;95;False;1;P = T2?;ST2_low_2;2;Same;low;132;82;82;j;n;1;j;b;1321.426700000302
041r!ie;96;False;1;P = T2?;ST2_low_5;2;Same;low;96;154;154;j;n;1;j;v;1500.8122999997795
041r!ie;97;False;1;P = T1?;ST1_low_2;1;Same;low;132;82;132;j;n;0;f;b;704.3036000000029
041r!ie;98;False;1;P = T2?;ST2_high_6;2;Same;high;132;96;96;j;n;1;j;v;1363.9247999999498
041r!ie;99;False;1;P = T1?;ST1_high_1;1;Same;high;82;112;82;j;n;1;j;v;1111.2514000001283
041r!ie;100;False;1;P = T2?;STb_6;0;Same;None;132;132;132;j;n;1;j;v;1877.3894999999357
041r!ie;101;False;1;P = T2?;ST1_low_4;1;Same;low;112;70;112;j;n;1;f;v;295.1094000000012
041r!ie;102;False;1;P = T2?;ST1_high_6;1;Same;high;132;96;132;j;n;0;j;v;1568.286000000171
041r!ie;103;False;1;P = T1?;ST2_high_3;2;Same;high;70;96;96;j;n;0;j;v;393.30919999974867
041r!ie;104;False;1;P = T1?;ST2_high_2;2;Same;high;112;82;82;j;n;0;j;b;424.98729999988427
041r!ie;105;False;1;P = T1?;DT2_high_1;2;Different;high;82;112;132;j;n;1;f;b;424.9638999999661
041r!ie;106;False;1;P = T1?;ST1_high_4;1;Same;high;96;70;96;j;n;1;j;v;1844.264899999871
041r!ie;107;False;1;P = T2?;ST1_low_3;1;Same;low;70;112;70;j;n;1;f;v;475.88569999970787
041r!ie;108;False;1;P = T2?;STb_2;0;Same;None;70;70;70;j;n;0;f;v;1928.2304999996995
041r!ie;109;False;1;P = T1?;ST2_low_2;2;Same;low;132;82;82;j;n;0;j;b;1659.6739000001435
041r!ie;110;False;1;P = T2?;ST2_high_3;2;Same;high;70;96;96;j;n;0;f;v;963.4187999999995
041r!ie;111;False;1;P = T2?;ST1_low_6;1;Same;low;154;96;154;j;n;0;j;b;236.94639999985156
041r!ie;112;False;1;P = T2?;ST2_high_5;2;Same;high;96;132;132;j;n;1;j;b;1399.8905999997078
041r!ie;113;False;1;P = T2?;ST1_low_3;1;Same;low;70;112;70;j;n;1;f;v;1459.7847000000002
041r!ie;114;False;1;P = T2?;DT1_low_4;1;Different;low;112;70;132;j;n;1;f;b;582.0503999998436
041r!ie;115;False;1;P = T1?;ST2_low_1;2;Same;low;82;132;132;j;n;0;j;b;1300.6566000003659
041r!ie;116;False;1;P = T1?;ST2_low_3;2;Same;low;70;112;112;j;n;1;f;v;1323.9769000001615
041r!ie;117;False;1;P = T1?;ST1_low_3;1;Same;low;70;112;70;j;n;0;f;v;250.5486000000019
041r!ie;118;False;1;P = T1?;ST2_low_1;2;Same;low;82;132;132;j;n;1;f;v;1392.337100000077
041r!ie;119;False;1;P = T2?;DT2_low_6;2;Different;low;154;96;82;j;n;0;j;b;923.4575999998924
041r!ie;120;False;1;P = T1?;ST1_low_1;1;Same;low;82;132;82;j;n;1;j;b;1725.8982999996988
041r!ie;121;False;1;P = T2?;ST2_high_5;2;Same;high;96;132;132;j;n;1;j;v;951.3402000002316
041r!ie;122;False;1;P = T1?;ST1_high_2;1;Same;high;112;82;112;j;n;1;j;b;895.9327999996276
041r!ie;123;False;1;P = T2?;ST2_high_6;2;Same;high;132;96;96;j;n;1;j;b;974.0415999999641
041r!ie;124;False;1;P = T2?;ST1_low_4;1;Same;low;112;70;112;j;n;1;f;v;987.8232999999454
041r!ie;125;False;1;P = T1?;DT2_high_6;2;Different;high;132;96;82;j;n;1;f;v;2318.9773000003697
041r!ie;126;False;1;P = T1?;ST2_high_3;2;Same;high;70;96;96;j;n;1;f;v;924.4068000002699
041r!ie;127;False;1;P = T1?;DT2_low_4;2;Different;low;112;70;60;j;n;1;f;b;904.2472000000998
041r!ie;128;False;1;P = T1?;ST1_high_1;1;Same;high;82;112;82;j;n;1;j;b;1072.030999999697
041r!ie;129;False;1;P = T2?;ST2_high_2;2;Same;high;112;82;82;j;n;1;j;b;921.1602999998831
041r!ie;130;False;1;P = T1?;ST2_high_6;2;Same;high;132;96;96;j;n;1;f;b;1030.2545999998074
041r!ie;131;False;1;P = T1?;ST1_low_6;1;Same;low;154;96;154;j;n;0;f;b;748.8983000002918
041r!ie;132;False;1;P = T1?;STb_4;0;Same;None;96;96;96;j;n;1;j;v;1268.6933999998473
041r!ie;133;False;1;P = T1?;ST1_low_3;1;Same;low;70;112;70;j;n;1;j;b;872.1179000003758
041r!ie;134;False;1;P = T1?;ST2_high_6;2;Same;high;132;96;96;j;n;1;f;v;742.2034999999596
041r!ie;135;False;1;P = T1?;STb_6;0;Same;None;132;132;132;j;n;1;j;v;324.812600000314
041r!ie;136;False;1;P = T1?;STb_5;0;Same;None;112;112;112;j;n;1;j;v;597.5634999999784
041r!ie;137;False;1;P = T1?;ST1_low_5;1;Same;low;96;154;96;j;n;0;f;v;341.54560000024503
041r!ie;138;False;1;P = T1?;ST2_low_5;2;Same;low;96;154;154;j;n;0;j;b;311.2218000001121
041r!ie;139;False;1;P = T1?;ST1_low_4;1;Same;low;112;70;112;j;n;1;j;b;1211.068300000079
041r!ie;140;False;1;P = T2?;ST2_high_2;2;Same;high;112;82;82;j;n;1;j;b;1461.3973999998962
041r!ie;141;False;1;P = T1?;ST2_low_4;2;Same;low;112;70;70;j;n;1;f;n;1462.2222999996666
041r!ie;142;False;1;P = T1?;ST2_high_4;2;Same;high;96;70;70;j;n;0;j;v;384.77100000000064
041r!ie;143;False;1;P = T2?;STb_7;0;Same;None;154;154;154;j;n;1;j;v;1068.5186000000613
041r!ie;144;False;1;P = T2?;ST1_high_3;1;Same;high;70;96;70;j;n;0;j;v;377.9718999999204
041r!ie;145;False;1;P = T2?;ST1_high_2;1;Same;high;112;82;112;j;n;0;j;b;477.4154000001545
041r!ie;146;False;1;P = T2?;ST1_high_1;1;Same;high;82;112;82;j;n;0;j;v;781.0542000001988
041r!ie;147;False;1;P = T2?;ST2_low_3;2;Same;low;70;112;112;j;n;1;j;b;1057.1145999997498
041r!ie;148;False;1;P = T2?;STb_5;0;Same;None;112;112;112;j;n;1;j;v;263.8216000000284
041r!ie;149;False;1;P = T1?;ST2_low_4;2;Same;low;112;70;70;j;n;1;f;b;989.3819000003532
041r!ie;150;False;1;P = T1?;ST2_high_4;2;Same;high;96;70;70;j;n;1;f;b;1652.3035000000164
041r!ie;151;False;1;P = T2?;ST2_low_3;2;Same;low;70;112;112;j;n;1;j;v;764.8560999996334
041r!ie;152;False;1;P = T1?;ST1_low_2;1;Same;low;132;82;132;j;n;1;j;v;1102.558599999611
041r!ie;153;False;1;P = T1?;ST1_high_4;1;Same;high;96;70;96;j;n;1;j;v;780.2563000000191
041r!ie;154;False;1;P = T2?;ST1_high_5;1;Same;high;96;132;96;j;n;1;f;v;1813.5898999998972
041r!ie;155;False;1;P = T2?;ST2_high_4;2;Same;high;96;70;70;j;n;1;j;v;1126.2656000003517
041r!ie;156;False;1;P = T1?;ST1_high_5;1;Same;high;96;132;96;j;n;0;f;v;1181.823599999916
041r!ie;157;False;1;P = T1?;ST2_low_4;2;Same;low;112;70;70;j;n;1;f;v;853.9847000001828
041r!ie;158;False;1;P = T1?;ST1_low_1;1;Same;low;82;132;82;j;n;1;j;b;868.9924000000246
041r!ie;159;False;1;P = T2?;ST2_low_3;2;Same;low;70;112;112;j;n;0;f;v;810.3916000000027
041r!ie;160;False;1;P = T2?;ST2_high_1;2;Same;high;82;112;112;j;n;1;j;b;783.297599999969
041r!ie;161;False;1;P = T2?;ST1_high_4;1;Same;high;96;70;96;j;n;0;j;v;1309.1159000000516
041r!ie;162;False;1;P = T1?;ST2_low_3;2;Same;low;70;112;112;j;n;0;j;v;826.007799999843
041r!ie;163;False;1;P = T2?;ST1_high_5;1;Same;high;96;132;96;j;n;0;j;v;302.8215000003911
041r!ie;164;False;1;P = T1?;ST2_low_3;2;Same;low;70;112;112;j;n;1;f;v;719.0282999999908
041r!ie;165;False;1;P = T1?;ST1_low_6;1;Same;low;154;96;154;j;n;1;j;b;1132.9977999998846
041r!ie;166;False;1;P = T1?;ST1_high_3;1;Same;high;70;96;70;j;n;1;j;b;974.9519000001783
041r!ie;167;False;1;P = T1?;ST2_high_4;2;Same;high;96;70;70;j;n;1;f;v;800.7785999998305
041r!ie;168;False;1;P = T1?;ST1_high_6;1;Same;high;132;96;132;j;n;0;f;v;848.779999999806
041r!ie;169;False;1;P = T2?;STb_1;0;Same;None;60;60;60;j;n;1;j;v;244.060300000001
041r!ie;170;False;1;P = T1?;ST2_low_2;2;Same;low;132;82;82;j;n;1;f;v;862.3846000000412
041r!ie;171;False;1;P = T2?;ST1_low_5;1;Same;low;96;154;96;j;n;0;j;b;924.175500000274
041r!ie;172;False;1;P = T2?;ST2_high_3;2;Same;high;70;96;96;j;n;1;j;b;886.3876999998865
041r!ie;173;False;1;P = T1?;ST2_low_2;2;Same;low;132;82;82;j;n;0;j;b;862.4855000002754
041r!ie;174;False;1;P = T2?;ST2_low_1;2;Same;low;82;132;132;j;n;1;j;b;2226.304699999673
041r!ie;175;False;1;P = T1?;ST1_low_2;1;Same;low;132;82;132;j;n;1;j;v;1060.9962999997151
041r!ie;176;False;1;P = T1?;ST1_low_6;1;Same;low;154;96;154;j;n;1;j;b;326.48690000041825
041r!ie;1;True;2;P != T2?;DT1_low_1;1;Different;low;82;132;70;j;n;1;j;v;7211.5805999997065
041r!ie;2;True;2;P != T2?;ST2_low_2;2;Same;low;132;82;82;j;n;0;j;v;1705.8130000000347
041r!ie;3;True;2;P != T2?;ST1_high_3;1;Same;high;70;96;70;j;n;1;j;v;2771.520199999941
041r!ie;4;True;2;P != T1?;ST1_low_6;1;Same;low;154;96;154;j;n;0;j;v;1855.0689999997303
041r!ie;5;True;2;P != T1?;ST2_high_1;2;Same;high;82;112;112;j;n;0;f;v;1248.4579000001759
041r!ie;6;True;2;P != T2?;ST1_high_5;1;Same;high;96;132;96;j;n;1;j;v;1378.053099999761
041r!ie;7;True;2;P != T2?;STb_8;0;Same;None;180;180;180;j;n;0;j;v;1870.4732000001059
041r!ie;8;True;2;P != T2?;DT1_low_4;1;Different;low;112;70;132;j;n;1;j;v;2056.937899999866
041r!ie;9;True;2;P != T1?;ST1_low_6;1;Same;low;154;96;154;j;n;1;f;v;1962.0698000003358
041r!ie;10;True;2;P != T1?;ST2_high_4;2;Same;high;96;70;70;j;n;0;f;v;1189.7895000001881
041r!ie;11;True;2;P != T2?;ST2_high_2;2;Same;high;112;82;82;j;n;1;f;v;1568.5911999999007
041r!ie;12;True;2;P != T1?;DT1_high_2;1;Different;high;112;82;132;j;n;1;j;v;1065.7368000001952
041r!ie;13;True;2;P != T1?;STb_6;0;Same;None;132;132;132;j;n;0;j;v;959.0017999998963
041r!ie;14;True;2;P != T1?;STb_8;0;Same;None;180;180;180;j;n;1;f;v;1084.9034999996547
041r!ie;15;True;2;P != T1?;DT2_low_6;2;Different;low;154;96;82;j;n;1;j;v;1571.3826999999583
041r!ie;16;True;2;P != T2?;STb_5;0;Same;None;112;112;112;j;n;0;j;v;839.2680000001747
041r!ie;1;False;2;P != T1?;ST2_low_4;2;Same;low;112;70;70;j;n;1;j;v;4236.003099999834
041r!ie;2;False;2;P != T1?;ST2_low_3;2;Same;low;70;112;112;j;n;0;f;v;707.5027000000773
041r!ie;3;False;2;P != T2?;DT1_low_1;1;Different;low;82;132;70;j;n;1;j;b;308.4884999998394
041r!ie;4;False;2;P != T1?;ST1_high_5;1;Same;high;96;132;96;j;n;0;j;v;1014.6310999998605
041r!ie;5;False;2;P != T1?;ST1_low_4;1;Same;low;112;70;112;j;n;0;j;v;631.1431999997694
041r!ie;6;False;2;P != T1?;STb_7;0;Same;None;154;154;154;j;n;0;j;v;2561.6894999998294
041r!ie;7;False;2;P != T1?;ST2_high_3;2;Same;high;70;96;96;j;n;1;j;v;2110.6403999997383
041r!ie;8;False;2;P != T2?;ST2_low_1;2;Same;low;82;132;132;j;n;0;j;v;1204.6453000002657
041r!ie;9;False;2;P != T1?;ST2_low_3;2;Same;low;70;112;112;j;n;0;f;v;1321.846700000151
041r!ie;10;False;2;P != T2?;ST1_high_4;1;Same;high;96;70;96;j;n;0;f;b;848.7626000001001
041r!ie;11;False;2;P != T2?;STb_6;0;Same;None;132;132;132;j;n;0;j;b;1478.9406999998391
041r!ie;12;False;2;P != T1?;ST2_high_5;2;Same;high;96;132;132;j;n;0;f;v;2598.8305999999284
041r!ie;13;False;2;P != T1?;DT1_high_3;1;Different;high;70;96;60;j;n;0;f;v;971.7608000000837
041r!ie;14;False;2;P != T2?;ST2_low_4;2;Same;low;112;70;70;j;n;0;j;b;593.1193999999778
041r!ie;15;False;2;P != T2?;ST1_high_5;1;Same;high;96;132;96;j;n;1;j;v;2143.7080000000606
041r!ie;16;False;2;P != T1?;ST1_low_3;1;Same;low;70;112;70;j;n;0;j;v;1476.9467999999506
041r!ie;17;False;2;P != T2?;ST2_high_1;2;Same;high;82;112;112;j;n;0;j;v;1207.1774999999434
041r!ie;18;False;2;P != T2?;ST2_high_1;2;Same;high;82;112;112;j;n;1;f;v;1033.932199999981
041r!ie;19;False;2;P != T1?;ST1_low_3;1;Same;low;70;112;70;j;n;0;j;v;1318.4763999997813
041r!ie;20;False;2;P != T1?;ST2_high_4;2;Same;high;96;70;70;j;n;0;f;v;2490.266000000247
041r!ie;21;False;2;P != T2?;ST1_high_4;1;Same;high;96;70;96;j;n;1;j;v;1303.3947999997508
041r!ie;22;False;2;P != T2?;ST1_high_2;1;Same;high;112;82;112;j;n;1;j;v;867.6461999998537
041r!ie;23;False;2;P != T2?;ST1_low_1;1;Same;low;82;132;82;j;n;1;j;v;445.31910000023345
041r!ie;24;False;2;P != T1?;ST1_high_2;1;Same;high;112;82;112;j;n;0;j;v;1566.3072000002103
041r!ie;25;False;2;P != T2?;DT2_low_4;2;Different;low;112;70;60;j;n;1;j;v;531.9056000003002
041r!ie;26;False;2;P != T2?;ST2_high_3;2;Same;high;70;96;96;j;n;0;j;v;1137.6986000000215
041r!ie;27;False;2;P != T2?;STb_4;0;Same;None;96;96;96;j;n;1;f;v;1839.9256000002424
041r!ie;28;False;2;P != T1?;ST1_low_6;1;Same;low;154;96;154;j;n;0;j;v;1283.4490000000187
041r!ie;29;False;2;P != T1?;ST1_low_5;1;Same;low;96;154;96;j;n;0;j;b;771.6451999999663
041r!ie;30;False;2;P != T2?;ST1_high_3;1;Same;high;70;96;70;j;n;0;f;b;858.0547000001388
041r!ie;31;False;2;P != T1?;ST1_low_2;1;Same;low;132;82;132;j;n;0;j;v;2068.091099999947
041r!ie;32;False;2;P != T2?;ST1_high_1;1;Same;high;82;112;82;j;n;0;f;b;932.6084999997875
041r!ie;33;False;2;P != T2?;DT2_high_1;2;Different;high;82;112;132;j;n;1;j;v;689.0479999997297
041r!ie;34;False;2;P != T1?;STb_6;0;Same;None;132;132;132;j;n;1;f;b;823.7417000000278
041r!ie;35;False;2;P != T1?;ST2_low_5;2;Same;low;96;154;154;j;n;1;j;v;1346.7095000000882
041r!ie;36;False;2;P != T2?;ST2_high_6;2;Same;high;132;96;96;j;n;0;j;v;239.8804999997992
041r!ie;37;False;2;P != T2?;STb_7;0;Same;None;154;154;154;j;n;0;j;v;598.0381999997917
041r!ie;38;False;2;P != T1?;ST2_low_6;2;Same;low;154;96;96;j;n;1;j;v;813.454499999807
041r!ie;39;False;2;P != T2?;STb_3;0;Same;None;82;82;82;j;n;0;j;b;2325.836800000161
041r!ie;40;False;2;P != T1?;ST2_low_1;2;Same;low;82;132;132;j;n;1;j;b;570.6819000001815
041r!ie;41;False;2;P != T1?;ST1_low_5;1;Same;low;96;154;96;j;n;0;j;v;372.49949999977616
041r!ie;42;False;2;P != T2?;ST2_high_4;2;Same;high;96;70;70;j;n;0;j;b;1320.9437000000435
041r!ie;43;False;2;P != T1?;ST2_low_4;2;Same;low;112;70;70;j;n;0;f;b;1045.9955000001173
041r!ie;44;False;2;P != T2?;ST1_low_2;1;Same;low;132;82;132;j;n;0;f;v;867.1816999999464
041r!ie;45;False;2;P != T1?;ST1_low_2;1;Same;low;132;82;132;j;n;0;j;v;2420.6066000001556
041r!ie;46;False;2;P != T2?;ST2_high_2;2;Same;high;112;82;82;j;n;0;j;v;963.2430000001477
041r!ie;47;False;2;P != T1?;ST1_high_3;1;Same;high;70;96;70;j;n;0;j;b;1073.7103999999817
041r!ie;48;False;2;P != T1?;ST1_high_5;1;Same;high;96;132;96;j;n;0;j;v;1183.1648999996105
041r!ie;49;False;2;P != T1?;ST1_low_3;1;Same;low;70;112;70;j;n;0;j;v;876.2320999999247
041r!ie;50;False;2;P != T2?;ST1_high_6;1;Same;high;132;96;132;j;n;1;j;v;1262.44190000034
041r!ie;51;False;2;P != T2?;ST2_high_4;2;Same;high;96;70;70;j;n;0;j;v;2311.686500000178
041r!ie;52;False;2;P != T1?;DT1_low_2;1;Different;low;132;82;154;j;n;1;j;v;396.6553999998723
041r!ie;53;False;2;P != T2?;ST2_high_1;2;Same;high;82;112;112;j;n;0;j;v;1002.8039000003446
041r!ie;54;False;2;P != T2?;ST1_low_1;1;Same;low;82;132;82;j;n;1;j;v;2880.3702999998677
041r!ie;55;False;2;P != T2?;ST1_low_3;1;Same;low;70;112;70;j;n;0;f;b;883.8058999999703
041r!ie;56;False;2;P != T1?;ST2_high_2;2;Same;high;112;82;82;j;n;0;f;v;793.9371000002211
041r!ie;57;False;2;P != T1?;ST1_high_3;1;Same;high;70;96;70;j;n;0;j;v;1389.0971999999238
041r!ie;58;False;2;P != T2?;ST1_low_4;1;Same;low;112;70;112;j;n;0;f;b;1191.1703000005218
041r!ie;59;False;2;P != T1?;ST2_high_4;2;Same;high;96;70;70;j;n;1;j;v;318.8508000002912
041r!ie;60;False;2;P != T1?;DT2_high_1;2;Different;high;82;112;132;j;n;1;j;v;305.3273999994417
041r!ie;61;False;2;P != T1?;ST1_low_6;1;Same;low;154;96;154;j;n;0;j;b;993.4087000001455
041r!ie;62;False;2;P != T1?;ST2_low_6;2;Same;low;154;96;96;j;n;0;f;v;720.3913000003013
041r!ie;63;False;2;P != T2?;ST1_low_2;1;Same;low;132;82;132;j;n;1;j;v;973.6872999992556
041r!ie;64;False;2;P != T1?;ST1_high_5;1;Same;high;96;132;96;j;n;1;f;v;1211.2591999994038
041r!ie;65;False;2;P != T2?;ST1_low_6;1;Same;low;154;96;154;j;n;1;j;v;411.7160000005242
041r!ie;66;False;2;P != T2?;ST1_low_4;1;Same;low;112;70;112;j;n;1;j;v;206.20669999971142
041r!ie;67;False;2;P != T2?;ST2_low_3;2;Same;low;70;112;112;j;n;0;j;v;1111.3507999998546
041r!ie;68;False;2;P != T1?;ST2_low_2;2;Same;low;132;82;82;j;n;1;j;v;1237.960700000258
041r!ie;69;False;2;P != T2?;ST2_low_5;2;Same;low;96;154;154;j;n;0;j;v;1710.655400000178
041r!ie;70;False;2;P != T1?;ST1_high_3;1;Same;high;70;96;70;j;n;0;j;b;348.93900000042777
041r!ie;71;False;2;P != T1?;ST1_low_1;1;Same;low;82;132;82;j;n;0;j;v;570.6180000006498
041r!ie;72;False;2;P != T2?;ST2_low_4;2;Same;low;112;70;70;j;n;0;j;v;601.1156000004121
041r!ie;73;False;2;P != T1?;STb_4;0;Same;None;96;96;96;j;n;1;f;v;377.9333000002225
041r!ie;74;False;2;P != T2?;ST2_low_2;2;Same;low;132;82;82;j;n;0;j;v;400.7870000004914
041r!ie;75;False;2;P != T2?;ST1_high_3;1;Same;high;70;96;70;j;n;1;j;v;401.15090000017517
041r!ie;76;False;2;P != T2?;ST2_low_5;2;Same;low;96;154;154;j;n;0;j;v;383.5129999997662
041r!ie;77;False;2;P != T2?;ST1_high_6;1;Same;high;132;96;132;j;n;0;f;v;2136.60820000041
041r!ie;78;False;2;P != T2?;ST1_high_5;1;Same;high;96;132;96;j;n;1;j;v;550.2176999998483
041r!ie;79;False;2;P != T2?;ST1_high_5;1;Same;high;96;132;96;j;n;0;f;v;326.2172999993709
041r!ie;80;False;2;P != T1?;ST2_high_5;2;Same;high;96;132;132;j;n;1;j;v;1282.7170000000478
041r!ie;81;False;2;P != T2?;ST2_high_4;2;Same;high;96;70;70;j;n;0;j;b;463.994100000491
041r!ie;82;False;2;P != T2?;ST1_low_6;1;Same;low;154;96;154;j;n;1;j;v;855.4061000004367
041r!ie;83;False;2;P != T2?;ST1_low_4;1;Same;low;112;70;112;j;n;0;f;v;962.5568000001294
041r!ie;84;False;2;P != T1?;ST1_high_6;1;Same;high;132;96;132;j;n;0;j;v;542.2785000000658
041r!ie;85;False;2;P != T1?;STb_1;0;Same;None;60;60;60;j;n;0;j;v;322.48120000076597
041r!ie;86;False;2;P != T2?;ST1_high_6;1;Same;high;132;96;132;j;n;1;j;v;609.4050000001516
041r!ie;87;False;2;P != T1?;ST1_high_6;1;Same;high;132;96;132;j;n;1;f;v;1978.8364999994883
041r!ie;88;False;2;P != T2?;ST1_high_1;1;Same;high;82;112;82;j;n;1;j;v;309.1334000000643
041r!ie;89;False;2;P != T2?;ST1_high_3;1;Same;high;70;96;70;j;n;1;j;v;311.98959999983344
041r!ie;90;False;2;P != T2?;ST1_low_3;1;Same;low;70;112;70;j;n;0;f;b;900.0236000001678
041r!ie;91;False;2;P != T1?;ST1_low_4;1;Same;low;112;70;112;j;n;0;j;b;1118.3559000000969
041r!ie;92;False;2;P != T2?;DT1_low_5;1;Different;low;96;154;82;j;n;0;f;b;735.9933000007004
041r!ie;93;False;2;P != T2?;ST2_low_6;2;Same;low;154;96;96;j;n;1;f;b;702.5821999995969
041r!ie;94;False;2;P != T1?;ST1_low_5;1;Same;low;96;154;96;j;n;0;j;b;603.7674999997762
041r!ie;95;False;2;P != T2?;STb_2;0;Same;None;70;70;70;j;n;0;j;v;647.6044999999431
041r!ie;96;False;2;P != T2?;ST2_high_5;2;Same;high;96;132;132;j;n;0;j;b;1180.3718000001027
041r!ie;97;False;2;P != T2?;STb_5;0;Same;None;112;112;112;j;n;1;f;v;622.3151999993206
041r!ie;98;False;2;P != T1?;ST1_high_6;1;Same;high;132;96;132;j;n;0;j;v;237.7050999994026
041r!ie;99;False;2;P != T1?;ST2_low_4;2;Same;low;112;70;70;j;n;1;j;b;486.3172000004852
041r!ie;100;False;2;P != T2?;ST2_low_2;2;Same;low;132;82;82;j;n;0;j;v;471.1189999998169
041r!ie;101;False;2;P != T1?;ST1_high_1;1;Same;high;82;112;82;j;n;0;j;v;277.7622000003248
041r!ie;102;False;2;P != T2?;ST1_high_2;1;Same;high;112;82;112;j;n;1;j;v;1019.2163000001528
041r!ie;103;False;2;P != T1?;ST2_low_2;2;Same;low;132;82;82;j;n;0;f;v;628.5860999996657
041r!ie;104;False;2;P != T1?;ST2_low_5;2;Same;low;96;154;154;j;n;0;f;v;673.7301000002844
041r!ie;105;False;2;P != T1?;DT2_high_6;2;Different;high;132;96;82;j;n;1;j;v;374.5850999994218
041r!ie;106;False;2;P != T1?;ST1_low_4;1;Same;low;112;70;112;j;n;0;j;v;1226.787300000069
041r!ie;107;False;2;P != T2?;DT1_low_3;1;Different;low;70;112;60;j;n;1;j;b;358.18839999956253
041r!ie;108;False;2;P != T2?;DT2_high_5;2;Different;high;96;132;154;j;n;1;j;v;674.4539999999688
041r!ie;109;False;2;P != T2?;ST2_high_6;2;Same;high;132;96;96;j;n;0;j;v;289.58369999963907
041r!ie;110;False;2;P != T1?;STb_8;0;Same;None;180;180;180;j;n;0;j;v;1365.308499999628
041r!ie;111;False;2;P != T2?;ST1_high_2;1;Same;high;112;82;112;j;n;0;f;v;574.1816999998264
041r!ie;112;False;2;P != T2?;ST1_low_2;1;Same;low;132;82;132;j;n;1;j;v;1018.7634000003527
041r!ie;113;False;2;P != T1?;ST2_high_5;2;Same;high;96;132;132;j;n;0;f;v;1616.11559999983
041r!ie;114;False;2;P != T1?;ST1_low_1;1;Same;low;82;132;82;j;n;1;f;v;646.4609000004202
041r!ie;115;False;2;P != T2?;ST2_high_6;2;Same;high;132;96;96;j;n;0;j;v;411.4478000001327
041r!ie;116;False;2;P != T1?;ST2_high_1;2;Same;high;82;112;112;j;n;1;j;v;605.5237000000488
041r!ie;117;False;2;P != T1?;ST2_high_3;2;Same;high;70;96;96;j;n;0;f;v;631.8062999998801
041r!ie;118;False;2;P != T1?;ST2_high_1;2;Same;high;82;112;112;j;n;1;j;v;629.0114000003086
041r!ie;119;False;2;P != T2?;ST2_low_3;2;Same;low;70;112;112;j;n;0;j;v;320.19429999945714
041r!ie;120;False;2;P != T2?;DT1_high_4;1;Different;high;96;70;112;j;n;1;j;b;190.53600000006554
041r!ie;121;False;2;P != T1?;ST1_low_6;1;Same;low;154;96;154;j;n;0;j;b;1042.7083000004131
041r!ie;122;False;2;P != T1?;ST1_high_4;1;Same;high;96;70;96;j;n;1;f;v;456.645600000229
041r!ie;123;False;2;P != T1?;ST1_high_1;1;Same;high;82;112;82;j;n;0;j;v;325.21749999978056
041r!ie;124;False;2;P != T1?;ST1_high_4;1;Same;high;96;70;96;j;n;0;j;v;640.3565999999046
041r!ie;125;False;2;P != T1?;DT2_low_1;2;Different;low;82;132;154;j;n;1;j;v;316.32580000041344
041r!ie;126;False;2;P != T2?;DT2_low_5;2;Different;low;96;154;180;j;n;0;f;v;645.6262000001516
041r!ie;127;False;2;P != T2?;ST1_low_6;1;Same;low;154;96;154;j;n;1;j;v;301.51200000000244
041r!ie;128;False;2;P != T1?;ST2_high_4;2;Same;high;96;70;70;j;n;1;j;v;563.1604999998672
041r!ie;129;False;2;P != T2?;ST1_low_5;1;Same;low;96;154;96;j;n;0;f;v;1565.8782000000429
041r!ie;130;False;2;P != T1?;STb_2;0;Same;None;70;70;70;j;n;0;j;b;544.4411999997101
041r!ie;131;False;2;P != T1?;ST2_high_6;2;Same;high;132;96;96;j;n;0;f;v;651.5955000004396
041r!ie;132;False;2;P != T1?;ST2_low_2;2;Same;low;132;82;82;j;n;1;j;b;785.1793999998335
041r!ie;133;False;2;P != T2?;ST1_high_4;1;Same;high;96;70;96;j;n;0;f;v;784.7960999997667
041r!ie;134;False;2;P != T1?;ST2_low_6;2;Same;low;154;96;96;j;n;0;f;v;954.9274000000878
041r!ie;135;False;2;P != T2?;ST2_high_3;2;Same;high;70;96;96;j;n;0;j;v;962.8043000002435
041r!ie;136;False;2;P != T2?;ST2_low_5;2;Same;low;96;154;154;j;n;1;f;v;840.138599999591
041r!ie;137;False;2;P != T1?;ST1_low_2;1;Same;low;132;82;132;j;n;1;f;v;947.3369999996066
041r!ie;138;False;2;P != T2?;STb_1;0;Same;None;60;60;60;j;n;0;j;b;346.9752000000881
041r!ie;139;False;2;P != T2?;ST2_low_2;2;Same;low;132;82;82;j;n;0;j;v;496.50870000004943
041r!ie;140;False;2;P != T2?;ST2_high_2;2;Same;high;112;82;82;j;n;0;j;v;320.48800000029587
041r!ie;141;False;2;P != T1?;ST2_high_3;2;Same;high;70;96;96;j;n;1;j;v;389.97480000034557
041r!ie;142;False;2;P != T2?;ST2_low_4;2;Same;low;112;70;70;j;n;0;j;v;354.01809999984835
041r!ie;143;False;2;P != T1?;ST2_low_3;2;Same;low;70;112;112;j;n;0;f;b;303.151600000092
041r!ie;144;False;2;P != T1?;ST1_high_2;1;Same;high;112;82;112;j;n;0;j;v;414.6156999995583
041r!ie;145;False;2;P != T1?;ST2_low_5;2;Same;low;96;154;154;j;n;0;f;v;9455.113799999708
041r!ie;146;False;2;P != T1?;ST1_low_1;1;Same;low;82;132;82;j;n;1;f;v;634.7515000006752
041r!ie;147;False;2;P != T1?;ST1_high_2;1;Same;high;112;82;112;j;n;0;j;v;1004.7955999998521
041r!ie;148;False;2;P != T2?;ST2_low_3;2;Same;low;70;112;112;j;n;0;j;v;591.4951999993718
041r!ie;149;False;2;P != T1?;ST2_high_1;2;Same;high;82;112;112;j;n;1;j;v;413.41510000074777
041r!ie;150;False;2;P != T2?;ST1_high_1;1;Same;high;82;112;82;j;n;1;j;b;522.6797000004808
041r!ie;151;False;2;P != T2?;ST2_low_1;2;Same;low;82;132;132;j;n;0;j;v;568.7207999999373
041r!ie;152;False;2;P != T1?;ST2_high_6;2;Same;high;132;96;96;j;n;1;j;v;1689.9494999997842
041r!ie;153;False;2;P != T1?;STb_5;0;Same;None;112;112;112;j;n;0;j;v;1011.8038999999044
041r!ie;154;False;2;P != T2?;ST2_low_6;2;Same;low;154;96;96;j;n;0;j;v;538.1862999993245
041r!ie;155;False;2;P != T1?;DT2_low_5;2;Different;low;96;154;180;j;n;0;f;v;1169.2988000004334
041r!ie;156;False;2;P != T2?;ST2_high_3;2;Same;high;70;96;96;j;n;0;j;v;607.4754999999641
041r!ie;157;False;2;P != T2?;ST2_high_5;2;Same;high;96;132;132;j;n;0;j;v;761.0156000000643
041r!ie;158;False;2;P != T2?;ST2_low_1;2;Same;low;82;132;132;j;n;0;j;v;620.7615999992413
041r!ie;159;False;2;P != T1?;ST2_low_1;2;Same;low;82;132;132;j;n;1;j;v;750.7974000000104
041r!ie;160;False;2;P != T1?;STb_3;0;Same;None;82;82;82;j;n;0;j;v;817.1378999995795
041r!ie;161;False;2;P != T2?;ST2_high_2;2;Same;high;112;82;82;j;n;0;j;v;846.2865999999849
041r!ie;162;False;2;P != T1?;DT1_low_5;1;Different;low;96;154;82;j;n;1;j;v;1758.1181000005017
041r!ie;163;False;2;P != T2?;ST2_high_5;2;Same;high;96;132;132;j;n;0;j;b;1282.6589000005697
041r!ie;164;False;2;P != T1?;ST1_high_4;1;Same;high;96;70;96;j;n;1;f;b;1104.6150000001944
041r!ie;165;False;2;P != T1?;ST1_high_1;1;Same;high;82;112;82;j;n;0;j;v;713.8925999997809
041r!ie;166;False;2;P != T2?;ST1_low_5;1;Same;low;96;154;96;j;n;1;j;v;725.7619000001796
041r!ie;167;False;2;P != T2?;ST1_low_5;1;Same;low;96;154;96;j;n;0;f;b;846.9625999996424
041r!ie;168;False;2;P != T2?;ST1_low_1;1;Same;low;82;132;82;j;n;1;j;v;1019.2381999995632
041r!ie;169;False;2;P != T2?;ST1_low_3;1;Same;low;70;112;70;j;n;1;j;v;505.4149999996298
041r!ie;170;False;2;P != T2?;STb_8;0;Same;None;180;180;180;j;n;0;j;v;1856.1228999997184
041r!ie;171;False;2;P != T2?;ST2_low_6;2;Same;low;154;96;96;j;n;0;j;v;399.7822000001179
041r!ie;172;False;2;P != T1?;DT2_high_4;2;Different;high;96;70;60;j;n;1;j;v;634.9126999994041
041r!ie;173;False;2;P != T1?;ST2_high_2;2;Same;high;112;82;82;j;n;1;j;v;1520.075600000382
041r!ie;174;False;2;P != T1?;ST2_high_6;2;Same;high;132;96;96;j;n;1;j;v;623.9519999999175
041r!ie;175;False;2;P != T1?;ST2_low_1;2;Same;low;82;132;132;j;n;1;j;v;380.03089999983786
041r!ie;176;False;2;P != T1?;ST2_high_2;2;Same;high;112;82;82;j;n;1;j;v;513.42939999995
