p_code;trial_nr;practice;block;question;condition;seqPos;Same_or_Diff;ITS;T1_hz;T2_hz;P_hz;yes_key;sure_key;correct;yes_no;rating;resp_time
g794p#t;1;True;1;P != T2?;STb_5;0;Same;None;112;112;112;j;v;1;f;n;8315.994799999316
g794p#t;2;True;1;P != T1?;DT1_high_6;1;Different;high;132;96;154;j;v;0;f;n;4654.431299999487
g794p#t;3;True;1;P != T2?;ST1_high_1;1;Same;high;82;112;82;j;v;1;j;n;8995.879099999001
g794p#t;4;True;1;P != T2?;STb_7;0;Same;None;154;154;154;j;v;1;f;n;2422.8599999987637
g794p#t;5;True;1;P != T1?;ST2_low_4;2;Same;low;112;70;70;j;v;1;j;b;2022.3160999994434
g794p#t;6;True;1;P != T2?;ST1_high_2;1;Same;high;112;82;112;j;v;1;j;n;2582.5143000001844
g794p#t;7;True;1;P != T1?;DT1_high_1;1;Different;high;82;112;70;j;v;0;f;n;5382.949600001666
g794p#t;8;True;1;P != T2?;DT2_high_3;2;Different;high;70;96;112;j;v;0;f;n;5761.92330000049
g794p#t;9;True;1;P != T1?;ST2_low_2;2;Same;low;132;82;82;j;v;1;j;n;2122.205899999244
g794p#t;10;True;1;P != T1?;ST1_high_5;1;Same;high;96;132;96;j;v;1;f;b;2452.0049000002473
g794p#t;11;True;1;P != T1?;ST1_low_2;1;Same;low;132;82;132;j;v;1;f;n;7859.7341000004235
g794p#t;12;True;1;P != T1?;STb_1;0;Same;None;60;60;60;j;v;1;f;b;9639.764700001251
g794p#t;13;True;1;P != T2?;ST2_high_4;2;Same;high;96;70;70;j;v;0;j;n;6267.322899999272
g794p#t;14;True;1;P != T2?;DT1_low_1;1;Different;low;82;132;70;j;v;1;j;b;1951.8587999991723
g794p#t;15;True;1;P != T1?;STb_5;0;Same;None;112;112;112;j;v;0;j;n;7351.3288000012835
g794p#t;16;True;1;P != T2?;ST2_low_5;2;Same;low;96;154;154;j;v;1;f;b;2154.818400000295
p_code;trial_nr;practice;block;question;condition;seqPos;Same_or_Diff;ITS;T1_hz;T2_hz;P_hz;yes_key;sure_key;correct;yes_no;rating;resp_time
g794p#t;1;False;1;P != T1?;ST1_high_2;1;Same;high;112;82;112;j;v;1;f;n;12605.042900000626
g794p#t;2;False;1;P != T1?;ST2_low_4;2;Same;low;112;70;70;j;v;1;j;n;4791.969600000812
g794p#t;3;False;1;P != T2?;ST1_low_2;1;Same;low;132;82;132;j;v;1;j;b;2459.090800000922
g794p#t;4;False;1;P != T1?;ST1_high_4;1;Same;high;96;70;96;j;v;1;f;n;3199.155800000881
g794p#t;5;False;1;P != T2?;STb_3;0;Same;None;82;82;82;j;v;1;f;n;3867.611699999543
g794p#t;6;False;1;P != T1?;ST1_high_1;1;Same;high;82;112;82;j;v;1;f;b;3944.636799998989
g794p#t;7;False;1;P != T2?;ST2_low_3;2;Same;low;70;112;112;j;v;1;f;n;11807.50799999987
g794p#t;8;False;1;P != T1?;DT1_low_6;1;Different;low;154;96;180;j;v;0;f;b;2575.5427999993117
g794p#t;9;False;1;P != T2?;DT2_high_3;2;Different;high;70;96;112;j;v;0;f;n;3861.1817000000883
g794p#t;10;False;1;P != T1?;ST1_high_3;1;Same;high;70;96;70;j;v;1;f;n;4375.39199999992
g794p#t;11;False;1;P != T2?;ST2_high_3;2;Same;high;70;96;96;j;v;1;f;b;2894.1200000008394
g794p#t;12;False;1;P != T2?;ST2_low_6;2;Same;low;154;96;96;j;v;1;f;b;3433.7435999987065
g794p#t;13;False;1;P != T2?;ST2_high_6;2;Same;high;132;96;96;j;v;0;j;n;5483.851799999684
g794p#t;14;False;1;P != T2?;ST2_low_6;2;Same;low;154;96;96;j;v;1;f;b;4612.6079999994545
g794p#t;15;False;1;P != T1?;ST2_low_6;2;Same;low;154;96;96;j;v;1;j;b;4094.152800000302
g794p#t;16;False;1;P != T2?;ST1_high_3;1;Same;high;70;96;70;j;v;0;f;b;2939.26890000148
g794p#t;17;False;1;P != T1?;ST2_high_3;2;Same;high;70;96;96;j;v;0;f;n;8424.607200000537
g794p#t;18;False;1;P != T2?;DT1_low_6;1;Different;low;154;96;180;j;v;1;j;n;14853.03439999916
g794p#t;19;False;1;P != T2?;STb_8;0;Same;None;180;180;180;j;v;1;f;b;3576.8881999993027
g794p#t;20;False;1;P != T2?;ST1_high_4;1;Same;high;96;70;96;j;v;1;j;n;2567.509299999074
g794p#t;21;False;1;P != T2?;ST1_low_4;1;Same;low;112;70;112;j;v;1;j;b;3642.9987999999867
g794p#t;22;False;1;P != T2?;ST1_low_4;1;Same;low;112;70;112;j;v;1;j;b;2269.847800000207
g794p#t;23;False;1;P != T2?;ST1_high_6;1;Same;high;132;96;132;j;v;1;j;b;2781.8052000002353
g794p#t;24;False;1;P != T1?;ST1_low_5;1;Same;low;96;154;96;j;v;1;f;n;5530.940100001317
g794p#t;25;False;1;P != T1?;ST1_low_6;1;Same;low;154;96;154;j;v;1;f;b;5611.789199998384
g794p#t;26;False;1;P != T1?;DT2_high_3;2;Different;high;70;96;112;j;v;1;j;n;3622.9126999987784
g794p#t;27;False;1;P != T2?;ST1_low_6;1;Same;low;154;96;154;j;v;1;j;b;8513.14850000017
g794p#t;28;False;1;P != T1?;ST1_high_4;1;Same;high;96;70;96;j;v;1;f;n;3092.3273999997036
g794p#t;29;False;1;P != T1?;STb_5;0;Same;None;112;112;112;j;v;1;f;n;7880.903199999011
g794p#t;30;False;1;P != T1?;ST1_low_1;1;Same;low;82;132;82;j;v;1;f;n;2410.1585000007617
g794p#t;31;False;1;P != T1?;ST2_high_6;2;Same;high;132;96;96;j;v;1;j;n;3691.5876000002754
g794p#t;32;False;1;P != T2?;DT1_low_2;1;Different;low;132;82;154;j;v;1;j;b;2320.974500000375
g794p#t;33;False;1;P != T2?;ST1_high_5;1;Same;high;96;132;96;j;v;1;j;n;4906.064599999809
g794p#t;34;False;1;P != T1?;ST2_low_3;2;Same;low;70;112;112;j;v;0;f;n;3716.963600001691
g794p#t;35;False;1;P != T2?;ST2_high_2;2;Same;high;112;82;82;j;v;1;f;n;4555.032199999914
g794p#t;36;False;1;P != T2?;ST1_low_6;1;Same;low;154;96;154;j;v;1;j;b;1793.9717000008386
g794p#t;37;False;1;P != T1?;ST2_low_1;2;Same;low;82;132;132;j;v;0;f;n;8987.072400001125
g794p#t;38;False;1;P != T1?;ST2_low_5;2;Same;low;96;154;154;j;v;1;j;b;1857.225699999617
g794p#t;39;False;1;P != T2?;ST2_low_2;2;Same;low;132;82;82;j;v;1;f;b;2756.446400000641
g794p#t;40;False;1;P != T1?;ST2_low_2;2;Same;low;132;82;82;j;v;1;j;b;3434.563700000581
g794p#t;41;False;1;P != T1?;ST2_high_3;2;Same;high;70;96;96;j;v;0;f;b;2791.3060000009864
g794p#t;42;False;1;P != T1?;STb_3;0;Same;None;82;82;82;j;v;1;f;b;1010.0018000011914
g794p#t;43;False;1;P != T2?;ST2_low_6;2;Same;low;154;96;96;j;v;1;f;b;3650.9399999995367
g794p#t;44;False;1;P != T2?;ST1_high_3;1;Same;high;70;96;70;j;v;0;f;n;8436.057799999617
g794p#t;45;False;1;P != T2?;ST2_high_1;2;Same;high;82;112;112;j;v;1;f;b;1086.9070000007923
g794p#t;46;False;1;P != T2?;ST2_low_2;2;Same;low;132;82;82;j;v;1;f;b;2602.2931999996217
g794p#t;47;False;1;P != T2?;ST1_high_1;1;Same;high;82;112;82;j;v;0;f;b;1890.2604000013525
g794p#t;48;False;1;P != T1?;ST2_high_3;2;Same;high;70;96;96;j;v;0;f;b;945.6614999999147
g794p#t;49;False;1;P != T1?;DT1_high_4;1;Different;high;96;70;112;j;v;0;f;n;3668.4705999996368
g794p#t;50;False;1;P != T1?;ST2_high_5;2;Same;high;96;132;132;j;v;0;f;n;2501.107400001274
g794p#t;51;False;1;P != T2?;ST1_high_3;1;Same;high;70;96;70;j;v;0;f;n;3352.8647999992245
g794p#t;52;False;1;P != T2?;ST1_high_2;1;Same;high;112;82;112;j;v;1;j;n;1695.6864000003407
g794p#t;53;False;1;P != T2?;STb_6;0;Same;None;132;132;132;j;v;1;f;n;3022.9986000013014
g794p#t;54;False;1;P != T1?;ST2_high_5;2;Same;high;96;132;132;j;v;0;f;n;4526.412900000651
g794p#t;55;False;1;P != T1?;ST2_high_6;2;Same;high;132;96;96;j;v;1;j;b;3648.395399999572
g794p#t;56;False;1;P != T1?;ST1_high_6;1;Same;high;132;96;132;j;v;1;f;n;4220.2058999992005
g794p#t;57;False;1;P != T1?;ST2_low_4;2;Same;low;112;70;70;j;v;1;j;n;4296.117500000037
g794p#t;58;False;1;P != T2?;ST1_high_6;1;Same;high;132;96;132;j;v;0;f;n;2183.807600000364
g794p#t;59;False;1;P != T1?;ST2_low_3;2;Same;low;70;112;112;j;v;0;f;n;9706.36530000047
g794p#t;60;False;1;P != T2?;DT2_low_4;2;Different;low;112;70;60;j;v;0;f;b;2160.7329999987996
g794p#t;61;False;1;P != T2?;ST2_high_5;2;Same;high;96;132;132;j;v;1;f;b;2342.002399998819
g794p#t;62;False;1;P != T1?;ST2_high_2;2;Same;high;112;82;82;j;v;1;j;n;2129.7389999999723
g794p#t;63;False;1;P != T1?;ST1_low_6;1;Same;low;154;96;154;j;v;1;f;n;2984.688200000164
g794p#t;64;False;1;P != T2?;ST2_low_4;2;Same;low;112;70;70;j;v;1;f;b;2737.969100000555
g794p#t;65;False;1;P != T2?;ST1_high_2;1;Same;high;112;82;112;j;v;0;f;b;2320.6586000014795
g794p#t;66;False;1;P != T2?;ST1_low_3;1;Same;low;70;112;70;j;v;1;j;b;2848.7660999999207
g794p#t;67;False;1;P != T2?;ST2_low_5;2;Same;low;96;154;154;j;v;1;f;n;5555.227900000318
g794p#t;68;False;1;P != T1?;ST1_low_6;1;Same;low;154;96;154;j;v;1;f;b;1815.4947999992146
g794p#t;69;False;1;P != T1?;STb_7;0;Same;None;154;154;154;j;v;1;f;n;4299.162699999215
g794p#t;70;False;1;P != T1?;ST2_high_6;2;Same;high;132;96;96;j;v;1;j;n;2885.0031000001763
g794p#t;71;False;1;P != T2?;ST2_high_4;2;Same;high;96;70;70;j;v;1;f;b;1082.2661999991396
g794p#t;72;False;1;P != T1?;DT1_low_2;1;Different;low;132;82;154;j;v;0;f;b;2160.6181000006472
g794p#t;73;False;1;P != T2?;ST2_low_1;2;Same;low;82;132;132;j;v;1;f;n;7627.5017999996635
g794p#t;74;False;1;P != T2?;ST1_low_1;1;Same;low;82;132;82;j;v;1;j;n;3402.897199999643
g794p#t;75;False;1;P != T1?;ST2_low_6;2;Same;low;154;96;96;j;v;1;j;b;3151.593300000968
g794p#t;76;False;1;P != T2?;ST2_high_3;2;Same;high;70;96;96;j;v;1;f;b;2224.089499999536
g794p#t;77;False;1;P != T1?;ST1_high_6;1;Same;high;132;96;132;j;v;1;f;n;2241.0264999998617
g794p#t;78;False;1;P != T2?;ST2_low_5;2;Same;low;96;154;154;j;v;1;f;b;8795.328599999266
g794p#t;79;False;1;P != T1?;ST1_low_5;1;Same;low;96;154;96;j;v;1;f;b;2834.939899999881
g794p#t;80;False;1;P != T1?;ST1_low_5;1;Same;low;96;154;96;j;v;1;f;b;2513.3034999998927
g794p#t;81;False;1;P != T2?;ST2_high_4;2;Same;high;96;70;70;j;v;1;f;b;2752.1964000006847
g794p#t;82;False;1;P != T1?;ST1_low_1;1;Same;low;82;132;82;j;v;1;f;b;1978.461900000184
g794p#t;83;False;1;P != T2?;ST1_low_2;1;Same;low;132;82;132;j;v;1;j;n;3124.1692999992665
g794p#t;84;False;1;P != T1?;ST1_low_2;1;Same;low;132;82;132;j;v;1;f;n;2552.4092000014207
g794p#t;85;False;1;P != T2?;ST2_high_1;2;Same;high;82;112;112;j;v;1;f;n;3370.2769999999873
g794p#t;86;False;1;P != T1?;ST1_low_3;1;Same;low;70;112;70;j;v;1;f;b;1899.9798000004375
g794p#t;87;False;1;P != T1?;STb_2;0;Same;None;70;70;70;j;v;1;f;n;3315.7152000003407
g794p#t;88;False;1;P != T1?;DT1_low_4;1;Different;low;112;70;132;j;v;0;f;n;9493.21989999953
g794p#t;89;False;1;P != T2?;STb_2;0;Same;None;70;70;70;j;v;1;f;n;2157.4375000000146
g794p#t;90;False;1;P != T1?;ST2_low_1;2;Same;low;82;132;132;j;v;1;j;b;1511.714000000211
g794p#t;91;False;1;P != T2?;ST1_low_1;1;Same;low;82;132;82;j;v;1;j;b;2788.6742999999115
g794p#t;92;False;1;P != T1?;ST1_high_5;1;Same;high;96;132;96;j;v;0;j;n;3677.23229999865
g794p#t;93;False;1;P != T2?;ST2_high_2;2;Same;high;112;82;82;j;v;1;f;n;3636.2760000010894
g794p#t;94;False;1;P != T1?;ST2_low_1;2;Same;low;82;132;132;j;v;1;j;n;5524.107799999911
g794p#t;95;False;1;P != T2?;ST1_low_5;1;Same;low;96;154;96;j;v;1;j;b;4155.606800000896
g794p#t;96;False;1;P != T2?;ST1_high_6;1;Same;high;132;96;132;j;v;1;j;n;1610.390499999994
g794p#t;97;False;1;P != T1?;ST1_high_3;1;Same;high;70;96;70;j;v;1;f;n;1167.1887000011338
g794p#t;98;False;1;P != T2?;ST2_low_1;2;Same;low;82;132;132;j;v;1;f;b;2432.1119000014733
g794p#t;99;False;1;P != T1?;ST2_high_1;2;Same;high;82;112;112;j;v;0;f;n;2541.964399999415
g794p#t;100;False;1;P != T2?;ST2_high_5;2;Same;high;96;132;132;j;v;1;f;b;2541.05619999973
g794p#t;101;False;1;P != T2?;ST1_low_5;1;Same;low;96;154;96;j;v;1;j;v;8088.0509999988135
g794p#t;102;False;1;P != T2?;DT1_low_3;1;Different;low;70;112;60;j;v;1;j;n;1821.6780999991897
g794p#t;103;False;1;P != T1?;ST1_high_6;1;Same;high;132;96;132;j;v;1;f;n;1552.7205999987927
g794p#t;104;False;1;P != T1?;ST2_high_1;2;Same;high;82;112;112;j;v;1;j;b;1927.567700000509
g794p#t;105;False;1;P != T1?;ST1_high_2;1;Same;high;112;82;112;j;v;0;j;n;2096.276999998736
g794p#t;106;False;1;P != T2?;ST1_low_2;1;Same;low;132;82;132;j;v;1;j;b;1816.960399999516
g794p#t;107;False;1;P != T1?;ST2_high_5;2;Same;high;96;132;132;j;v;1;j;n;1636.9942000001174
g794p#t;108;False;1;P != T1?;ST2_low_5;2;Same;low;96;154;154;j;v;1;j;b;3251.459500001147
g794p#t;109;False;1;P != T1?;ST2_high_2;2;Same;high;112;82;82;j;v;1;j;b;2094.2144000000553
g794p#t;110;False;1;P != T1?;ST1_low_3;1;Same;low;70;112;70;j;v;1;f;n;8694.289099999878
g794p#t;111;False;1;P != T2?;ST1_low_5;1;Same;low;96;154;96;j;v;1;j;v;3937.8083999999944
g794p#t;112;False;1;P != T1?;ST1_low_2;1;Same;low;132;82;132;j;v;1;f;b;2834.9812000014936
g794p#t;113;False;1;P != T1?;ST2_high_4;2;Same;high;96;70;70;j;v;0;f;n;7032.962000001135
g794p#t;114;False;1;P != T1?;ST1_low_2;1;Same;low;132;82;132;j;v;1;f;b;2854.6622000012576
g794p#t;115;False;1;P != T2?;ST2_high_3;2;Same;high;70;96;96;j;v;1;f;n;1128.4446000008757
g794p#t;116;False;1;P != T2?;ST2_high_4;2;Same;high;96;70;70;j;v;1;f;n;2881.8025999989914
g794p#t;117;False;1;P != T2?;ST1_low_1;1;Same;low;82;132;82;j;v;1;j;n;3190.6245999998646
g794p#t;118;False;1;P != T2?;DT2_low_1;2;Different;low;82;132;154;j;v;0;f;b;4405.1518999986
g794p#t;119;False;1;P != T1?;ST2_high_1;2;Same;high;82;112;112;j;v;0;f;n;3641.899000000194
g794p#t;120;False;1;P != T2?;ST2_low_5;2;Same;low;96;154;154;j;v;1;f;b;2501.225300000442
g794p#t;121;False;1;P != T2?;ST1_low_3;1;Same;low;70;112;70;j;v;0;f;n;10395.093299999644
g794p#t;122;False;1;P != T2?;STb_1;0;Same;None;60;60;60;j;v;1;f;b;1786.7143000003125
g794p#t;123;False;1;P != T1?;ST2_low_2;2;Same;low;132;82;82;j;v;1;j;n;2314.325400000598
g794p#t;124;False;1;P != T1?;ST2_high_4;2;Same;high;96;70;70;j;v;0;f;b;2282.8788999995595
g794p#t;125;False;1;P != T1?;ST2_low_5;2;Same;low;96;154;154;j;v;1;j;n;2564.908500000456
g794p#t;126;False;1;P != T2?;ST2_low_2;2;Same;low;132;82;82;j;v;1;f;b;2707.7246000008017
g794p#t;127;False;1;P != T2?;ST2_low_4;2;Same;low;112;70;70;j;v;1;f;b;2918.663499998729
g794p#t;128;False;1;P != T2?;ST1_high_4;1;Same;high;96;70;96;j;v;0;f;n;1540.8606000000873
g794p#t;129;False;1;P != T2?;ST2_low_4;2;Same;low;112;70;70;j;v;1;f;b;2237.5754000004235
g794p#t;130;False;1;P != T2?;STb_4;0;Same;None;96;96;96;j;v;1;f;b;2998.1477000001178
g794p#t;131;False;1;P != T2?;ST1_high_1;1;Same;high;82;112;82;j;v;0;f;b;1864.129599998705
g794p#t;132;False;1;P != T1?;ST2_low_4;2;Same;low;112;70;70;j;v;0;f;n;3458.605300000272
g794p#t;133;False;1;P != T1?;DT1_low_3;1;Different;low;70;112;60;j;v;0;f;n;2526.0660000003554
g794p#t;134;False;1;P != T2?;ST1_low_3;1;Same;low;70;112;70;j;v;1;j;n;4057.3879000003217
g794p#t;135;False;1;P != T1?;ST1_high_2;1;Same;high;112;82;112;j;v;1;f;n;2133.3654999998544
g794p#t;136;False;1;P != T2?;ST1_high_5;1;Same;high;96;132;96;j;v;1;j;n;2325.7525000008172
g794p#t;137;False;1;P != T1?;ST2_high_4;2;Same;high;96;70;70;j;v;1;j;n;1673.96589999953
g794p#t;138;False;1;P != T1?;STb_4;0;Same;None;96;96;96;j;v;1;f;n;1620.4343999997946
g794p#t;139;False;1;P != T1?;ST1_high_1;1;Same;high;82;112;82;j;v;1;f;n;2184.2322000011336
g794p#t;140;False;1;P != T2?;ST1_low_4;1;Same;low;112;70;112;j;v;1;j;n;1915.521400000216
g794p#t;141;False;1;P != T1?;ST1_high_1;1;Same;high;82;112;82;j;v;1;f;n;1802.552299999661
g794p#t;142;False;1;P != T2?;DT2_high_4;2;Different;high;96;70;60;j;v;0;f;b;2804.4690000006085
g794p#t;143;False;1;P != T1?;ST1_low_4;1;Same;low;112;70;112;j;v;1;f;n;2338.725700001305
g794p#t;144;False;1;P != T2?;STb_5;0;Same;None;112;112;112;j;v;1;f;b;3931.627899999512
g794p#t;145;False;1;P != T1?;ST1_low_4;1;Same;low;112;70;112;j;v;1;f;n;3824.8914999985573
g794p#t;146;False;1;P != T2?;ST2_high_2;2;Same;high;112;82;82;j;v;1;f;b;3538.2344999998168
g794p#t;147;False;1;P != T1?;ST2_high_2;2;Same;high;112;82;82;j;v;1;j;n;6871.008399999482
g794p#t;148;False;1;P != T1?;DT1_high_3;1;Different;high;70;96;60;j;v;0;f;b;3066.1808000004385
g794p#t;149;False;1;P != T2?;ST2_high_6;2;Same;high;132;96;96;j;v;1;f;b;3996.425499999532
g794p#t;150;False;1;P != T1?;ST1_high_5;1;Same;high;96;132;96;j;v;1;f;n;2177.041200000531
g794p#t;151;False;1;P != T1?;ST1_low_1;1;Same;low;82;132;82;j;v;1;f;n;2649.2441999998846
g794p#t;152;False;1;P != T2?;ST2_high_1;2;Same;high;82;112;112;j;v;1;f;n;3156.704600000012
g794p#t;153;False;1;P != T2?;ST2_low_3;2;Same;low;70;112;112;j;v;1;f;n;2470.4523000000336
g794p#t;154;False;1;P != T2?;ST1_low_6;1;Same;low;154;96;154;j;v;1;j;b;1420.433299999786
g794p#t;155;False;1;P != T1?;ST1_low_3;1;Same;low;70;112;70;j;v;1;f;n;2612.1039999998175
g794p#t;156;False;1;P != T1?;ST1_high_4;1;Same;high;96;70;96;j;v;1;f;n;8009.613000000172
g794p#t;157;False;1;P != T2?;ST2_high_6;2;Same;high;132;96;96;j;v;1;f;b;2716.282899998987
g794p#t;158;False;1;P != T1?;STb_1;0;Same;None;60;60;60;j;v;1;f;b;1057.8471000007994
g794p#t;159;False;1;P != T1?;ST2_low_6;2;Same;low;154;96;96;j;v;1;j;v;2548.8654999990104
g794p#t;160;False;1;P != T1?;ST2_low_3;2;Same;low;70;112;112;j;v;1;j;n;2012.935099999595
g794p#t;161;False;1;P != T1?;ST2_low_2;2;Same;low;132;82;82;j;v;1;j;n;2469.8833000002196
g794p#t;162;False;1;P != T2?;ST2_high_5;2;Same;high;96;132;132;j;v;1;f;b;2740.1241999996273
g794p#t;163;False;1;P != T1?;STb_8;0;Same;None;180;180;180;j;v;1;f;b;938.4217000006174
g794p#t;164;False;1;P != T1?;STb_6;0;Same;None;132;132;132;j;v;1;f;b;973.8228999995044
g794p#t;165;False;1;P != T2?;STb_7;0;Same;None;154;154;154;j;v;1;f;b;2844.8051000013947
g794p#t;166;False;1;P != T2?;DT1_high_3;1;Different;high;70;96;60;j;v;0;f;b;4181.591799999296
g794p#t;167;False;1;P != T2?;ST2_low_3;2;Same;low;70;112;112;j;v;1;f;b;3476.297200000772
g794p#t;168;False;1;P != T2?;ST2_low_1;2;Same;low;82;132;132;j;v;1;f;b;2070.3137000000424
g794p#t;169;False;1;P != T1?;DT2_low_2;2;Different;low;132;82;70;j;v;1;j;b;2144.3116999998892
g794p#t;170;False;1;P != T2?;ST1_high_4;1;Same;high;96;70;96;j;v;0;f;b;2417.7779000001465
g794p#t;171;False;1;P != T1?;ST1_high_5;1;Same;high;96;132;96;j;v;1;f;n;3241.2547999992967
g794p#t;172;False;1;P != T2?;ST1_high_1;1;Same;high;82;112;82;j;v;0;f;n;2894.2548999984865
g794p#t;173;False;1;P != T2?;ST1_high_2;1;Same;high;112;82;112;j;v;1;j;n;2757.6697999993485
g794p#t;174;False;1;P != T1?;ST1_low_4;1;Same;low;112;70;112;j;v;1;f;n;4786.725500000102
g794p#t;175;False;1;P != T1?;ST1_high_3;1;Same;high;70;96;70;j;v;1;f;n;3733.7524999984453
g794p#t;176;False;1;P != T2?;ST1_high_5;1;Same;high;96;132;96;j;v;1;j;n;2176.9328999998834
g794p#t;1;True;2;P = T1?;ST2_high_6;2;Same;high;132;96;96;j;v;1;f;b;14016.042999999627
g794p#t;2;True;2;P = T1?;DT1_low_1;1;Different;low;82;132;70;j;v;0;j;b;2604.7969999999623
g794p#t;3;True;2;P = T2?;STb_2;0;Same;None;70;70;70;j;v;1;j;b;2208.6655000002793
g794p#t;4;True;2;P = T1?;ST2_low_6;2;Same;low;154;96;96;j;v;1;f;b;2382.900399999926
g794p#t;5;True;2;P = T2?;ST2_high_2;2;Same;high;112;82;82;j;v;1;j;b;1898.8021000004665
g794p#t;6;True;2;P = T1?;STb_6;0;Same;None;132;132;132;j;v;1;j;n;1926.8850999997085
g794p#t;7;True;2;P = T2?;DT1_low_3;1;Different;low;70;112;60;j;v;1;f;n;1503.4632999995665
g794p#t;8;True;2;P = T2?;STb_6;0;Same;None;132;132;132;j;v;1;j;b;1838.5133000010683
g794p#t;9;True;2;P = T2?;DT1_low_2;1;Different;low;132;82;154;j;v;1;f;b;1255.7230999991589
g794p#t;10;True;2;P = T1?;ST1_low_6;1;Same;low;154;96;154;j;v;1;j;b;5076.976900001682
g794p#t;11;True;2;P = T1?;STb_2;0;Same;None;70;70;70;j;v;1;j;b;1185.8703000016249
g794p#t;12;True;2;P = T1?;DT1_low_2;1;Different;low;132;82;154;j;v;0;j;b;1437.942299999122
g794p#t;13;True;2;P = T2?;ST2_high_3;2;Same;high;70;96;96;j;v;1;j;n;2824.4204000002355
g794p#t;14;True;2;P = T2?;ST1_high_3;1;Same;high;70;96;70;j;v;0;j;n;1608.2805000005465
g794p#t;15;True;2;P = T1?;ST1_low_4;1;Same;low;112;70;112;j;v;1;j;n;2224.3579999994836
g794p#t;16;True;2;P = T2?;ST1_low_6;1;Same;low;154;96;154;j;v;1;f;b;1625.7120000009309
g794p#t;1;False;2;P = T2?;STb_1;0;Same;None;60;60;60;j;v;1;j;b;995.7560999991983
g794p#t;2;False;2;P = T2?;ST2_low_3;2;Same;low;70;112;112;j;v;1;j;n;1725.185400000555
g794p#t;3;False;2;P = T2?;ST1_low_5;1;Same;low;96;154;96;j;v;1;f;b;2259.499499999947
g794p#t;4;False;2;P = T1?;ST1_low_1;1;Same;low;82;132;82;j;v;1;j;n;1643.3049999996
g794p#t;5;False;2;P = T1?;ST2_low_1;2;Same;low;82;132;132;j;v;1;f;b;1507.7849999997852
g794p#t;6;False;2;P = T2?;ST1_low_4;1;Same;low;112;70;112;j;v;1;f;n;5306.054799999401
g794p#t;7;False;2;P = T2?;ST2_high_3;2;Same;high;70;96;96;j;v;0;f;n;1487.1423000004143
g794p#t;8;False;2;P = T1?;ST2_high_3;2;Same;high;70;96;96;j;v;0;j;n;2849.5653999998467
g794p#t;9;False;2;P = T2?;ST1_low_4;1;Same;low;112;70;112;j;v;1;f;n;1924.7295999994094
g794p#t;10;False;2;P = T1?;ST1_high_4;1;Same;high;96;70;96;j;v;1;j;n;2702.4023000012676
g794p#t;11;False;2;P = T2?;ST1_high_4;1;Same;high;96;70;96;j;v;0;j;b;2682.094899999356
g794p#t;12;False;2;P = T1?;STb_4;0;Same;None;96;96;96;j;v;1;j;n;3068.9866000011534
g794p#t;13;False;2;P = T2?;ST1_high_6;1;Same;high;132;96;132;j;v;1;f;b;2403.385799998432
g794p#t;14;False;2;P = T2?;ST2_low_1;2;Same;low;82;132;132;j;v;1;j;n;2024.1215000005468
g794p#t;15;False;2;P = T2?;ST1_high_1;1;Same;high;82;112;82;j;v;0;j;n;4424.021199998606
g794p#t;16;False;2;P = T2?;ST2_low_2;2;Same;low;132;82;82;j;v;1;j;n;2086.098400000992
g794p#t;17;False;2;P = T1?;ST1_high_4;1;Same;high;96;70;96;j;v;1;j;n;2223.2254999998986
g794p#t;18;False;2;P = T1?;ST2_low_4;2;Same;low;112;70;70;j;v;1;f;n;2426.455000000715
g794p#t;19;False;2;P = T1?;ST1_low_4;1;Same;low;112;70;112;j;v;1;j;n;3848.6578000010923
g794p#t;20;False;2;P = T2?;ST1_high_5;1;Same;high;96;132;96;j;v;0;j;n;1587.7669000001333
g794p#t;21;False;2;P = T1?;STb_5;0;Same;None;112;112;112;j;v;1;j;n;1349.7119000003295
g794p#t;22;False;2;P = T1?;ST2_high_1;2;Same;high;82;112;112;j;v;1;f;n;3538.1918999992195
g794p#t;23;False;2;P = T2?;ST2_high_5;2;Same;high;96;132;132;j;v;1;j;b;2762.019899999359
g794p#t;24;False;2;P = T2?;ST2_low_4;2;Same;low;112;70;70;j;v;1;j;b;2260.8147999999346
g794p#t;25;False;2;P = T1?;ST2_low_2;2;Same;low;132;82;82;j;v;1;f;b;1559.8203999998077
g794p#t;26;False;2;P = T2?;ST2_low_2;2;Same;low;132;82;82;j;v;1;j;n;6215.387099999134
g794p#t;27;False;2;P = T1?;ST2_low_3;2;Same;low;70;112;112;j;v;1;f;n;1580.5233999999473
g794p#t;28;False;2;P = T1?;ST1_low_6;1;Same;low;154;96;154;j;v;1;j;n;1924.299099999189
g794p#t;29;False;2;P = T1?;ST1_high_3;1;Same;high;70;96;70;j;v;1;j;n;1629.2775000001711
g794p#t;30;False;2;P = T2?;ST2_high_1;2;Same;high;82;112;112;j;v;1;j;b;1203.773999999612
g794p#t;31;False;2;P = T1?;DT1_low_1;1;Different;low;82;132;70;j;v;0;j;n;1854.1100999991613
g794p#t;32;False;2;P = T2?;ST1_high_2;1;Same;high;112;82;112;j;v;0;j;n;1368.1008000003203
g794p#t;33;False;2;P = T1?;ST2_high_4;2;Same;high;96;70;70;j;v;0;j;n;2733.8136000016675
g794p#t;34;False;2;P = T1?;ST1_high_5;1;Same;high;96;132;96;j;v;1;j;n;1963.9970999996876
g794p#t;35;False;2;P = T2?;ST1_low_1;1;Same;low;82;132;82;j;v;1;f;b;2292.3055999999633
g794p#t;36;False;2;P = T2?;ST1_high_4;1;Same;high;96;70;96;j;v;0;j;n;1154.8618999986502
g794p#t;37;False;2;P = T2?;STb_8;0;Same;None;180;180;180;j;v;1;j;b;1161.2941000003048
g794p#t;38;False;2;P = T2?;ST1_low_2;1;Same;low;132;82;132;j;v;0;j;b;816.963900000701
g794p#t;39;False;2;P = T2?;ST2_low_3;2;Same;low;70;112;112;j;v;1;j;b;674.8348999990412
g794p#t;40;False;2;P = T1?;ST2_low_5;2;Same;low;96;154;154;j;v;1;f;n;1147.1149000008154
g794p#t;41;False;2;P = T2?;ST1_low_6;1;Same;low;154;96;154;j;v;1;f;b;2970.6475000002683
g794p#t;42;False;2;P = T1?;ST2_high_6;2;Same;high;132;96;96;j;v;1;f;n;3601.6679999993357
g794p#t;43;False;2;P = T1?;ST2_low_4;2;Same;low;112;70;70;j;v;1;f;n;3315.554599999814
g794p#t;44;False;2;P = T1?;ST1_high_2;1;Same;high;112;82;112;j;v;0;f;n;2388.0042000000685
g794p#t;45;False;2;P = T1?;ST1_low_1;1;Same;low;82;132;82;j;v;1;j;n;2943.692700000611
g794p#t;46;False;2;P = T1?;ST2_high_4;2;Same;high;96;70;70;j;v;0;j;n;1929.0111999998771
g794p#t;47;False;2;P = T2?;ST1_low_3;1;Same;low;70;112;70;j;v;1;f;n;1774.0618999996514
g794p#t;48;False;2;P = T1?;ST2_high_3;2;Same;high;70;96;96;j;v;1;f;n;5548.670300000595
g794p#t;49;False;2;P = T2?;ST2_low_2;2;Same;low;132;82;82;j;v;1;j;b;4150.340799998958
g794p#t;50;False;2;P = T1?;STb_3;0;Same;None;82;82;82;j;v;1;j;n;1775.4961999999068
g794p#t;51;False;2;P = T2?;ST2_low_1;2;Same;low;82;132;132;j;v;1;j;b;1576.2983999993594
g794p#t;52;False;2;P = T1?;ST2_high_5;2;Same;high;96;132;132;j;v;1;f;n;1066.5698000011616
g794p#t;53;False;2;P = T2?;ST1_low_6;1;Same;low;154;96;154;j;v;1;f;b;1306.46329999945
g794p#t;54;False;2;P = T1?;STb_2;0;Same;None;70;70;70;j;v;1;j;n;5346.465700000408
g794p#t;55;False;2;P = T1?;ST2_high_2;2;Same;high;112;82;82;j;v;0;j;n;2741.7052000000695
g794p#t;56;False;2;P = T1?;ST1_low_6;1;Same;low;154;96;154;j;v;1;j;b;1519.7244999999384
g794p#t;57;False;2;P = T1?;STb_7;0;Same;None;154;154;154;j;v;1;j;b;1396.8072000006941
g794p#t;58;False;2;P = T2?;ST2_low_1;2;Same;low;82;132;132;j;v;1;j;n;5117.369300000064
g794p#t;59;False;2;P = T1?;ST2_high_1;2;Same;high;82;112;112;j;v;0;j;n;4099.21409999879
g794p#t;60;False;2;P = T2?;ST1_high_2;1;Same;high;112;82;112;j;v;0;j;n;2245.0038000006316
g794p#t;61;False;2;P = T1?;ST1_high_5;1;Same;high;96;132;96;j;v;1;j;n;1562.8646000004665
g794p#t;62;False;2;P = T2?;ST1_low_4;1;Same;low;112;70;112;j;v;1;f;n;1715.2169000000868
g794p#t;63;False;2;P = T1?;DT2_high_1;2;Different;high;82;112;132;j;v;1;f;n;2872.192000000723
g794p#t;64;False;2;P = T2?;ST1_high_6;1;Same;high;132;96;132;j;v;1;f;n;1478.411000000051
g794p#t;65;False;2;P = T1?;ST2_low_3;2;Same;low;70;112;112;j;v;1;f;n;3584.5939999999246
g794p#t;66;False;2;P = T2?;ST1_high_5;1;Same;high;96;132;96;j;v;1;f;n;1541.315400001622
g794p#t;67;False;2;P = T1?;ST2_low_3;2;Same;low;70;112;112;j;v;1;f;n;2147.252999999182
g794p#t;68;False;2;P = T2?;ST2_high_2;2;Same;high;112;82;82;j;v;1;j;b;1737.3196999997162
g794p#t;69;False;2;P = T1?;ST1_high_4;1;Same;high;96;70;96;j;v;1;j;n;1484.7855999996682
g794p#t;70;False;2;P = T2?;ST1_high_6;1;Same;high;132;96;132;j;v;1;f;b;1452.2257000007812
g794p#t;71;False;2;P = T2?;ST2_high_3;2;Same;high;70;96;96;j;v;1;j;b;2425.93609999858
g794p#t;72;False;2;P = T1?;STb_1;0;Same;None;60;60;60;j;v;1;j;n;1587.774999999965
g794p#t;73;False;2;P = T2?;ST1_low_3;1;Same;low;70;112;70;j;v;1;f;n;2486.1014999987674
g794p#t;74;False;2;P = T1?;ST1_high_6;1;Same;high;132;96;132;j;v;1;j;b;1505.1019999991695
g794p#t;75;False;2;P = T1?;ST2_low_5;2;Same;low;96;154;154;j;v;1;f;b;1453.0276999994385
g794p#t;76;False;2;P = T2?;ST1_low_5;1;Same;low;96;154;96;j;v;1;f;b;2504.5764000005875
g794p#t;77;False;2;P = T1?;STb_8;0;Same;None;180;180;180;j;v;1;j;n;1864.4675000014104
g794p#t;78;False;2;P = T1?;DT1_high_4;1;Different;high;96;70;112;j;v;0;j;n;1830.7678999990458
g794p#t;79;False;2;P = T1?;ST1_low_4;1;Same;low;112;70;112;j;v;1;j;n;1711.8094000015844
g794p#t;80;False;2;P = T1?;ST1_low_1;1;Same;low;82;132;82;j;v;1;j;n;4925.971299999219
g794p#t;81;False;2;P = T2?;STb_4;0;Same;None;96;96;96;j;v;1;j;b;1001.3732000006712
g794p#t;82;False;2;P = T2?;ST1_high_3;1;Same;high;70;96;70;j;v;0;j;b;1194.8522000002413
g794p#t;83;False;2;P = T1?;ST1_high_6;1;Same;high;132;96;132;j;v;1;j;b;1485.437199999069
g794p#t;84;False;2;P = T1?;ST2_high_5;2;Same;high;96;132;132;j;v;1;f;n;1260.7404999998835
g794p#t;85;False;2;P = T2?;ST1_high_3;1;Same;high;70;96;70;j;v;0;j;n;1494.8031000003539
g794p#t;86;False;2;P = T2?;ST2_low_3;2;Same;low;70;112;112;j;v;1;j;n;1348.610800001552
g794p#t;87;False;2;P = T1?;ST1_low_3;1;Same;low;70;112;70;j;v;1;j;n;1455.664600000091
g794p#t;88;False;2;P = T2?;DT2_low_5;2;Different;low;96;154;180;j;v;0;j;b;3592.932399998972
g794p#t;89;False;2;P = T2?;ST2_high_3;2;Same;high;70;96;96;j;v;1;j;b;1931.2324999991688
g794p#t;90;False;2;P = T2?;ST2_low_5;2;Same;low;96;154;154;j;v;1;j;b;1100.196399998822
g794p#t;91;False;2;P = T1?;DT1_high_1;1;Different;high;82;112;70;j;v;0;j;n;1952.6884999995673
g794p#t;92;False;2;P = T2?;ST2_high_4;2;Same;high;96;70;70;j;v;1;j;b;1701.2709000009636
g794p#t;93;False;2;P = T2?;ST1_high_3;1;Same;high;70;96;70;j;v;0;j;b;4658.799099999669
g794p#t;94;False;2;P = T2?;ST2_high_4;2;Same;high;96;70;70;j;v;1;j;b;1728.0233000001317
g794p#t;95;False;2;P = T2?;ST2_high_6;2;Same;high;132;96;96;j;v;1;j;n;2708.04489999864
g794p#t;96;False;2;P = T1?;ST1_low_2;1;Same;low;132;82;132;j;v;1;j;b;1954.8125000001164
g794p#t;97;False;2;P = T1?;DT2_low_5;2;Different;low;96;154;180;j;v;1;f;v;2585.704799999803
g794p#t;98;False;2;P = T2?;ST2_low_4;2;Same;low;112;70;70;j;v;0;f;n;1919.2115999994712
g794p#t;99;False;2;P = T1?;ST2_low_6;2;Same;low;154;96;96;j;v;1;f;n;1732.387199999721
g794p#t;100;False;2;P = T2?;ST2_high_2;2;Same;high;112;82;82;j;v;1;j;n;1327.538999999888
g794p#t;101;False;2;P = T1?;DT1_low_5;1;Different;low;96;154;82;j;v;0;j;b;2084.3679000008706
g794p#t;102;False;2;P = T1?;ST2_low_4;2;Same;low;112;70;70;j;v;1;f;n;3580.1727999987634
g794p#t;103;False;2;P = T1?;ST1_high_3;1;Same;high;70;96;70;j;v;1;j;n;2395.0537000000622
g794p#t;104;False;2;P = T1?;ST2_low_1;2;Same;low;82;132;132;j;v;1;f;n;1344.40209999957
g794p#t;105;False;2;P = T2?;ST2_low_5;2;Same;low;96;154;154;j;v;1;j;b;1291.1318999995274
g794p#t;106;False;2;P = T1?;ST1_high_2;1;Same;high;112;82;112;j;v;1;j;n;1627.7303999995638
g794p#t;107;False;2;P = T2?;ST1_low_6;1;Same;low;154;96;154;j;v;1;f;b;1418.9294000007067
g794p#t;108;False;2;P = T2?;ST1_high_1;1;Same;high;82;112;82;j;v;0;j;n;8443.403900000703
g794p#t;109;False;2;P = T1?;ST2_low_6;2;Same;low;154;96;96;j;v;1;f;n;1230.3859000003285
g794p#t;110;False;2;P = T2?;STb_7;0;Same;None;154;154;154;j;v;1;j;b;858.5304999996879
g794p#t;111;False;2;P = T1?;ST2_high_6;2;Same;high;132;96;96;j;v;1;f;n;1221.4189000005717
g794p#t;112;False;2;P = T2?;ST2_low_6;2;Same;low;154;96;96;j;v;1;j;b;1113.82169999888
g794p#t;113;False;2;P = T2?;ST2_high_1;2;Same;high;82;112;112;j;v;1;j;b;1524.5295000004262
g794p#t;114;False;2;P = T2?;STb_3;0;Same;None;82;82;82;j;v;1;j;b;816.0733999993681
g794p#t;115;False;2;P = T2?;DT1_high_5;1;Different;high;96;132;82;j;v;1;f;n;1583.221599999888
g794p#t;116;False;2;P = T2?;ST2_high_6;2;Same;high;132;96;96;j;v;0;f;n;1789.634800001295
g794p#t;117;False;2;P = T2?;ST1_high_4;1;Same;high;96;70;96;j;v;0;j;b;1285.5156000005081
g794p#t;118;False;2;P = T2?;ST1_high_1;1;Same;high;82;112;82;j;v;0;j;b;1043.512099999134
g794p#t;119;False;2;P = T1?;ST1_high_3;1;Same;high;70;96;70;j;v;1;j;b;1036.5105000000767
g794p#t;120;False;2;P = T1?;ST2_high_5;2;Same;high;96;132;132;j;v;1;f;n;2409.937699998409
g794p#t;121;False;2;P = T2?;ST1_low_2;1;Same;low;132;82;132;j;v;1;f;n;1209.0313999997306
g794p#t;122;False;2;P = T1?;ST1_low_4;1;Same;low;112;70;112;j;v;1;j;n;1919.6668999993562
g794p#t;123;False;2;P = T1?;ST1_high_6;1;Same;high;132;96;132;j;v;1;j;n;1863.7475999985327
g794p#t;124;False;2;P = T2?;ST1_low_1;1;Same;low;82;132;82;j;v;1;f;n;1170.4750999997486
g794p#t;125;False;2;P = T2?;ST2_high_4;2;Same;high;96;70;70;j;v;1;j;b;1510.7322000003478
g794p#t;126;False;2;P = T2?;ST1_low_2;1;Same;low;132;82;132;j;v;1;f;n;1949.2307000000437
g794p#t;127;False;2;P = T2?;ST2_low_4;2;Same;low;112;70;70;j;v;1;j;n;2067.68589999956
g794p#t;128;False;2;P = T1?;ST1_low_2;1;Same;low;132;82;132;j;v;1;j;b;1335.3213999998843
g794p#t;129;False;2;P = T1?;ST2_low_2;2;Same;low;132;82;82;j;v;1;f;n;996.0393000001204
g794p#t;130;False;2;P = T1?;ST2_high_6;2;Same;high;132;96;96;j;v;1;f;n;4257.07710000097
g794p#t;131;False;2;P = T1?;ST1_low_5;1;Same;low;96;154;96;j;v;1;j;b;3598.578799999814
g794p#t;132;False;2;P = T2?;DT1_high_4;1;Different;high;96;70;112;j;v;1;f;n;8893.95489999879
g794p#t;133;False;2;P = T1?;STb_6;0;Same;None;132;132;132;j;v;1;j;n;1285.46070000084
g794p#t;134;False;2;P = T2?;STb_6;0;Same;None;132;132;132;j;v;1;j;n;1381.8725000000995
g794p#t;135;False;2;P = T2?;ST2_high_1;2;Same;high;82;112;112;j;v;1;j;b;1002.5389000002178
g794p#t;136;False;2;P = T1?;ST1_high_2;1;Same;high;112;82;112;j;v;1;j;n;1912.6524999992398
g794p#t;137;False;2;P = T2?;DT2_high_1;2;Different;high;82;112;132;j;v;1;f;n;2133.8957999996637
g794p#t;138;False;2;P = T1?;ST1_low_3;1;Same;low;70;112;70;j;v;1;j;n;1361.638899999889
g794p#t;139;False;2;P = T2?;DT2_high_5;2;Different;high;96;132;154;j;v;0;j;b;1368.7922000008257
g794p#t;140;False;2;P = T2?;STb_2;0;Same;None;70;70;70;j;v;1;j;b;1142.3531000000366
g794p#t;141;False;2;P = T2?;DT1_high_2;1;Different;high;112;82;132;j;v;1;f;n;1610.8458999988216
g794p#t;142;False;2;P = T2?;ST2_high_2;2;Same;high;112;82;82;j;v;1;j;n;5186.366199999611
g794p#t;143;False;2;P = T2?;ST1_high_2;1;Same;high;112;82;112;j;v;1;f;n;1184.4864999984566
g794p#t;144;False;2;P = T1?;ST2_low_6;2;Same;low;154;96;96;j;v;1;f;n;1186.4736000006815
g794p#t;145;False;2;P = T1?;ST1_high_1;1;Same;high;82;112;82;j;v;1;j;b;1705.1338000001124
g794p#t;146;False;2;P = T1?;ST1_low_2;1;Same;low;132;82;132;j;v;1;j;n;1318.2140000008076
g794p#t;147;False;2;P = T2?;ST1_low_1;1;Same;low;82;132;82;j;v;1;f;b;1701.6643999995722
g794p#t;148;False;2;P = T2?;ST2_low_6;2;Same;low;154;96;96;j;v;1;j;b;1237.7870999989682
g794p#t;149;False;2;P = T2?;DT2_low_2;2;Different;low;132;82;70;j;v;0;j;b;2688.911299999745
g794p#t;150;False;2;P = T1?;ST1_high_1;1;Same;high;82;112;82;j;v;1;j;n;1505.437300000267
g794p#t;151;False;2;P = T2?;ST1_low_3;1;Same;low;70;112;70;j;v;1;f;n;1313.3787000006123
g794p#t;152;False;2;P = T1?;DT1_high_5;1;Different;high;96;132;82;j;v;0;j;n;1793.590100000074
g794p#t;153;False;2;P = T1?;ST2_low_2;2;Same;low;132;82;82;j;v;1;f;n;1443.6368999995466
g794p#t;154;False;2;P = T2?;ST1_high_5;1;Same;high;96;132;96;j;v;1;f;n;1596.4234999992186
g794p#t;155;False;2;P = T1?;ST2_high_3;2;Same;high;70;96;96;j;v;0;j;n;1023.198400000183
g794p#t;156;False;2;P = T2?;ST2_high_6;2;Same;high;132;96;96;j;v;1;j;b;4282.272899999953
g794p#t;157;False;2;P = T2?;DT2_low_4;2;Different;low;112;70;60;j;v;0;j;b;1173.678099999961
g794p#t;158;False;2;P = T1?;ST1_high_1;1;Same;high;82;112;82;j;v;1;j;n;2492.6504000013665
g794p#t;159;False;2;P = T2?;ST2_low_6;2;Same;low;154;96;96;j;v;1;j;b;1388.7997999991057
g794p#t;160;False;2;P = T2?;STb_5;0;Same;None;112;112;112;j;v;1;j;b;8545.537900001364
g794p#t;161;False;2;P = T1?;ST2_high_4;2;Same;high;96;70;70;j;v;0;j;b;738.5692999996536
g794p#t;162;False;2;P = T1?;ST1_high_5;1;Same;high;96;132;96;j;v;1;j;n;1317.7462000003288
g794p#t;163;False;2;P = T1?;ST2_low_1;2;Same;low;82;132;132;j;v;1;f;b;1574.0389999991748
g794p#t;164;False;2;P = T2?;ST2_high_5;2;Same;high;96;132;132;j;v;1;j;b;1890.3341999994154
g794p#t;165;False;2;P = T2?;ST2_high_5;2;Same;high;96;132;132;j;v;1;j;b;16278.057500001523
g794p#t;166;False;2;P = T1?;ST2_high_1;2;Same;high;82;112;112;j;v;0;j;n;2770.8622999998624
g794p#t;167;False;2;P = T1?;ST1_low_5;1;Same;low;96;154;96;j;v;1;j;n;1432.5558000000456
g794p#t;168;False;2;P = T2?;ST1_low_5;1;Same;low;96;154;96;j;v;1;f;b;1756.6394999994372
g794p#t;169;False;2;P = T1?;ST2_high_2;2;Same;high;112;82;82;j;v;1;f;n;4642.919400001119
g794p#t;170;False;2;P = T1?;DT2_high_5;2;Different;high;96;132;154;j;v;1;f;n;4436.2605000005715
g794p#t;171;False;2;P = T2?;ST2_low_5;2;Same;low;96;154;154;j;v;1;j;b;1298.2350999991468
g794p#t;172;False;2;P = T1?;ST1_low_5;1;Same;low;96;154;96;j;v;1;j;n;1718.9486000006582
g794p#t;173;False;2;P = T1?;ST2_high_2;2;Same;high;112;82;82;j;v;0;j;n;1144.514400000844
g794p#t;174;False;2;P = T1?;ST2_low_5;2;Same;low;96;154;154;j;v;1;f;n;2062.803499999063
g794p#t;175;False;2;P = T1?;ST1_low_3;1;Same;low;70;112;70;j;v;1;j;n;1738.4587000015017
g794p#t;176;False;2;P = T1?;ST1_low_6;1;Same;low;154;96;154;j;v;1;j;n;1343.9842000007047
