p_code;trial_nr;practice;block;question;condition;seqPos;Same_or_Diff;ITS;T1_hz;T2_hz;P_hz;yes_key;sure_key;correct;yes_no;rating;resp_time
71!3yzh;1;True;1;P != T2?;ST2_low_6;2;Same;low;154;96;96;f;v;0;f;b;5674.304600001051
71!3yzh;2;True;1;P != T1?;ST2_low_6;2;Same;low;154;96;96;f;v;0;j;b;9813.967699999921
71!3yzh;3;True;1;P != T2?;STb_8;0;Same;None;180;180;180;f;v;0;f;b;9870.98800000058
71!3yzh;4;True;1;P != T2?;STb_1;0;Same;None;60;60;60;f;v;1;j;b;1984.4926000005216
71!3yzh;5;True;1;P != T2?;DT2_low_3;2;Different;low;70;112;132;f;v;1;f;b;2558.740200000102
71!3yzh;6;True;1;P != T1?;STb_7;0;Same;None;154;154;154;f;v;0;f;b;1473.9858000011736
71!3yzh;7;True;1;P != T1?;ST1_low_3;1;Same;low;70;112;70;f;v;0;f;b;5600.524100000257
71!3yzh;8;True;1;P != T1?;STb_3;0;Same;None;82;82;82;f;v;0;f;b;3028.8970000001427
71!3yzh;9;True;1;P != T1?;ST1_high_4;1;Same;high;96;70;96;f;v;0;f;b;3964.9303999995027
71!3yzh;10;True;1;P != T2?;ST2_low_5;2;Same;low;96;154;154;f;v;0;f;b;3857.762999999977
71!3yzh;11;True;1;P != T1?;DT2_high_6;2;Different;high;132;96;82;f;v;0;j;b;2106.221899999582
71!3yzh;12;True;1;P != T1?;DT2_low_2;2;Different;low;132;82;70;f;v;0;j;b;5296.060099999522
71!3yzh;13;True;1;P != T2?;DT1_low_1;1;Different;low;82;132;70;f;v;1;f;b;9339.57239999836
71!3yzh;14;True;1;P != T1?;ST2_low_4;2;Same;low;112;70;70;f;v;1;f;b;1266.1598999984562
71!3yzh;15;True;1;P != T2?;ST1_high_3;1;Same;high;70;96;70;f;v;1;f;b;2244.405299999926
71!3yzh;16;True;1;P != T2?;ST1_high_4;1;Same;high;96;70;96;f;v;1;f;b;1329.1537999994034
p_code;trial_nr;practice;block;question;condition;seqPos;Same_or_Diff;ITS;T1_hz;T2_hz;P_hz;yes_key;sure_key;correct;yes_no;rating;resp_time
71!3yzh;1;False;1;P != T1?;DT2_low_1;2;Different;low;82;132;154;f;v;1;f;b;2898.5978000000614
71!3yzh;2;False;1;P != T2?;ST2_high_5;2;Same;high;96;132;132;f;v;0;f;v;908.8711999993393
71!3yzh;3;False;1;P != T2?;ST2_high_4;2;Same;high;96;70;70;f;v;0;f;v;965.7243999990897
71!3yzh;4;False;1;P != T1?;ST1_low_2;1;Same;low;132;82;132;f;v;0;f;v;750.3290999993624
71!3yzh;5;False;1;P != T2?;ST2_low_1;2;Same;low;82;132;132;f;v;0;f;v;871.3516000007075
71!3yzh;6;False;1;P != T2?;ST2_high_6;2;Same;high;132;96;96;f;v;0;f;v;863.97179999949
71!3yzh;7;False;1;P != T1?;ST2_low_2;2;Same;low;132;82;82;f;v;1;f;v;1392.7561000000424
71!3yzh;8;False;1;P != T2?;ST2_high_3;2;Same;high;70;96;96;f;v;0;f;v;2423.0244000009407
71!3yzh;9;False;1;P != T2?;ST1_high_2;1;Same;high;112;82;112;f;v;1;f;v;8344.984900000782
71!3yzh;10;False;1;P != T2?;ST1_high_3;1;Same;high;70;96;70;f;v;1;f;v;11272.460100000899
71!3yzh;11;False;1;P != T2?;ST2_high_2;2;Same;high;112;82;82;f;v;0;f;v;2182.270100000096
71!3yzh;12;False;1;P != T2?;STb_2;0;Same;None;70;70;70;f;v;0;f;v;1523.9748999993026
71!3yzh;13;False;1;P != T2?;ST2_high_1;2;Same;high;82;112;112;f;v;0;f;v;1445.1594000001933
71!3yzh;14;False;1;P != T1?;ST2_high_1;2;Same;high;82;112;112;f;v;1;f;v;601.2581000013597
71!3yzh;15;False;1;P != T1?;ST1_high_4;1;Same;high;96;70;96;f;v;0;f;v;2616.4790999991965
71!3yzh;16;False;1;P != T2?;ST2_high_3;2;Same;high;70;96;96;f;v;0;f;v;5784.085200000845
71!3yzh;17;False;1;P != T2?;ST1_low_2;1;Same;low;132;82;132;f;v;1;f;v;5832.878900000651
71!3yzh;18;False;1;P != T2?;STb_6;0;Same;None;132;132;132;f;v;0;f;v;1629.5466999999917
71!3yzh;19;False;1;P != T1?;ST1_low_2;1;Same;low;132;82;132;f;v;0;f;v;1076.6026999990572
71!3yzh;20;False;1;P != T2?;ST2_low_5;2;Same;low;96;154;154;f;v;0;f;v;810.8240000001388
71!3yzh;21;False;1;P != T2?;STb_4;0;Same;None;96;96;96;f;v;0;f;v;469.22909999921103
71!3yzh;22;False;1;P != T1?;ST2_low_2;2;Same;low;132;82;82;f;v;1;f;v;805.471600000601
71!3yzh;23;False;1;P != T1?;ST1_high_5;1;Same;high;96;132;96;f;v;0;f;v;994.8543999998947
71!3yzh;24;False;1;P != T1?;ST1_low_4;1;Same;low;112;70;112;f;v;0;f;v;841.1288999996032
71!3yzh;25;False;1;P != T2?;ST2_low_6;2;Same;low;154;96;96;f;v;0;f;v;2620.261299998674
71!3yzh;26;False;1;P != T2?;ST1_low_3;1;Same;low;70;112;70;f;v;1;f;v;822.7469000012206
71!3yzh;27;False;1;P != T1?;ST1_high_2;1;Same;high;112;82;112;f;v;0;f;v;1238.6059000000387
71!3yzh;28;False;1;P != T1?;ST2_high_1;2;Same;high;82;112;112;f;v;1;f;v;748.4883999986778
71!3yzh;29;False;1;P != T2?;DT2_high_6;2;Different;high;132;96;82;f;v;1;f;v;703.8174999997864
71!3yzh;30;False;1;P != T2?;ST1_high_5;1;Same;high;96;132;96;f;v;1;f;v;5610.177000000476
71!3yzh;31;False;1;P != T1?;STb_4;0;Same;None;96;96;96;f;v;0;f;v;8316.139300000941
71!3yzh;32;False;1;P != T1?;ST2_high_2;2;Same;high;112;82;82;f;v;1;f;v;948.553099999117
71!3yzh;33;False;1;P != T1?;STb_8;0;Same;None;180;180;180;f;v;0;f;v;9175.937100000738
71!3yzh;34;False;1;P != T1?;DT2_low_3;2;Different;low;70;112;132;f;v;1;f;v;1840.748299999177
71!3yzh;35;False;1;P != T1?;ST2_high_3;2;Same;high;70;96;96;f;v;1;f;v;2663.562900001125
71!3yzh;36;False;1;P != T2?;ST2_high_2;2;Same;high;112;82;82;f;v;1;j;v;4704.945100000259
71!3yzh;37;False;1;P != T1?;ST2_high_4;2;Same;high;96;70;70;f;v;0;j;v;3801.3867999998183
71!3yzh;38;False;1;P != T2?;DT2_high_4;2;Different;high;96;70;60;f;v;1;f;v;2273.1077000007645
71!3yzh;39;False;1;P != T1?;ST2_high_4;2;Same;high;96;70;70;f;v;0;j;v;4333.568699999887
71!3yzh;40;False;1;P != T2?;ST1_high_5;1;Same;high;96;132;96;f;v;1;f;b;1541.806799999904
71!3yzh;41;False;1;P != T1?;ST2_low_3;2;Same;low;70;112;112;f;v;0;j;b;2138.0167999996047
71!3yzh;42;False;1;P != T2?;ST1_low_5;1;Same;low;96;154;96;f;v;0;j;v;2329.1606000002503
71!3yzh;43;False;1;P != T2?;ST1_high_6;1;Same;high;132;96;132;f;v;1;f;v;1238.0740999997215
71!3yzh;44;False;1;P != T1?;ST1_low_1;1;Same;low;82;132;82;f;v;0;f;v;1446.5037999998458
71!3yzh;45;False;1;P != T1?;ST2_low_1;2;Same;low;82;132;132;f;v;1;f;v;824.2498999989039
71!3yzh;46;False;1;P != T1?;ST2_low_6;2;Same;low;154;96;96;f;v;1;f;v;1215.8550999993167
71!3yzh;47;False;1;P != T1?;ST1_high_4;1;Same;high;96;70;96;f;v;0;f;v;1405.8030000014696
71!3yzh;48;False;1;P != T2?;ST2_high_3;2;Same;high;70;96;96;f;v;0;f;v;1475.0110000004497
71!3yzh;49;False;1;P != T1?;ST1_high_6;1;Same;high;132;96;132;f;v;0;f;v;1153.0985999997938
71!3yzh;50;False;1;P != T2?;ST2_low_1;2;Same;low;82;132;132;f;v;0;f;v;1393.1161999989854
71!3yzh;51;False;1;P != T1?;ST1_low_2;1;Same;low;132;82;132;f;v;0;f;n;2371.717300000455
71!3yzh;52;False;1;P != T1?;ST2_high_2;2;Same;high;112;82;82;f;v;1;f;v;850.4064999997354
71!3yzh;53;False;1;P != T2?;ST1_low_5;1;Same;low;96;154;96;f;v;1;f;v;3383.799799999906
71!3yzh;54;False;1;P != T1?;ST1_low_6;1;Same;low;154;96;154;f;v;0;f;v;1125.395999999455
71!3yzh;55;False;1;P != T1?;ST1_low_6;1;Same;low;154;96;154;f;v;0;f;v;8798.20479999944
71!3yzh;56;False;1;P != T2?;ST1_low_3;1;Same;low;70;112;70;f;v;0;j;b;9144.16269999856
71!3yzh;57;False;1;P != T1?;ST2_high_5;2;Same;high;96;132;132;f;v;0;j;v;2843.4362999996665
71!3yzh;58;False;1;P != T1?;ST1_low_6;1;Same;low;154;96;154;f;v;0;f;v;1408.8166000001365
71!3yzh;59;False;1;P != T1?;DT1_low_4;1;Different;low;112;70;132;f;v;1;f;v;1943.7301000016305
71!3yzh;60;False;1;P != T2?;ST1_low_6;1;Same;low;154;96;154;f;v;1;f;v;3763.1955000015296
71!3yzh;61;False;1;P != T1?;ST2_high_6;2;Same;high;132;96;96;f;v;1;f;v;864.7135000010167
71!3yzh;62;False;1;P != T2?;ST1_high_1;1;Same;high;82;112;82;f;v;1;f;v;1259.9723000002996
71!3yzh;63;False;1;P != T1?;ST1_high_6;1;Same;high;132;96;132;f;v;0;f;v;1115.1238000002195
71!3yzh;64;False;1;P != T1?;STb_6;0;Same;None;132;132;132;f;v;0;f;v;1007.2971999998117
71!3yzh;65;False;1;P != T2?;ST2_high_5;2;Same;high;96;132;132;f;v;0;f;v;1071.084699999119
71!3yzh;66;False;1;P != T1?;ST2_high_3;2;Same;high;70;96;96;f;v;1;f;v;2692.478899998605
71!3yzh;67;False;1;P != T2?;ST1_low_4;1;Same;low;112;70;112;f;v;0;j;v;5863.504700000703
71!3yzh;68;False;1;P != T2?;DT1_high_2;1;Different;high;112;82;132;f;v;1;f;v;1383.218199998737
71!3yzh;69;False;1;P != T1?;ST1_high_1;1;Same;high;82;112;82;f;v;1;j;v;2519.4025999990117
71!3yzh;70;False;1;P != T2?;ST2_low_5;2;Same;low;96;154;154;f;v;0;f;v;1238.962299999912
71!3yzh;71;False;1;P != T1?;ST1_low_5;1;Same;low;96;154;96;f;v;0;f;v;1000.4656000000978
71!3yzh;72;False;1;P != T1?;ST1_low_5;1;Same;low;96;154;96;f;v;0;f;v;812.4572000015178
71!3yzh;73;False;1;P != T1?;ST2_high_4;2;Same;high;96;70;70;f;v;1;f;v;771.4968999989651
71!3yzh;74;False;1;P != T2?;STb_8;0;Same;None;180;180;180;f;v;0;f;v;151.86539999922388
71!3yzh;75;False;1;P != T2?;DT2_high_1;2;Different;high;82;112;132;f;v;1;f;v;4751.998199999434
71!3yzh;76;False;1;P != T1?;ST2_low_4;2;Same;low;112;70;70;f;v;0;j;v;2197.4424
71!3yzh;77;False;1;P != T1?;STb_7;0;Same;None;154;154;154;f;v;0;f;v;3519.205399999919
71!3yzh;78;False;1;P != T1?;STb_2;0;Same;None;70;70;70;f;v;0;f;v;1731.8310999999085
71!3yzh;79;False;1;P != T2?;ST2_high_6;2;Same;high;132;96;96;f;v;0;f;v;2921.4974000005896
71!3yzh;80;False;1;P != T1?;ST1_high_5;1;Same;high;96;132;96;f;v;0;f;v;1025.9253999993234
71!3yzh;81;False;1;P != T1?;DT1_high_1;1;Different;high;82;112;70;f;v;1;f;v;3818.895700000212
71!3yzh;82;False;1;P != T1?;ST1_high_2;1;Same;high;112;82;112;f;v;0;f;v;790.5088000006799
71!3yzh;83;False;1;P != T2?;ST2_low_3;2;Same;low;70;112;112;f;v;0;f;v;1438.2590000004711
71!3yzh;84;False;1;P != T1?;ST1_low_4;1;Same;low;112;70;112;f;v;0;f;v;499.4260999992548
71!3yzh;85;False;1;P != T2?;ST2_low_2;2;Same;low;132;82;82;f;v;0;f;v;2164.4883999997546
71!3yzh;86;False;1;P != T2?;ST1_high_5;1;Same;high;96;132;96;f;v;1;f;v;1360.4887000001327
71!3yzh;87;False;1;P != T1?;ST1_high_1;1;Same;high;82;112;82;f;v;0;f;v;791.7042000008223
71!3yzh;88;False;1;P != T2?;ST1_high_6;1;Same;high;132;96;132;f;v;0;j;v;3926.3394999998127
71!3yzh;89;False;1;P != T2?;ST1_low_1;1;Same;low;82;132;82;f;v;0;j;v;2804.6802999997453
71!3yzh;90;False;1;P != T1?;ST2_low_4;2;Same;low;112;70;70;f;v;0;j;v;1679.431399999885
71!3yzh;91;False;1;P != T2?;ST2_high_5;2;Same;high;96;132;132;f;v;0;f;v;1109.5953000003647
71!3yzh;92;False;1;P != T2?;ST2_high_4;2;Same;high;96;70;70;f;v;0;f;v;1265.1993999988917
71!3yzh;93;False;1;P != T2?;ST1_low_3;1;Same;low;70;112;70;f;v;0;j;v;2367.9090999994514
71!3yzh;94;False;1;P != T2?;ST1_high_4;1;Same;high;96;70;96;f;v;1;f;v;1912.153600000238
71!3yzh;95;False;1;P != T1?;ST2_low_2;2;Same;low;132;82;82;f;v;0;j;v;1386.1299000000145
71!3yzh;96;False;1;P != T1?;ST1_low_1;1;Same;low;82;132;82;f;v;0;f;v;1655.2694000001793
71!3yzh;97;False;1;P != T1?;ST1_high_1;1;Same;high;82;112;82;f;v;0;f;v;2717.330100000254
71!3yzh;98;False;1;P != T2?;ST1_low_5;1;Same;low;96;154;96;f;v;1;f;v;2678.234099999827
71!3yzh;99;False;1;P != T2?;ST2_low_5;2;Same;low;96;154;154;f;v;0;f;v;1045.3019000015047
71!3yzh;100;False;1;P != T2?;ST2_high_2;2;Same;high;112;82;82;f;v;0;f;v;2513.1562999995367
71!3yzh;101;False;1;P != T2?;ST1_low_1;1;Same;low;82;132;82;f;v;1;f;v;3740.9005999998044
71!3yzh;102;False;1;P != T1?;ST2_low_6;2;Same;low;154;96;96;f;v;1;f;v;12322.713999999905
71!3yzh;103;False;1;P != T1?;ST1_low_3;1;Same;low;70;112;70;f;v;0;f;v;1909.9291000002268
71!3yzh;104;False;1;P != T2?;STb_1;0;Same;None;60;60;60;f;v;0;f;v;1370.7981999996264
71!3yzh;105;False;1;P != T1?;ST2_high_6;2;Same;high;132;96;96;f;v;1;f;v;1565.1172999987466
71!3yzh;106;False;1;P != T1?;STb_3;0;Same;None;82;82;82;f;v;0;f;v;546.0083999987546
71!3yzh;107;False;1;P != T2?;ST1_high_4;1;Same;high;96;70;96;f;v;1;f;v;2196.461499999714
71!3yzh;108;False;1;P != T1?;STb_1;0;Same;None;60;60;60;f;v;0;f;v;2910.6494999996357
71!3yzh;109;False;1;P != T1?;ST2_high_1;2;Same;high;82;112;112;f;v;0;j;v;1317.991300000358
71!3yzh;110;False;1;P != T1?;ST2_high_6;2;Same;high;132;96;96;f;v;0;j;v;849.3058000003657
71!3yzh;111;False;1;P != T2?;ST2_low_4;2;Same;low;112;70;70;f;v;0;f;v;1310.488399998576
71!3yzh;112;False;1;P != T2?;ST2_low_2;2;Same;low;132;82;82;f;v;0;f;v;1232.655400001022
71!3yzh;113;False;1;P != T1?;ST2_high_2;2;Same;high;112;82;82;f;v;1;f;v;470.754299998589
71!3yzh;114;False;1;P != T1?;ST1_high_4;1;Same;high;96;70;96;f;v;1;j;v;1634.652200000346
71!3yzh;115;False;1;P != T1?;DT2_high_5;2;Different;high;96;132;154;f;v;0;j;v;1130.2063999992242
71!3yzh;116;False;1;P != T2?;ST1_high_3;1;Same;high;70;96;70;f;v;0;j;v;3571.071899999879
71!3yzh;117;False;1;P != T1?;ST1_high_3;1;Same;high;70;96;70;f;v;0;f;v;1015.9024999993562
71!3yzh;118;False;1;P != T2?;ST2_low_6;2;Same;low;154;96;96;f;v;0;f;v;1815.5757000004087
71!3yzh;119;False;1;P != T2?;ST1_high_4;1;Same;high;96;70;96;f;v;0;j;v;1228.788500000519
71!3yzh;120;False;1;P != T1?;ST2_low_3;2;Same;low;70;112;112;f;v;0;j;v;955.6042999993224
71!3yzh;121;False;1;P != T2?;ST2_low_6;2;Same;low;154;96;96;f;v;0;f;v;1454.701799999384
71!3yzh;122;False;1;P != T2?;ST1_low_2;1;Same;low;132;82;132;f;v;0;j;v;1858.3409000002575
71!3yzh;123;False;1;P != T2?;ST2_high_4;2;Same;high;96;70;70;f;v;0;f;v;1423.9502000000357
71!3yzh;124;False;1;P != T2?;ST2_low_4;2;Same;low;112;70;70;f;v;0;f;v;1805.3216999996948
71!3yzh;125;False;1;P != T1?;ST2_low_4;2;Same;low;112;70;70;f;v;0;j;b;1438.0897999999434
71!3yzh;126;False;1;P != T2?;ST1_low_4;1;Same;low;112;70;112;f;v;1;f;v;639.7689999994327
71!3yzh;127;False;1;P != T2?;ST2_low_4;2;Same;low;112;70;70;f;v;0;f;v;1182.537599999705
71!3yzh;128;False;1;P != T1?;DT1_high_5;1;Different;high;96;132;82;f;v;0;j;v;3725.975899998957
71!3yzh;129;False;1;P != T2?;ST1_high_2;1;Same;high;112;82;112;f;v;0;j;v;2401.9217000004573
71!3yzh;130;False;1;P != T1?;ST1_low_3;1;Same;low;70;112;70;f;v;0;f;v;1015.6124999994063
71!3yzh;131;False;1;P != T1?;ST1_high_5;1;Same;high;96;132;96;f;v;1;j;v;1252.6851000002353
71!3yzh;132;False;1;P != T1?;DT1_high_6;1;Different;high;132;96;154;f;v;0;j;v;3333.159499999965
71!3yzh;133;False;1;P != T1?;ST1_low_3;1;Same;low;70;112;70;f;v;0;f;v;851.8722999997408
71!3yzh;134;False;1;P != T2?;ST2_low_2;2;Same;low;132;82;82;f;v;1;j;v;3250.3475999983493
71!3yzh;135;False;1;P != T2?;DT2_low_5;2;Different;low;96;154;180;f;v;0;j;b;2637.0712999996613
71!3yzh;136;False;1;P != T2?;ST1_high_6;1;Same;high;132;96;132;f;v;0;j;v;2040.517399998862
71!3yzh;137;False;1;P != T1?;DT2_high_3;2;Different;high;70;96;112;f;v;0;j;v;1100.8695000000444
71!3yzh;138;False;1;P != T2?;ST1_low_4;1;Same;low;112;70;112;f;v;0;j;v;1185.5495999989216
71!3yzh;139;False;1;P != T2?;ST2_high_1;2;Same;high;82;112;112;f;v;0;f;v;3621.6836999992665
71!3yzh;140;False;1;P != T2?;DT1_high_6;1;Different;high;132;96;154;f;v;0;j;v;2922.1524000004138
71!3yzh;141;False;1;P != T2?;ST2_high_6;2;Same;high;132;96;96;f;v;1;j;v;1903.9389999998093
71!3yzh;142;False;1;P != T2?;DT1_high_5;1;Different;high;96;132;82;f;v;0;j;v;945.4867000004015
71!3yzh;143;False;1;P != T1?;ST2_low_5;2;Same;low;96;154;154;f;v;0;j;v;3232.5443999998242
71!3yzh;144;False;1;P != T1?;ST1_low_4;1;Same;low;112;70;112;f;v;1;j;v;914.5544000002701
71!3yzh;145;False;1;P != T1?;ST1_high_6;1;Same;high;132;96;132;f;v;0;f;v;2958.339700000579
71!3yzh;146;False;1;P != T1?;ST1_low_1;1;Same;low;82;132;82;f;v;0;f;v;1125.6026000010024
71!3yzh;147;False;1;P != T1?;ST2_low_6;2;Same;low;154;96;96;f;v;0;j;v;1897.4299999990762
71!3yzh;148;False;1;P != T2?;ST2_high_1;2;Same;high;82;112;112;f;v;0;f;v;2696.911799999725
71!3yzh;149;False;1;P != T1?;STb_5;0;Same;None;112;112;112;f;v;1;j;v;2546.5366000007634
71!3yzh;150;False;1;P != T2?;ST1_low_1;1;Same;low;82;132;82;f;v;0;j;v;1052.3284999999305
71!3yzh;151;False;1;P != T1?;ST2_low_5;2;Same;low;96;154;154;f;v;0;j;v;1049.2012000013347
71!3yzh;152;False;1;P != T1?;ST2_low_1;2;Same;low;82;132;132;f;v;1;f;v;2266.889500000616
71!3yzh;153;False;1;P != T2?;STb_3;0;Same;None;82;82;82;f;v;0;f;v;1258.8214999996126
71!3yzh;154;False;1;P != T1?;ST2_high_5;2;Same;high;96;132;132;f;v;0;j;v;975.7912999994005
71!3yzh;155;False;1;P != T1?;ST1_high_3;1;Same;high;70;96;70;f;v;1;j;v;2234.570700000404
71!3yzh;156;False;1;P != T2?;ST2_low_3;2;Same;low;70;112;112;f;v;0;f;v;1350.1464999990276
71!3yzh;157;False;1;P != T2?;ST2_low_1;2;Same;low;82;132;132;f;v;0;f;v;974.5655000006082
71!3yzh;158;False;1;P != T1?;ST1_high_3;1;Same;high;70;96;70;f;v;0;f;v;1252.0165999994788
71!3yzh;159;False;1;P != T1?;ST2_low_5;2;Same;low;96;154;154;f;v;1;f;v;1575.2661999995325
71!3yzh;160;False;1;P != T2?;ST1_low_6;1;Same;low;154;96;154;f;v;1;f;v;290.8772000009776
71!3yzh;161;False;1;P != T2?;ST1_high_1;1;Same;high;82;112;82;f;v;0;j;v;1829.2511999989074
71!3yzh;162;False;1;P != T1?;ST2_high_5;2;Same;high;96;132;132;f;v;0;j;v;2391.603699999905
71!3yzh;163;False;1;P != T2?;STb_7;0;Same;None;154;154;154;f;v;0;f;v;1087.9529000012553
71!3yzh;164;False;1;P != T2?;STb_5;0;Same;None;112;112;112;f;v;0;f;v;1011.3008999996964
71!3yzh;165;False;1;P != T1?;ST2_low_3;2;Same;low;70;112;112;f;v;0;j;v;1534.2323000004399
71!3yzh;166;False;1;P != T2?;DT2_high_3;2;Different;high;70;96;112;f;v;0;j;v;4033.902700000908
71!3yzh;167;False;1;P != T2?;ST1_low_6;1;Same;low;154;96;154;f;v;1;f;v;1215.6396000009408
71!3yzh;168;False;1;P != T1?;ST2_low_1;2;Same;low;82;132;132;f;v;1;f;v;2708.6245999998937
71!3yzh;169;False;1;P != T1?;ST1_low_5;1;Same;low;96;154;96;f;v;0;f;v;1012.2495999985404
71!3yzh;170;False;1;P != T2?;ST1_low_2;1;Same;low;132;82;132;f;v;1;f;v;1677.6633000008587
71!3yzh;171;False;1;P != T1?;ST2_high_3;2;Same;high;70;96;96;f;v;1;f;v;1908.0331000004662
71!3yzh;172;False;1;P != T2?;ST1_high_1;1;Same;high;82;112;82;f;v;0;j;v;2072.9709999995976
71!3yzh;173;False;1;P != T2?;ST1_high_3;1;Same;high;70;96;70;f;v;0;j;v;2213.6243999993894
71!3yzh;174;False;1;P != T1?;ST1_high_2;1;Same;high;112;82;112;f;v;1;j;v;1395.9475999999995
71!3yzh;175;False;1;P != T2?;ST2_low_3;2;Same;low;70;112;112;f;v;0;f;v;2314.084699999512
71!3yzh;176;False;1;P != T2?;ST1_high_2;1;Same;high;112;82;112;f;v;1;f;v;2538.987999998426
71!3yzh;1;True;2;P = T1?;DT1_high_5;1;Different;high;96;132;82;f;v;1;j;v;3746.348799999396
71!3yzh;2;True;2;P = T1?;STb_7;0;Same;None;154;154;154;f;v;0;j;v;1069.6711000000505
71!3yzh;3;True;2;P = T1?;DT1_low_2;1;Different;low;132;82;154;f;v;1;j;v;1005.1105000002281
71!3yzh;4;True;2;P = T2?;ST2_low_1;2;Same;low;82;132;132;f;v;0;j;v;1189.1703999990568
71!3yzh;5;True;2;P = T2?;ST2_high_5;2;Same;high;96;132;132;f;v;0;j;v;1030.0470999991376
71!3yzh;6;True;2;P = T2?;ST1_low_6;1;Same;low;154;96;154;f;v;0;f;v;2729.0078999994876
71!3yzh;7;True;2;P = T2?;ST1_high_5;1;Same;high;96;132;96;f;v;0;f;v;1033.2957999999053
71!3yzh;8;True;2;P = T2?;STb_6;0;Same;None;132;132;132;f;v;0;j;v;532.4841999990895
71!3yzh;9;True;2;P = T1?;ST2_high_1;2;Same;high;82;112;112;f;v;1;j;v;1323.82570000118
71!3yzh;10;True;2;P = T2?;DT1_low_3;1;Different;low;70;112;60;f;v;0;f;v;615.5831999985821
71!3yzh;11;True;2;P = T1?;ST1_low_3;1;Same;low;70;112;70;f;v;0;j;v;799.5159999991301
71!3yzh;12;True;2;P = T2?;DT2_low_3;2;Different;low;70;112;132;f;v;1;j;v;808.7481000002299
71!3yzh;13;True;2;P = T2?;STb_1;0;Same;None;60;60;60;f;v;0;j;v;492.5242999997863
71!3yzh;14;True;2;P = T1?;ST1_high_6;1;Same;high;132;96;132;f;v;0;j;v;1064.2815999999584
71!3yzh;15;True;2;P = T1?;STb_6;0;Same;None;132;132;132;f;v;0;j;v;632.0183999996516
71!3yzh;16;True;2;P = T1?;ST2_high_3;2;Same;high;70;96;96;f;v;1;j;v;738.7529000006907
71!3yzh;1;False;2;P = T2?;ST1_low_2;1;Same;low;132;82;132;f;v;0;f;v;1243.730800000776
71!3yzh;2;False;2;P = T2?;ST1_high_1;1;Same;high;82;112;82;f;v;1;j;v;626.7860999996628
71!3yzh;3;False;2;P = T2?;DT2_high_6;2;Different;high;132;96;82;f;v;1;j;v;487.9559999990306
71!3yzh;4;False;2;P = T2?;ST1_high_2;1;Same;high;112;82;112;f;v;1;j;v;474.71260000020266
71!3yzh;5;False;2;P = T2?;ST2_low_2;2;Same;low;132;82;82;f;v;0;j;v;344.725599999947
71!3yzh;6;False;2;P = T2?;DT2_low_2;2;Different;low;132;82;70;f;v;0;f;v;2052.7767999992648
71!3yzh;7;False;2;P = T1?;ST1_low_6;1;Same;low;154;96;154;f;v;1;f;v;1126.1606000007305
71!3yzh;8;False;2;P = T2?;ST1_high_1;1;Same;high;82;112;82;f;v;0;f;v;2838.8130000003002
71!3yzh;9;False;2;P = T1?;ST2_low_3;2;Same;low;70;112;112;f;v;0;f;v;875.3333000004204
71!3yzh;10;False;2;P = T1?;ST2_high_6;2;Same;high;132;96;96;f;v;1;j;v;1094.4675999999163
71!3yzh;11;False;2;P = T2?;ST2_low_1;2;Same;low;82;132;132;f;v;0;j;v;902.8257999998459
71!3yzh;12;False;2;P = T1?;ST2_high_1;2;Same;high;82;112;112;f;v;0;f;v;1432.9013999995368
71!3yzh;13;False;2;P = T2?;ST2_high_2;2;Same;high;112;82;82;f;v;0;j;v;445.94279999910214
71!3yzh;14;False;2;P = T2?;ST1_high_4;1;Same;high;96;70;96;f;v;1;j;v;1280.012400000487
71!3yzh;15;False;2;P = T2?;ST1_low_6;1;Same;low;154;96;154;f;v;1;j;v;386.72070000029635
71!3yzh;16;False;2;P = T1?;ST1_high_1;1;Same;high;82;112;82;f;v;0;j;v;898.1789999998
71!3yzh;17;False;2;P = T2?;DT2_high_1;2;Different;high;82;112;132;f;v;1;j;v;964.1264999991108
71!3yzh;18;False;2;P = T1?;STb_8;0;Same;None;180;180;180;f;v;1;f;v;964.0235000006214
71!3yzh;19;False;2;P = T1?;STb_3;0;Same;None;82;82;82;f;v;1;f;v;764.6420000000944
71!3yzh;20;False;2;P = T2?;ST1_high_5;1;Same;high;96;132;96;f;v;0;f;v;1147.4212000011903
71!3yzh;21;False;2;P = T1?;ST2_high_4;2;Same;high;96;70;70;f;v;0;f;v;741.3172000015038
71!3yzh;22;False;2;P = T2?;ST1_high_5;1;Same;high;96;132;96;f;v;0;f;v;2869.706399998904
71!3yzh;23;False;2;P = T1?;ST2_high_2;2;Same;high;112;82;82;f;v;0;f;v;936.6973000014696
71!3yzh;24;False;2;P = T1?;ST1_low_3;1;Same;low;70;112;70;f;v;0;j;v;2253.4544999998616
71!3yzh;25;False;2;P = T2?;ST1_low_4;1;Same;low;112;70;112;f;v;0;f;v;963.2677000008698
71!3yzh;26;False;2;P = T2?;ST2_high_6;2;Same;high;132;96;96;f;v;1;f;v;3176.992300001075
71!3yzh;27;False;2;P = T1?;ST1_high_2;1;Same;high;112;82;112;f;v;0;j;v;444.209299999784
71!3yzh;28;False;2;P = T1?;DT2_low_1;2;Different;low;82;132;154;f;v;0;f;v;1771.3179000002128
71!3yzh;29;False;2;P = T2?;ST2_high_5;2;Same;high;96;132;132;f;v;1;f;n;1405.1411999989796
71!3yzh;30;False;2;P = T1?;ST2_high_5;2;Same;high;96;132;132;f;v;1;j;v;2114.1040999991674
71!3yzh;31;False;2;P = T2?;ST2_high_4;2;Same;high;96;70;70;f;v;0;j;v;1895.014200001242
71!3yzh;32;False;2;P = T2?;ST1_low_5;1;Same;low;96;154;96;f;v;1;j;v;493.25599999974656
71!3yzh;33;False;2;P = T1?;ST2_high_3;2;Same;high;70;96;96;f;v;0;f;v;1070.5214999998134
71!3yzh;34;False;2;P = T1?;ST1_low_1;1;Same;low;82;132;82;f;v;0;j;v;790.5083000005106
71!3yzh;35;False;2;P = T2?;ST1_low_3;1;Same;low;70;112;70;f;v;1;j;v;1813.259200000175
71!3yzh;36;False;2;P = T2?;ST2_low_3;2;Same;low;70;112;112;f;v;0;j;v;437.7242999998998
71!3yzh;37;False;2;P = T2?;ST2_low_5;2;Same;low;96;154;154;f;v;0;j;v;801.6440000010334
71!3yzh;38;False;2;P = T2?;ST2_high_5;2;Same;high;96;132;132;f;v;0;j;v;2302.3511999999755
71!3yzh;39;False;2;P = T1?;ST1_high_6;1;Same;high;132;96;132;f;v;0;j;v;404.6051000004809
71!3yzh;40;False;2;P = T1?;DT1_low_3;1;Different;low;70;112;60;f;v;1;j;v;931.2553000017942
71!3yzh;41;False;2;P = T2?;ST2_high_4;2;Same;high;96;70;70;f;v;0;j;v;835.0645000009536
71!3yzh;42;False;2;P = T2?;ST2_high_2;2;Same;high;112;82;82;f;v;0;j;v;460.9063000007154
71!3yzh;43;False;2;P = T2?;ST2_low_2;2;Same;low;132;82;82;f;v;0;j;v;459.83800000067276
71!3yzh;44;False;2;P = T2?;ST1_high_4;1;Same;high;96;70;96;f;v;0;f;v;798.6318999992363
71!3yzh;45;False;2;P = T2?;STb_5;0;Same;None;112;112;112;f;v;0;j;v;433.34500000128173
71!3yzh;46;False;2;P = T1?;ST2_high_4;2;Same;high;96;70;70;f;v;0;f;v;751.6209999994317
71!3yzh;47;False;2;P = T1?;DT1_high_4;1;Different;high;96;70;112;f;v;1;j;v;1136.8972999989637
71!3yzh;48;False;2;P = T1?;ST1_low_6;1;Same;low;154;96;154;f;v;0;j;v;1828.1322999991971
71!3yzh;49;False;2;P = T1?;ST2_high_5;2;Same;high;96;132;132;f;v;0;f;v;1581.8519999993441
71!3yzh;50;False;2;P = T1?;ST1_low_5;1;Same;low;96;154;96;f;v;1;f;v;1071.3486000004195
71!3yzh;51;False;2;P = T1?;STb_5;0;Same;None;112;112;112;f;v;1;f;v;787.2368999996979
71!3yzh;52;False;2;P = T2?;ST2_high_3;2;Same;high;70;96;96;f;v;0;j;v;1366.6286000006949
71!3yzh;53;False;2;P = T2?;ST2_low_1;2;Same;low;82;132;132;f;v;0;j;v;449.44529999884253
71!3yzh;54;False;2;P = T1?;ST1_high_5;1;Same;high;96;132;96;f;v;1;f;v;722.8780999994342
71!3yzh;55;False;2;P = T1?;ST1_high_3;1;Same;high;70;96;70;f;v;0;j;v;517.1475999995891
71!3yzh;56;False;2;P = T1?;ST1_low_2;1;Same;low;132;82;132;f;v;0;j;v;1469.0384999994421
71!3yzh;57;False;2;P = T1?;ST1_high_4;1;Same;high;96;70;96;f;v;0;j;v;524.0326000002824
71!3yzh;58;False;2;P = T1?;STb_1;0;Same;None;60;60;60;f;v;1;f;v;676.0730999994848
71!3yzh;59;False;2;P = T1?;ST1_low_2;1;Same;low;132;82;132;f;v;0;j;v;893.2286999988719
71!3yzh;60;False;2;P = T2?;ST2_high_1;2;Same;high;82;112;112;f;v;0;j;v;619.7224999996251
71!3yzh;61;False;2;P = T1?;ST1_low_4;1;Same;low;112;70;112;f;v;1;f;v;667.3439000005601
71!3yzh;62;False;2;P = T1?;ST1_high_3;1;Same;high;70;96;70;f;v;0;j;v;455.9489000002941
71!3yzh;63;False;2;P = T2?;ST2_low_2;2;Same;low;132;82;82;f;v;0;j;v;390.61749999927997
71!3yzh;64;False;2;P = T2?;ST1_low_6;1;Same;low;154;96;154;f;v;0;f;v;626.0775999999169
71!3yzh;65;False;2;P = T1?;ST1_high_3;1;Same;high;70;96;70;f;v;0;j;v;279.5712999995885
71!3yzh;66;False;2;P = T1?;ST2_high_5;2;Same;high;96;132;132;f;v;1;j;v;2892.465299999458
71!3yzh;67;False;2;P = T2?;ST1_low_1;1;Same;low;82;132;82;f;v;0;f;v;800.844600000346
71!3yzh;68;False;2;P = T1?;ST2_low_1;2;Same;low;82;132;132;f;v;0;f;n;826.3356000006752
71!3yzh;69;False;2;P = T2?;ST1_high_6;1;Same;high;132;96;132;f;v;0;f;v;814.3626999990374
71!3yzh;70;False;2;P = T2?;ST1_low_1;1;Same;low;82;132;82;f;v;0;f;v;823.9950999995926
71!3yzh;71;False;2;P = T1?;ST2_low_5;2;Same;low;96;154;154;f;v;0;f;v;704.1048000010051
71!3yzh;72;False;2;P = T1?;ST2_low_3;2;Same;low;70;112;112;f;v;0;f;v;2563.8476999993145
71!3yzh;73;False;2;P = T1?;ST1_low_1;1;Same;low;82;132;82;f;v;0;j;v;1190.3464000006352
71!3yzh;74;False;2;P = T2?;STb_4;0;Same;None;96;96;96;f;v;0;j;v;1762.658999999985
71!3yzh;75;False;2;P = T2?;ST1_low_1;1;Same;low;82;132;82;f;v;0;f;v;828.9375999993354
71!3yzh;76;False;2;P = T1?;ST1_low_3;1;Same;low;70;112;70;f;v;0;j;v;531.4982999989297
71!3yzh;77;False;2;P = T1?;ST2_low_4;2;Same;low;112;70;70;f;v;0;f;v;790.8901999999216
71!3yzh;78;False;2;P = T2?;ST2_low_5;2;Same;low;96;154;154;f;v;0;j;v;497.05809999977646
71!3yzh;79;False;2;P = T1?;ST1_high_5;1;Same;high;96;132;96;f;v;0;j;v;562.7652000002854
71!3yzh;80;False;2;P = T1?;ST1_low_3;1;Same;low;70;112;70;f;v;0;j;v;2437.7096999996866
71!3yzh;81;False;2;P = T1?;ST2_low_2;2;Same;low;132;82;82;f;v;0;f;v;741.23900000086
71!3yzh;82;False;2;P = T2?;ST2_low_4;2;Same;low;112;70;70;f;v;0;j;v;821.9872999998188
71!3yzh;83;False;2;P = T2?;STb_1;0;Same;None;60;60;60;f;v;0;j;v;434.73939999967115
71!3yzh;84;False;2;P = T1?;ST2_low_6;2;Same;low;154;96;96;f;v;1;j;v;524.395700000241
71!3yzh;85;False;2;P = T2?;ST2_low_4;2;Same;low;112;70;70;f;v;0;j;v;518.1015999987721
71!3yzh;86;False;2;P = T1?;DT2_low_6;2;Different;low;154;96;82;f;v;0;f;v;956.6353000009258
71!3yzh;87;False;2;P = T2?;ST1_low_2;1;Same;low;132;82;132;f;v;0;f;v;756.848799999716
71!3yzh;88;False;2;P = T1?;ST2_low_2;2;Same;low;132;82;82;f;v;0;f;v;637.8574999998818
71!3yzh;89;False;2;P = T1?;STb_2;0;Same;None;70;70;70;f;v;0;j;v;479.1341000000102
71!3yzh;90;False;2;P = T1?;ST1_low_1;1;Same;low;82;132;82;f;v;0;j;v;623.2388000007631
71!3yzh;91;False;2;P = T1?;ST2_low_1;2;Same;low;82;132;132;f;v;1;j;v;450.3731000004336
71!3yzh;92;False;2;P = T1?;ST2_high_6;2;Same;high;132;96;96;f;v;0;f;v;941.5977999997267
71!3yzh;93;False;2;P = T2?;ST2_low_6;2;Same;low;154;96;96;f;v;0;j;v;1093.8860000005661
71!3yzh;94;False;2;P = T1?;DT2_low_3;2;Different;low;70;112;132;f;v;0;f;v;2332.3199000005843
71!3yzh;95;False;2;P = T1?;ST2_low_6;2;Same;low;154;96;96;f;v;1;j;v;2488.876999999775
71!3yzh;96;False;2;P = T2?;STb_8;0;Same;None;180;180;180;f;v;0;j;v;287.95569999965664
71!3yzh;97;False;2;P = T1?;DT1_low_5;1;Different;low;96;154;82;f;v;0;f;v;2028.864199999589
71!3yzh;98;False;2;P = T1?;ST1_high_6;1;Same;high;132;96;132;f;v;0;j;v;501.1061000004702
71!3yzh;99;False;2;P = T1?;ST1_high_1;1;Same;high;82;112;82;f;v;0;j;v;379.41549999959534
71!3yzh;100;False;2;P = T2?;DT2_low_3;2;Different;low;70;112;132;f;v;0;f;v;878.8380000005418
71!3yzh;101;False;2;P = T1?;ST1_low_6;1;Same;low;154;96;154;f;v;0;j;v;499.03679999988526
71!3yzh;102;False;2;P = T1?;ST2_high_4;2;Same;high;96;70;70;f;v;0;f;v;816.4222999985213
71!3yzh;103;False;2;P = T2?;STb_3;0;Same;None;82;82;82;f;v;0;j;v;317.6314000011189
71!3yzh;104;False;2;P = T2?;ST2_high_2;2;Same;high;112;82;82;f;v;0;j;v;530.2100999997492
71!3yzh;105;False;2;P = T1?;ST1_low_2;1;Same;low;132;82;132;f;v;0;j;v;470.26390000064566
71!3yzh;106;False;2;P = T1?;DT2_high_3;2;Different;high;70;96;112;f;v;0;f;v;588.8381000004301
71!3yzh;107;False;2;P = T2?;ST1_low_5;1;Same;low;96;154;96;f;v;0;f;v;2563.0163999994693
71!3yzh;108;False;2;P = T2?;ST1_high_2;1;Same;high;112;82;112;f;v;1;j;v;2072.290099999009
71!3yzh;109;False;2;P = T2?;ST2_high_6;2;Same;high;132;96;96;f;v;0;j;v;3459.3614999994315
71!3yzh;110;False;2;P = T1?;ST1_high_2;1;Same;high;112;82;112;f;v;0;j;v;3568.874300000971
71!3yzh;111;False;2;P = T1?;ST1_low_4;1;Same;low;112;70;112;f;v;1;f;v;1534.5735000009881
71!3yzh;112;False;2;P = T1?;ST2_high_1;2;Same;high;82;112;112;f;v;0;f;v;681.0709000001225
71!3yzh;113;False;2;P = T1?;ST2_high_2;2;Same;high;112;82;82;f;v;0;f;v;683.9184000000387
71!3yzh;114;False;2;P = T1?;ST2_low_1;2;Same;low;82;132;132;f;v;0;f;v;1899.7890999999072
71!3yzh;115;False;2;P = T1?;ST1_low_5;1;Same;low;96;154;96;f;v;0;j;v;415.9449999988283
71!3yzh;116;False;2;P = T1?;ST2_high_1;2;Same;high;82;112;112;f;v;0;f;v;968.6340999996901
71!3yzh;117;False;2;P = T2?;ST2_high_4;2;Same;high;96;70;70;f;v;0;j;v;1787.0356000003085
71!3yzh;118;False;2;P = T2?;ST1_low_4;1;Same;low;112;70;112;f;v;1;j;v;309.0926999993826
71!3yzh;119;False;2;P = T1?;ST1_high_4;1;Same;high;96;70;96;f;v;0;j;v;364.56509999879927
71!3yzh;120;False;2;P = T1?;ST1_high_5;1;Same;high;96;132;96;f;v;1;f;v;1879.7380999985762
71!3yzh;121;False;2;P = T2?;STb_7;0;Same;None;154;154;154;f;v;0;j;v;510.55489999998827
71!3yzh;122;False;2;P = T1?;STb_4;0;Same;None;96;96;96;f;v;0;j;v;935.0166999993235
71!3yzh;123;False;2;P = T2?;DT1_low_4;1;Different;low;112;70;132;f;v;0;f;v;721.1915999996563
71!3yzh;124;False;2;P = T2?;ST2_low_4;2;Same;low;112;70;70;f;v;0;j;v;403.1622000002244
71!3yzh;125;False;2;P = T1?;ST1_high_4;1;Same;high;96;70;96;f;v;1;f;v;1784.4930999999633
71!3yzh;126;False;2;P = T2?;ST2_low_6;2;Same;low;154;96;96;f;v;0;j;v;438.1073999993532
71!3yzh;127;False;2;P = T2?;ST1_high_3;1;Same;high;70;96;70;f;v;1;j;v;1389.5348999994894
71!3yzh;128;False;2;P = T1?;ST2_low_4;2;Same;low;112;70;70;f;v;0;f;v;783.4763999999268
71!3yzh;129;False;2;P = T1?;ST2_low_3;2;Same;low;70;112;112;f;v;1;j;v;1576.609699999608
71!3yzh;130;False;2;P = T2?;ST2_high_1;2;Same;high;82;112;112;f;v;0;j;v;356.36089999934484
71!3yzh;131;False;2;P = T2?;ST2_low_3;2;Same;low;70;112;112;f;v;0;j;v;600.2760000010312
71!3yzh;132;False;2;P = T2?;ST2_low_5;2;Same;low;96;154;154;f;v;0;j;v;417.2278999994887
71!3yzh;133;False;2;P = T2?;ST1_high_6;1;Same;high;132;96;132;f;v;0;f;v;800.9831999988819
71!3yzh;134;False;2;P = T1?;STb_6;0;Same;None;132;132;132;f;v;1;f;v;857.9348000002938
71!3yzh;135;False;2;P = T2?;ST1_high_5;1;Same;high;96;132;96;f;v;0;f;v;1289.2202000002726
71!3yzh;136;False;2;P = T2?;ST1_high_3;1;Same;high;70;96;70;f;v;1;j;v;1163.0402999999205
71!3yzh;137;False;2;P = T2?;ST2_high_5;2;Same;high;96;132;132;f;v;0;j;v;942.4324999999953
71!3yzh;138;False;2;P = T1?;ST2_low_5;2;Same;low;96;154;154;f;v;0;f;v;1138.59070000035
71!3yzh;139;False;2;P = T2?;ST1_low_3;1;Same;low;70;112;70;f;v;0;f;v;7158.541000000696
71!3yzh;140;False;2;P = T2?;ST2_high_1;2;Same;high;82;112;112;f;v;0;j;v;422.4785000005795
71!3yzh;141;False;2;P = T1?;ST2_low_5;2;Same;low;96;154;154;f;v;1;j;v;485.67890000049374
71!3yzh;142;False;2;P = T2?;ST1_high_6;1;Same;high;132;96;132;f;v;1;j;v;862.5359999987268
71!3yzh;143;False;2;P = T1?;DT2_low_2;2;Different;low;132;82;70;f;v;1;j;v;297.3777999995946
71!3yzh;144;False;2;P = T2?;ST1_low_2;1;Same;low;132;82;132;f;v;0;f;v;1746.7768999995315
71!3yzh;145;False;2;P = T1?;ST1_low_4;1;Same;low;112;70;112;f;v;0;j;v;930.4641999988235
71!3yzh;146;False;2;P = T2?;ST1_high_2;1;Same;high;112;82;112;f;v;1;j;v;526.9337999998243
71!3yzh;147;False;2;P = T2?;ST2_low_6;2;Same;low;154;96;96;f;v;0;j;v;926.4347000007547
71!3yzh;148;False;2;P = T1?;ST1_high_2;1;Same;high;112;82;112;f;v;0;j;v;4367.91009999979
71!3yzh;149;False;2;P = T1?;STb_7;0;Same;None;154;154;154;f;v;1;f;v;2043.1334000004426
71!3yzh;150;False;2;P = T2?;ST2_low_1;2;Same;low;82;132;132;f;v;0;j;v;438.9722999985679
71!3yzh;151;False;2;P = T2?;STb_2;0;Same;None;70;70;70;f;v;0;j;v;574.6233999998367
71!3yzh;152;False;2;P = T2?;DT1_low_2;1;Different;low;132;82;154;f;v;0;f;v;3027.1890999993047
71!3yzh;153;False;2;P = T2?;STb_6;0;Same;None;132;132;132;f;v;0;j;v;403.7855999995372
71!3yzh;154;False;2;P = T1?;ST2_high_3;2;Same;high;70;96;96;f;v;1;j;v;525.4664000003686
71!3yzh;155;False;2;P = T2?;ST1_high_4;1;Same;high;96;70;96;f;v;1;j;v;395.08089999981166
71!3yzh;156;False;2;P = T1?;ST2_low_4;2;Same;low;112;70;70;f;v;0;f;v;876.0476999996172
71!3yzh;157;False;2;P = T1?;ST2_low_6;2;Same;low;154;96;96;f;v;0;f;v;1935.0087000002532
71!3yzh;158;False;2;P = T1?;ST2_low_2;2;Same;low;132;82;82;f;v;1;j;v;411.7521999996825
71!3yzh;159;False;2;P = T2?;ST2_low_3;2;Same;low;70;112;112;f;v;0;j;v;444.21089999923424
71!3yzh;160;False;2;P = T1?;ST1_low_5;1;Same;low;96;154;96;f;v;0;j;v;406.498800000918
71!3yzh;161;False;2;P = T1?;ST1_high_6;1;Same;high;132;96;132;f;v;0;j;v;314.17230000079144
71!3yzh;162;False;2;P = T2?;ST1_low_6;1;Same;low;154;96;154;f;v;1;j;v;403.85280000009516
71!3yzh;163;False;2;P = T2?;ST2_high_3;2;Same;high;70;96;96;f;v;0;j;v;372.3026999996364
71!3yzh;164;False;2;P = T1?;ST2_high_2;2;Same;high;112;82;82;f;v;0;f;v;487.86719999952766
71!3yzh;165;False;2;P = T2?;ST1_low_5;1;Same;low;96;154;96;f;v;0;f;v;686.5779999989172
71!3yzh;166;False;2;P = T1?;ST2_high_3;2;Same;high;70;96;96;f;v;1;j;v;325.5405999989307
71!3yzh;167;False;2;P = T2?;DT1_high_4;1;Different;high;96;70;112;f;v;0;f;v;505.7053000000451
71!3yzh;168;False;2;P = T2?;ST1_high_3;1;Same;high;70;96;70;f;v;0;f;v;667.6243000001705
71!3yzh;169;False;2;P = T1?;ST1_high_1;1;Same;high;82;112;82;f;v;0;j;v;690.998000000036
71!3yzh;170;False;2;P = T2?;ST1_high_1;1;Same;high;82;112;82;f;v;1;j;v;498.34109999937937
71!3yzh;171;False;2;P = T2?;DT1_low_6;1;Different;low;154;96;180;f;v;0;f;v;585.3940999986662
71!3yzh;172;False;2;P = T1?;ST2_high_6;2;Same;high;132;96;96;f;v;0;f;v;1813.3140000009007
71!3yzh;173;False;2;P = T2?;ST1_low_3;1;Same;low;70;112;70;f;v;0;f;v;2963.7170000005426
71!3yzh;174;False;2;P = T2?;ST2_high_6;2;Same;high;132;96;96;f;v;0;j;v;570.0954999992973
71!3yzh;175;False;2;P = T2?;ST2_high_3;2;Same;high;70;96;96;f;v;0;j;v;440.9820999990188
71!3yzh;176;False;2;P = T2?;ST1_low_4;1;Same;low;112;70;112;f;v;1;j;v;2807.805399999779
