p_code;trial_nr;practice;block;question;condition;seqPos;Same_or_Diff;ITS;T1_hz;T2_hz;P_hz;yes_key;sure_key;correct;yes_no;rating;resp_time
m#0bl47;1;True;1;P = T2?;ST1_high_3;1;Same;high;70;96;70;j;n;0;j;v;9165.06240000308
m#0bl47;2;True;1;P = T2?;DT1_high_1;1;Different;high;82;112;70;j;n;1;f;v;22638.18579999497
m#0bl47;3;True;1;P = T2?;STb_5;0;Same;None;112;112;112;j;n;0;f;v;3573.3944000094198
m#0bl47;4;True;1;P = T1?;ST2_high_5;2;Same;high;96;132;132;j;n;0;j;n;3713.4172999940347
m#0bl47;5;True;1;P = T1?;ST2_low_3;2;Same;low;70;112;112;j;n;0;j;b;6259.060900003533
m#0bl47;6;True;1;P = T1?;DT1_high_2;1;Different;high;112;82;132;j;n;1;f;b;4964.650099995197
m#0bl47;7;True;1;P = T2?;STb_4;0;Same;None;96;96;96;j;n;1;j;b;2159.8494999925606
m#0bl47;8;True;1;P = T2?;ST2_low_2;2;Same;low;132;82;82;j;n;0;f;b;3005.937299996731
m#0bl47;9;True;1;P = T1?;ST1_high_5;1;Same;high;96;132;96;j;n;0;f;b;3089.4241999922087
m#0bl47;10;True;1;P = T1?;DT2_high_2;2;Different;high;112;82;70;j;n;0;j;v;7544.03839999577
m#0bl47;11;True;1;P = T2?;ST2_high_3;2;Same;high;70;96;96;j;n;0;f;b;6865.312199995969
m#0bl47;12;True;1;P = T1?;ST1_high_6;1;Same;high;132;96;132;j;n;0;f;b;7890.877900004853
m#0bl47;13;True;1;P = T2?;ST1_low_3;1;Same;low;70;112;70;j;n;0;j;b;5029.508799998439
m#0bl47;14;True;1;P = T2?;DT2_high_3;2;Different;high;70;96;112;j;n;0;j;b;6251.743900007568
m#0bl47;15;True;1;P = T1?;STb_1;0;Same;None;60;60;60;j;n;0;f;b;5581.444099996588
m#0bl47;16;True;1;P = T1?;STb_4;0;Same;None;96;96;96;j;n;0;f;b;4164.316099995631
p_code;trial_nr;practice;block;question;condition;seqPos;Same_or_Diff;ITS;T1_hz;T2_hz;P_hz;yes_key;sure_key;correct;yes_no;rating;resp_time
m#0bl47;1;False;1;P = T1?;ST1_high_3;1;Same;high;70;96;70;j;n;0;f;b;48663.87819999363
m#0bl47;2;False;1;P = T2?;ST2_low_2;2;Same;low;132;82;82;j;n;0;f;v;16510.1902000024
m#0bl47;3;False;1;P = T1?;ST2_low_5;2;Same;low;96;154;154;j;n;1;f;b;1875.6589999975404
m#0bl47;4;False;1;P = T1?;ST1_low_2;1;Same;low;132;82;132;j;n;0;f;b;4306.905699995696
m#0bl47;5;False;1;P = T1?;ST2_high_3;2;Same;high;70;96;96;j;n;1;f;v;5201.164199999766
m#0bl47;6;False;1;P = T1?;ST2_low_5;2;Same;low;96;154;154;j;n;0;j;b;3238.427300006151
m#0bl47;7;False;1;P = T1?;DT1_low_6;1;Different;low;154;96;180;j;n;1;f;b;5567.5888000114355
m#0bl47;8;False;1;P = T2?;ST1_low_5;1;Same;low;96;154;96;j;n;0;j;n;5590.545800005202
m#0bl47;9;False;1;P = T2?;ST1_low_1;1;Same;low;82;132;82;j;n;0;j;n;7067.517699993914
m#0bl47;10;False;1;P = T1?;ST1_low_3;1;Same;low;70;112;70;j;n;0;f;v;7900.768899999093
m#0bl47;11;False;1;P = T1?;DT1_low_4;1;Different;low;112;70;132;j;n;0;j;v;8098.259400008828
m#0bl47;12;False;1;P = T2?;ST1_low_2;1;Same;low;132;82;132;j;n;0;j;b;4567.519499993068
m#0bl47;13;False;1;P = T2?;ST1_low_3;1;Same;low;70;112;70;j;n;0;j;n;4126.358299996355
m#0bl47;14;False;1;P = T2?;ST1_high_4;1;Same;high;96;70;96;j;n;1;f;n;2890.018099991721
m#0bl47;15;False;1;P = T2?;ST1_low_4;1;Same;low;112;70;112;j;n;1;f;v;2664.965400006622
m#0bl47;16;False;1;P = T1?;STb_3;0;Same;None;82;82;82;j;n;0;f;v;10270.642699993914
m#0bl47;17;False;1;P = T1?;DT1_low_5;1;Different;low;96;154;82;j;n;1;f;n;2090.303800010588
m#0bl47;18;False;1;P = T2?;ST1_low_5;1;Same;low;96;154;96;j;n;0;j;b;4520.362600000226
m#0bl47;19;False;1;P = T2?;ST2_low_4;2;Same;low;112;70;70;j;n;1;j;b;10023.41000000888
m#0bl47;20;False;1;P = T1?;ST2_high_5;2;Same;high;96;132;132;j;n;0;j;b;7153.3740000013495
m#0bl47;21;False;1;P = T1?;ST1_high_2;1;Same;high;112;82;112;j;n;0;f;n;1818.0156999878818
m#0bl47;22;False;1;P = T1?;ST1_low_1;1;Same;low;82;132;82;j;n;1;j;v;5066.521700005978
m#0bl47;23;False;1;P = T1?;ST1_low_5;1;Same;low;96;154;96;j;n;0;f;n;9001.94799999008
m#0bl47;24;False;1;P = T2?;ST1_low_3;1;Same;low;70;112;70;j;n;0;j;n;4794.9171000072965
m#0bl47;25;False;1;P = T2?;ST2_high_1;2;Same;high;82;112;112;j;n;1;j;v;3515.961700002663
m#0bl47;26;False;1;P = T1?;STb_8;0;Same;None;180;180;180;j;n;0;f;b;3553.617400000803
m#0bl47;27;False;1;P = T2?;STb_1;0;Same;None;60;60;60;j;n;0;f;b;5083.673700006329
m#0bl47;28;False;1;P = T1?;STb_4;0;Same;None;96;96;96;j;n;1;j;v;4323.499199992511
m#0bl47;29;False;1;P = T2?;ST2_low_4;2;Same;low;112;70;70;j;n;0;f;n;2381.7673999874387
m#0bl47;30;False;1;P = T2?;ST2_low_3;2;Same;low;70;112;112;j;n;0;f;n;2105.946900002891
m#0bl47;31;False;1;P = T2?;STb_6;0;Same;None;132;132;132;j;n;0;f;b;2450.3631999978097
m#0bl47;32;False;1;P = T2?;ST2_high_4;2;Same;high;96;70;70;j;n;0;f;v;2163.0421000008937
m#0bl47;33;False;1;P = T1?;STb_2;0;Same;None;70;70;70;j;n;1;j;v;3497.676099999808
m#0bl47;34;False;1;P = T2?;ST1_low_6;1;Same;low;154;96;154;j;n;0;j;b;2252.1315999911167
m#0bl47;35;False;1;P = T2?;ST1_low_2;1;Same;low;132;82;132;j;n;0;j;b;3646.5809999936027
m#0bl47;36;False;1;P = T2?;ST2_low_3;2;Same;low;70;112;112;j;n;0;f;n;2128.1191000016406
m#0bl47;37;False;1;P = T2?;ST1_low_4;1;Same;low;112;70;112;j;n;1;f;n;2966.8462999979965
m#0bl47;38;False;1;P = T2?;ST1_low_1;1;Same;low;82;132;82;j;n;1;f;b;1584.059899993008
m#0bl47;39;False;1;P = T1?;ST2_low_1;2;Same;low;82;132;132;j;n;0;j;b;1419.259600006626
m#0bl47;40;False;1;P = T2?;ST2_high_1;2;Same;high;82;112;112;j;n;0;f;n;1813.258099995437
m#0bl47;41;False;1;P = T2?;DT2_high_2;2;Different;high;112;82;70;j;n;1;f;b;1990.4220000025816
m#0bl47;42;False;1;P = T2?;ST2_low_4;2;Same;low;112;70;70;j;n;0;f;b;8376.737800004776
m#0bl47;43;False;1;P = T1?;DT2_high_4;2;Different;high;96;70;60;j;n;0;j;b;4617.804199995589
m#0bl47;44;False;1;P = T2?;ST2_high_6;2;Same;high;132;96;96;j;n;0;f;v;3428.909800000838
m#0bl47;45;False;1;P = T2?;DT1_high_6;1;Different;high;132;96;154;j;n;1;f;v;3375.921000013477
m#0bl47;46;False;1;P = T2?;ST1_high_2;1;Same;high;112;82;112;j;n;0;j;n;2623.217400003341
m#0bl47;47;False;1;P = T2?;ST2_high_5;2;Same;high;96;132;132;j;n;1;j;v;1597.3056000075303
m#0bl47;48;False;1;P = T1?;ST2_high_4;2;Same;high;96;70;70;j;n;0;j;b;1831.690199993318
m#0bl47;49;False;1;P = T1?;STb_5;0;Same;None;112;112;112;j;n;0;f;v;5465.911299994332
m#0bl47;50;False;1;P = T1?;ST2_high_2;2;Same;high;112;82;82;j;n;0;j;n;2935.9155999991344
m#0bl47;51;False;1;P = T2?;ST1_high_1;1;Same;high;82;112;82;j;n;0;j;b;1729.45030000119
m#0bl47;52;False;1;P = T2?;ST1_low_1;1;Same;low;82;132;82;j;n;0;j;b;1637.0920000044862
m#0bl47;53;False;1;P = T1?;ST1_high_5;1;Same;high;96;132;96;j;n;0;f;b;2276.1200000095414
m#0bl47;54;False;1;P = T1?;ST2_low_2;2;Same;low;132;82;82;j;n;1;f;v;5160.579899995355
m#0bl47;55;False;1;P = T2?;STb_7;0;Same;None;154;154;154;j;n;1;j;n;4833.5114999936195
m#0bl47;56;False;1;P = T1?;ST2_low_3;2;Same;low;70;112;112;j;n;0;j;b;6313.555400003679
m#0bl47;57;False;1;P = T1?;ST1_low_2;1;Same;low;132;82;132;j;n;0;f;b;1332.9363999946509
m#0bl47;58;False;1;P = T1?;ST1_low_2;1;Same;low;132;82;132;j;n;0;f;n;3187.605600003735
m#0bl47;59;False;1;P = T2?;ST2_high_1;2;Same;high;82;112;112;j;n;0;f;b;6706.47530000133
m#0bl47;60;False;1;P = T2?;ST2_high_4;2;Same;high;96;70;70;j;n;0;f;n;1313.120800012257
m#0bl47;61;False;1;P = T1?;ST2_high_6;2;Same;high;132;96;96;j;n;1;f;n;1317.9003999975976
m#0bl47;62;False;1;P = T2?;STb_4;0;Same;None;96;96;96;j;n;0;f;b;1150.3525000007357
m#0bl47;63;False;1;P = T2?;ST2_low_5;2;Same;low;96;154;154;j;n;0;f;b;1286.9839000049978
m#0bl47;64;False;1;P = T1?;ST2_low_4;2;Same;low;112;70;70;j;n;0;j;b;2571.4730999898165
m#0bl47;65;False;1;P = T1?;ST2_low_3;2;Same;low;70;112;112;j;n;0;j;n;2966.884499997832
m#0bl47;66;False;1;P = T1?;ST1_high_1;1;Same;high;82;112;82;j;n;0;f;b;3405.413200001931
m#0bl47;67;False;1;P = T2?;ST1_high_6;1;Same;high;132;96;132;j;n;0;j;v;3275.515599991195
m#0bl47;68;False;1;P = T2?;ST2_high_6;2;Same;high;132;96;96;j;n;0;f;b;2094.602799988934
m#0bl47;69;False;1;P = T2?;ST1_low_3;1;Same;low;70;112;70;j;n;0;j;b;1900.4650999995647
m#0bl47;70;False;1;P = T2?;ST1_high_5;1;Same;high;96;132;96;j;n;1;f;b;1560.127899996587
m#0bl47;71;False;1;P = T1?;ST2_low_6;2;Same;low;154;96;96;j;n;0;j;v;3449.6767000091495
m#0bl47;72;False;1;P = T1?;ST2_high_4;2;Same;high;96;70;70;j;n;1;f;v;2030.2724999928614
m#0bl47;73;False;1;P = T1?;ST1_low_3;1;Same;low;70;112;70;j;n;0;f;v;1639.8792000109097
m#0bl47;74;False;1;P = T1?;ST1_high_4;1;Same;high;96;70;96;j;n;0;f;b;1554.1901000106009
m#0bl47;75;False;1;P = T1?;ST1_high_3;1;Same;high;70;96;70;j;n;0;f;b;1252.5659000093583
m#0bl47;76;False;1;P = T1?;ST2_high_2;2;Same;high;112;82;82;j;n;0;j;b;1335.7767999987118
m#0bl47;77;False;1;P = T1?;ST1_low_1;1;Same;low;82;132;82;j;n;1;j;n;1610.0780999986455
m#0bl47;78;False;1;P = T2?;ST2_high_2;2;Same;high;112;82;82;j;n;0;f;b;1920.0183999928413
m#0bl47;79;False;1;P = T2?;ST1_high_4;1;Same;high;96;70;96;j;n;0;j;v;3963.816699993913
m#0bl47;80;False;1;P = T1?;ST1_low_4;1;Same;low;112;70;112;j;n;0;f;n;1612.9764000070281
m#0bl47;81;False;1;P = T2?;ST2_low_3;2;Same;low;70;112;112;j;n;0;f;n;1592.6946000108728
m#0bl47;82;False;1;P = T1?;ST1_high_6;1;Same;high;132;96;132;j;n;1;j;b;1128.474199998891
m#0bl47;83;False;1;P = T1?;ST2_high_4;2;Same;high;96;70;70;j;n;0;j;v;1947.3418999987189
m#0bl47;84;False;1;P = T1?;ST2_high_5;2;Same;high;96;132;132;j;n;0;j;b;3446.053199993912
m#0bl47;85;False;1;P = T2?;ST1_high_5;1;Same;high;96;132;96;j;n;0;j;b;1897.4021000030916
m#0bl47;86;False;1;P = T1?;ST2_high_2;2;Same;high;112;82;82;j;n;1;f;v;2526.101600000402
m#0bl47;87;False;1;P = T1?;ST2_high_1;2;Same;high;82;112;112;j;n;0;j;v;4843.8191000022925
m#0bl47;88;False;1;P = T2?;ST2_high_5;2;Same;high;96;132;132;j;n;1;j;v;2662.45250000793
m#0bl47;89;False;1;P = T1?;ST1_low_6;1;Same;low;154;96;154;j;n;1;j;v;1536.2953000003472
m#0bl47;90;False;1;P = T2?;STb_5;0;Same;None;112;112;112;j;n;0;f;n;1571.2097999930847
m#0bl47;91;False;1;P = T2?;ST2_low_6;2;Same;low;154;96;96;j;n;0;f;b;1480.5518999928609
m#0bl47;92;False;1;P = T1?;ST2_high_1;2;Same;high;82;112;112;j;n;0;j;v;3044.4199000048684
m#0bl47;93;False;1;P = T2?;ST1_high_1;1;Same;high;82;112;82;j;n;1;f;b;1188.7675000034506
m#0bl47;94;False;1;P = T1?;ST1_low_3;1;Same;low;70;112;70;j;n;0;f;b;1133.001599999261
m#0bl47;95;False;1;P = T1?;ST2_high_6;2;Same;high;132;96;96;j;n;1;f;b;1109.6279000048526
m#0bl47;96;False;1;P = T1?;ST2_low_3;2;Same;low;70;112;112;j;n;0;j;v;1583.8371999998344
m#0bl47;97;False;1;P = T1?;ST1_low_5;1;Same;low;96;154;96;j;n;0;f;n;1298.5856000013882
m#0bl47;98;False;1;P = T2?;ST1_high_6;1;Same;high;132;96;132;j;n;1;f;v;1532.007000001613
m#0bl47;99;False;1;P = T1?;ST1_high_3;1;Same;high;70;96;70;j;n;1;j;v;2005.4174999968382
m#0bl47;100;False;1;P = T2?;ST2_low_2;2;Same;low;132;82;82;j;n;0;f;b;1281.5789000014775
m#0bl47;101;False;1;P = T1?;ST2_low_1;2;Same;low;82;132;132;j;n;0;j;n;1366.8669999897247
m#0bl47;102;False;1;P = T2?;ST2_low_5;2;Same;low;96;154;154;j;n;0;f;n;1188.5881000052905
m#0bl47;103;False;1;P = T1?;DT1_high_4;1;Different;high;96;70;112;j;n;0;j;v;2459.335200008354
m#0bl47;104;False;1;P = T1?;ST1_high_1;1;Same;high;82;112;82;j;n;0;f;b;1215.1748000032967
m#0bl47;105;False;1;P = T1?;ST1_low_6;1;Same;low;154;96;154;j;n;1;j;v;1912.3855999932857
m#0bl47;106;False;1;P = T1?;ST1_high_6;1;Same;high;132;96;132;j;n;0;f;b;1567.4285999994026
m#0bl47;107;False;1;P = T1?;ST1_high_5;1;Same;high;96;132;96;j;n;0;f;v;1054.5189999975264
m#0bl47;108;False;1;P = T2?;DT1_low_5;1;Different;low;96;154;82;j;n;0;j;b;3648.2331000006525
m#0bl47;109;False;1;P = T2?;ST1_high_3;1;Same;high;70;96;70;j;n;1;f;v;2757.5404999952298
m#0bl47;110;False;1;P = T1?;ST1_high_2;1;Same;high;112;82;112;j;n;1;j;v;10315.311699989252
m#0bl47;111;False;1;P = T2?;ST2_high_3;2;Same;high;70;96;96;j;n;0;f;n;1490.0182999990648
m#0bl47;112;False;1;P = T2?;DT2_high_3;2;Different;high;70;96;112;j;n;1;f;n;1192.4672000022838
m#0bl47;113;False;1;P = T2?;DT2_low_4;2;Different;low;112;70;60;j;n;1;f;b;1504.6581000060542
m#0bl47;114;False;1;P = T1?;DT2_low_2;2;Different;low;132;82;70;j;n;0;j;n;1427.4457999999868
m#0bl47;115;False;1;P = T2?;ST2_low_5;2;Same;low;96;154;154;j;n;0;f;n;2130.1291000127094
m#0bl47;116;False;1;P = T1?;ST1_low_4;1;Same;low;112;70;112;j;n;0;f;n;1266.7138000106206
m#0bl47;117;False;1;P = T2?;STb_2;0;Same;None;70;70;70;j;n;1;j;b;2908.5944999969797
m#0bl47;118;False;1;P = T2?;ST1_low_6;1;Same;low;154;96;154;j;n;0;j;v;4479.8679999948945
m#0bl47;119;False;1;P = T2?;DT1_low_4;1;Different;low;112;70;132;j;n;1;f;v;8343.184600002132
m#0bl47;120;False;1;P = T1?;ST1_low_1;1;Same;low;82;132;82;j;n;0;f;v;4318.538499996066
m#0bl47;121;False;1;P = T1?;ST2_low_1;2;Same;low;82;132;132;j;n;0;j;v;2586.9848000002094
m#0bl47;122;False;1;P = T2?;ST2_low_1;2;Same;low;82;132;132;j;n;0;f;b;1291.0112999961711
m#0bl47;123;False;1;P = T1?;DT2_low_3;2;Different;low;70;112;132;j;n;0;j;b;1111.1634999979287
m#0bl47;124;False;1;P = T1?;DT2_high_5;2;Different;high;96;132;154;j;n;1;f;b;1151.0329000011552
m#0bl47;125;False;1;P = T2?;ST2_low_1;2;Same;low;82;132;132;j;n;0;f;n;1151.493900004425
m#0bl47;126;False;1;P = T2?;ST1_low_6;1;Same;low;154;96;154;j;n;1;f;v;1496.7834999988554
m#0bl47;127;False;1;P = T1?;STb_7;0;Same;None;154;154;154;j;n;0;f;b;1193.2614999968791
m#0bl47;128;False;1;P = T2?;ST1_high_1;1;Same;high;82;112;82;j;n;0;j;b;1431.6723000083584
m#0bl47;129;False;1;P = T2?;ST1_high_6;1;Same;high;132;96;132;j;n;1;f;b;1607.1973999933107
m#0bl47;130;False;1;P = T2?;ST1_high_3;1;Same;high;70;96;70;j;n;0;j;v;1619.4033999927342
m#0bl47;131;False;1;P = T2?;ST1_low_5;1;Same;low;96;154;96;j;n;0;j;v;3526.126299999305
m#0bl47;132;False;1;P = T2?;ST2_high_3;2;Same;high;70;96;96;j;n;1;j;v;1466.2410000019008
m#0bl47;133;False;1;P = T2?;ST2_high_4;2;Same;high;96;70;70;j;n;1;j;v;1109.7594000020763
m#0bl47;134;False;1;P = T2?;ST2_high_2;2;Same;high;112;82;82;j;n;0;f;b;1291.7282999987947
m#0bl47;135;False;1;P = T2?;ST2_low_6;2;Same;low;154;96;96;j;n;0;f;b;1228.1543999997666
m#0bl47;136;False;1;P = T2?;ST1_low_4;1;Same;low;112;70;112;j;n;0;j;b;1275.5451999983052
m#0bl47;137;False;1;P = T2?;ST1_high_5;1;Same;high;96;132;96;j;n;0;j;b;5864.821800001664
m#0bl47;138;False;1;P = T1?;STb_1;0;Same;None;60;60;60;j;n;0;f;b;4281.820500007598
m#0bl47;139;False;1;P = T2?;ST1_high_2;1;Same;high;112;82;112;j;n;0;j;b;2499.0601999888895
m#0bl47;140;False;1;P = T1?;ST2_low_2;2;Same;low;132;82;82;j;n;1;f;n;1050.9510999982012
m#0bl47;141;False;1;P = T2?;STb_8;0;Same;None;180;180;180;j;n;0;f;n;983.8184000109322
m#0bl47;142;False;1;P = T1?;ST2_low_4;2;Same;low;112;70;70;j;n;0;j;n;1253.9500999992015
m#0bl47;143;False;1;P = T1?;ST2_low_4;2;Same;low;112;70;70;j;n;0;j;n;1289.0294999961043
m#0bl47;144;False;1;P = T1?;ST1_high_1;1;Same;high;82;112;82;j;n;0;f;n;1876.2755999923684
m#0bl47;145;False;1;P = T1?;ST2_high_3;2;Same;high;70;96;96;j;n;0;j;v;1271.7546000058064
m#0bl47;146;False;1;P = T1?;ST2_high_3;2;Same;high;70;96;96;j;n;0;j;v;1397.2024000104284
m#0bl47;147;False;1;P = T2?;ST2_high_2;2;Same;high;112;82;82;j;n;0;f;v;804.0930999995908
m#0bl47;148;False;1;P = T1?;ST1_low_5;1;Same;low;96;154;96;j;n;0;f;b;1627.549299999373
m#0bl47;149;False;1;P = T2?;ST2_low_6;2;Same;low;154;96;96;j;n;0;f;b;1662.2879999922588
m#0bl47;150;False;1;P = T1?;ST2_high_1;2;Same;high;82;112;112;j;n;0;j;b;1186.5011999907438
m#0bl47;151;False;1;P = T2?;STb_3;0;Same;None;82;82;82;j;n;0;f;b;1561.522200005129
m#0bl47;152;False;1;P = T1?;ST2_high_5;2;Same;high;96;132;132;j;n;0;j;v;961.0946000029799
m#0bl47;153;False;1;P = T1?;ST1_high_4;1;Same;high;96;70;96;j;n;1;j;n;11290.610299998662
m#0bl47;154;False;1;P = T1?;ST2_low_5;2;Same;low;96;154;154;j;n;0;j;b;2156.0349999926984
m#0bl47;155;False;1;P = T2?;ST2_high_3;2;Same;high;70;96;96;j;n;0;f;v;2092.119399996591
m#0bl47;156;False;1;P = T1?;STb_6;0;Same;None;132;132;132;j;n;0;f;v;1376.846500003012
m#0bl47;157;False;1;P = T1?;ST1_low_6;1;Same;low;154;96;154;j;n;0;f;b;1019.9599000043236
m#0bl47;158;False;1;P = T1?;ST2_high_6;2;Same;high;132;96;96;j;n;0;j;b;1858.4151999966707
m#0bl47;159;False;1;P = T2?;DT2_high_5;2;Different;high;96;132;154;j;n;1;f;v;1025.9929000021657
m#0bl47;160;False;1;P = T2?;ST1_high_3;1;Same;high;70;96;70;j;n;1;f;v;572.7544999972451
m#0bl47;161;False;1;P = T1?;ST1_high_4;1;Same;high;96;70;96;j;n;0;f;b;919.7923000028823
m#0bl47;162;False;1;P = T2?;ST2_low_1;2;Same;low;82;132;132;j;n;1;j;v;1830.4923999967286
m#0bl47;163;False;1;P = T2?;ST2_high_6;2;Same;high;132;96;96;j;n;1;j;v;1056.079400004819
m#0bl47;164;False;1;P = T2?;ST2_low_2;2;Same;low;132;82;82;j;n;0;f;b;1030.0015999964671
m#0bl47;165;False;1;P = T2?;ST1_high_4;1;Same;high;96;70;96;j;n;0;j;v;1024.0870999987237
m#0bl47;166;False;1;P = T1?;ST2_low_2;2;Same;low;132;82;82;j;n;1;f;n;4264.173200004734
m#0bl47;167;False;1;P = T2?;ST2_high_5;2;Same;high;96;132;132;j;n;1;j;v;1867.2616999974707
m#0bl47;168;False;1;P = T2?;ST1_low_2;1;Same;low;132;82;132;j;n;1;f;v;284.9603999929968
m#0bl47;169;False;1;P = T1?;ST1_high_6;1;Same;high;132;96;132;j;n;0;f;b;986.9335999974282
m#0bl47;170;False;1;P = T1?;ST2_low_6;2;Same;low;154;96;96;j;n;1;f;b;1110.2288999973098
m#0bl47;171;False;1;P = T1?;ST1_low_4;1;Same;low;112;70;112;j;n;0;f;v;961.3222000043606
m#0bl47;172;False;1;P = T1?;ST1_high_2;1;Same;high;112;82;112;j;n;0;f;b;1064.0972999972291
m#0bl47;173;False;1;P = T2?;ST1_high_2;1;Same;high;112;82;112;j;n;0;j;b;1329.1405999916606
m#0bl47;174;False;1;P = T1?;ST2_low_6;2;Same;low;154;96;96;j;n;1;f;b;96.52969999297056
m#0bl47;175;False;1;P = T1?;ST1_high_5;1;Same;high;96;132;96;j;n;0;f;b;1091.6249000001699
m#0bl47;176;False;1;P = T2?;DT1_high_1;1;Different;high;82;112;70;j;n;0;j;b;1103.9027999941027
m#0bl47;1;True;2;P != T2?;DT1_high_3;1;Different;high;70;96;60;j;n;1;j;b;14345.521600000211
m#0bl47;2;True;2;P != T1?;ST2_high_4;2;Same;high;96;70;70;j;n;1;j;b;2023.8067000027513
m#0bl47;3;True;2;P != T2?;ST2_high_5;2;Same;high;96;132;132;j;n;0;j;b;7997.470400005113
m#0bl47;4;True;2;P != T1?;STb_1;0;Same;None;60;60;60;j;n;1;f;b;3056.920799994259
m#0bl47;5;True;2;P != T1?;ST1_low_5;1;Same;low;96;154;96;j;n;1;f;v;7812.476499995682
m#0bl47;6;True;2;P != T1?;DT2_high_2;2;Different;high;112;82;70;j;n;1;j;b;2882.2338999889325
m#0bl47;7;True;2;P != T2?;ST1_low_4;1;Same;low;112;70;112;j;n;0;f;n;4477.069799992023
m#0bl47;8;True;2;P != T2?;ST1_low_4;1;Same;low;112;70;112;j;n;0;f;b;6122.3910999979125
m#0bl47;9;True;2;P != T2?;DT2_low_1;2;Different;low;82;132;154;j;n;0;f;b;3514.4344000000274
m#0bl47;10;True;2;P != T1?;DT2_high_3;2;Different;high;70;96;112;j;n;1;j;b;2346.8676999909803
m#0bl47;11;True;2;P != T1?;STb_5;0;Same;None;112;112;112;j;n;0;j;n;5377.187599995523
m#0bl47;12;True;2;P != T1?;ST1_high_6;1;Same;high;132;96;132;j;n;0;j;n;2283.6633999977494
m#0bl47;13;True;2;P != T2?;STb_5;0;Same;None;112;112;112;j;n;0;j;b;3317.476500000339
m#0bl47;14;True;2;P != T2?;ST2_high_6;2;Same;high;132;96;96;j;n;0;j;n;3544.8429999960354
m#0bl47;15;True;2;P != T1?;ST2_high_6;2;Same;high;132;96;96;j;n;1;j;b;2823.9045000082115
m#0bl47;16;True;2;P != T2?;STb_4;0;Same;None;96;96;96;j;n;1;f;b;6629.063100001076
m#0bl47;1;False;2;P != T1?;ST1_low_2;1;Same;low;132;82;132;j;n;0;j;v;5169.493699999293
m#0bl47;2;False;2;P != T1?;ST2_low_2;2;Same;low;132;82;82;j;n;0;f;n;8661.931900001946
m#0bl47;3;False;2;P != T2?;ST2_low_2;2;Same;low;132;82;82;j;n;0;j;n;3595.151400004397
m#0bl47;4;False;2;P != T2?;DT1_low_5;1;Different;low;96;154;82;j;n;0;f;b;2642.0751999976346
m#0bl47;5;False;2;P != T2?;ST1_low_2;1;Same;low;132;82;132;j;n;0;f;b;2033.342700000503
m#0bl47;6;False;2;P != T2?;ST2_high_2;2;Same;high;112;82;82;j;n;1;f;b;6623.671099994681
m#0bl47;7;False;2;P != T2?;ST2_high_6;2;Same;high;132;96;96;j;n;0;j;b;4114.130400004797
m#0bl47;8;False;2;P != T1?;ST2_low_1;2;Same;low;82;132;132;j;n;0;f;n;1229.7547999914968
m#0bl47;9;False;2;P != T2?;ST2_high_3;2;Same;high;70;96;96;j;n;0;j;b;1751.7167999903904
m#0bl47;10;False;2;P != T2?;ST2_low_4;2;Same;low;112;70;70;j;n;0;j;n;1829.2008999997051
m#0bl47;11;False;2;P != T1?;ST2_low_5;2;Same;low;96;154;154;j;n;0;f;n;2938.6081999982707
m#0bl47;12;False;2;P != T1?;STb_3;0;Same;None;82;82;82;j;n;0;j;b;3336.1259999946924
m#0bl47;13;False;2;P != T2?;STb_8;0;Same;None;180;180;180;j;n;0;j;v;8042.190899999696
m#0bl47;14;False;2;P != T2?;ST2_low_4;2;Same;low;112;70;70;j;n;0;j;n;3253.377900007763
m#0bl47;15;False;2;P != T2?;STb_3;0;Same;None;82;82;82;j;n;0;j;n;2391.4010000007693
m#0bl47;16;False;2;P != T2?;ST1_high_1;1;Same;high;82;112;82;j;n;0;f;n;2691.624500002945
m#0bl47;17;False;2;P != T2?;ST2_high_3;2;Same;high;70;96;96;j;n;0;j;n;3155.1029000111157
m#0bl47;18;False;2;P != T1?;ST2_low_5;2;Same;low;96;154;154;j;n;0;f;n;4169.381699990481
m#0bl47;19;False;2;P != T1?;STb_1;0;Same;None;60;60;60;j;n;0;j;n;5312.162999995053
m#0bl47;20;False;2;P != T2?;ST2_low_5;2;Same;low;96;154;154;j;n;0;j;n;1635.7800000114366
m#0bl47;21;False;2;P != T2?;ST2_high_6;2;Same;high;132;96;96;j;n;0;j;b;2816.128199992818
m#0bl47;22;False;2;P != T2?;ST1_high_5;1;Same;high;96;132;96;j;n;0;f;b;3634.434699997655
m#0bl47;23;False;2;P != T1?;ST1_high_3;1;Same;high;70;96;70;j;n;0;j;n;2929.4415000040317
m#0bl47;24;False;2;P != T1?;ST2_high_6;2;Same;high;132;96;96;j;n;0;f;b;6684.179200005019
m#0bl47;25;False;2;P != T1?;ST1_low_3;1;Same;low;70;112;70;j;n;0;j;n;6369.411299994681
m#0bl47;26;False;2;P != T1?;ST1_high_6;1;Same;high;132;96;132;j;n;0;j;b;1430.8733000070788
m#0bl47;27;False;2;P != T1?;ST2_high_2;2;Same;high;112;82;82;j;n;0;f;n;2310.000700003002
m#0bl47;28;False;2;P != T2?;ST2_high_1;2;Same;high;82;112;112;j;n;0;j;n;1491.318999993382
m#0bl47;29;False;2;P != T2?;ST2_low_5;2;Same;low;96;154;154;j;n;0;j;n;1244.5309000031557
m#0bl47;30;False;2;P != T1?;ST1_high_5;1;Same;high;96;132;96;j;n;1;f;v;11306.845600003726
m#0bl47;31;False;2;P != T1?;ST2_high_2;2;Same;high;112;82;82;j;n;0;f;n;2670.1429999957327
m#0bl47;32;False;2;P != T1?;ST2_low_4;2;Same;low;112;70;70;j;n;1;j;b;1670.0898999988567
m#0bl47;33;False;2;P != T1?;ST1_low_3;1;Same;low;70;112;70;j;n;0;j;n;3589.0017000056105
m#0bl47;34;False;2;P != T2?;ST1_high_6;1;Same;high;132;96;132;j;n;1;j;b;3030.132500003674
m#0bl47;35;False;2;P != T1?;ST1_high_4;1;Same;high;96;70;96;j;n;0;j;b;1529.269500009832
m#0bl47;36;False;2;P != T2?;ST1_low_2;1;Same;low;132;82;132;j;n;0;f;b;1765.6128000089666
m#0bl47;37;False;2;P != T1?;ST1_high_4;1;Same;high;96;70;96;j;n;0;j;v;2036.5707000019029
m#0bl47;38;False;2;P != T2?;ST2_high_4;2;Same;high;96;70;70;j;n;0;j;b;3832.577900000615
m#0bl47;39;False;2;P != T1?;STb_8;0;Same;None;180;180;180;j;n;1;f;v;2616.2686000025133
m#0bl47;40;False;2;P != T2?;DT2_low_2;2;Different;low;132;82;70;j;n;1;j;n;1695.947200001683
m#0bl47;41;False;2;P != T1?;ST2_high_2;2;Same;high;112;82;82;j;n;1;j;v;2032.903899991652
m#0bl47;42;False;2;P != T2?;STb_1;0;Same;None;60;60;60;j;n;0;j;b;2310.3556999994908
m#0bl47;43;False;2;P != T1?;ST1_high_2;1;Same;high;112;82;112;j;n;1;f;b;1608.0762000055984
m#0bl47;44;False;2;P != T1?;ST2_low_6;2;Same;low;154;96;96;j;n;0;f;b;3242.4520999920787
m#0bl47;45;False;2;P != T2?;ST2_high_4;2;Same;high;96;70;70;j;n;1;f;b;2183.993400001782
m#0bl47;46;False;2;P != T2?;ST2_high_4;2;Same;high;96;70;70;j;n;0;j;n;153.31930000684224
m#0bl47;47;False;2;P != T2?;ST1_low_3;1;Same;low;70;112;70;j;n;0;f;b;1562.6192999916384
m#0bl47;48;False;2;P != T1?;ST2_high_3;2;Same;high;70;96;96;j;n;0;f;b;3132.2778000030667
m#0bl47;49;False;2;P != T1?;ST1_high_6;1;Same;high;132;96;132;j;n;0;j;b;3278.7258999887854
m#0bl47;50;False;2;P != T1?;ST1_low_1;1;Same;low;82;132;82;j;n;0;j;b;2892.3469000001205
m#0bl47;51;False;2;P != T1?;ST2_high_3;2;Same;high;70;96;96;j;n;1;j;b;1583.9543000038248
m#0bl47;52;False;2;P != T2?;ST1_high_4;1;Same;high;96;70;96;j;n;1;j;b;1660.069300007308
m#0bl47;53;False;2;P != T2?;ST1_high_4;1;Same;high;96;70;96;j;n;1;j;v;1510.488699990674
m#0bl47;54;False;2;P != T2?;ST1_low_2;1;Same;low;132;82;132;j;n;0;f;n;2173.88149999897
m#0bl47;55;False;2;P != T1?;ST1_high_5;1;Same;high;96;132;96;j;n;1;f;v;3356.0740999964764
m#0bl47;56;False;2;P != T2?;ST2_low_3;2;Same;low;70;112;112;j;n;0;j;v;1843.4931999945547
