p_code;trial_nr;practice;block;question;condition;seqPos;Same_or_Diff;ITS;T1_hz;T2_hz;P_hz;yes_key;sure_key;correct;yes_no;rating;resp_time
w3#4zo7;1;True;1;P = T1?;DT2_high_4;2;Different;high;96;70;60;f;n;0;f;b;2151.1604000000375
w3#4zo7;2;True;1;P = T1?;STb_5;0;Same;None;112;112;112;f;n;1;f;b;1493.4455999999727
w3#4zo7;3;True;1;P = T2?;DT1_high_6;1;Different;high;132;96;154;f;n;1;j;b;1496.7727000000082
w3#4zo7;4;True;1;P = T1?;ST2_low_3;2;Same;low;70;112;112;f;n;0;f;b;1889.4999000000325
w3#4zo7;5;True;1;P = T1?;ST1_high_2;1;Same;high;112;82;112;f;n;1;f;b;1640.0324999999611
w3#4zo7;6;True;1;P = T2?;ST2_low_4;2;Same;low;112;70;70;f;n;0;j;b;2037.7697999999782
w3#4zo7;7;True;1;P = T1?;STb_1;0;Same;None;60;60;60;f;n;1;f;b;1220.672200000081
w3#4zo7;8;True;1;P = T1?;ST2_low_4;2;Same;low;112;70;70;f;n;1;j;b;1072.501500000044
w3#4zo7;9;True;1;P = T2?;ST1_high_1;1;Same;high;82;112;82;f;n;0;f;b;1403.2296000000315
w3#4zo7;10;True;1;P = T1?;DT1_high_5;1;Different;high;96;132;82;f;n;0;f;v;1349.2219999999406
w3#4zo7;11;True;1;P = T2?;STb_5;0;Same;None;112;112;112;f;n;0;j;b;943.0326000000377
w3#4zo7;12;True;1;P = T2?;STb_8;0;Same;None;180;180;180;f;n;1;f;b;934.9717000000055
w3#4zo7;13;True;1;P = T2?;ST1_low_6;1;Same;low;154;96;154;f;n;0;f;b;1029.86379999993
w3#4zo7;14;True;1;P = T2?;ST2_high_2;2;Same;high;112;82;82;f;n;1;f;v;1484.526800000026
w3#4zo7;15;True;1;P = T1?;ST1_low_3;1;Same;low;70;112;70;f;n;1;f;b;865.035599999942
w3#4zo7;16;True;1;P = T2?;DT2_low_6;2;Different;low;154;96;82;f;n;1;j;b;3157.1140999999443
p_code;trial_nr;practice;block;question;condition;seqPos;Same_or_Diff;ITS;T1_hz;T2_hz;P_hz;yes_key;sure_key;correct;yes_no;rating;resp_time
w3#4zo7;1;False;1;P = T1?;ST2_low_6;2;Same;low;154;96;96;f;n;1;j;b;1069.521899999927
w3#4zo7;2;False;1;P = T1?;STb_3;0;Same;None;82;82;82;f;n;0;j;b;1287.2789000000466
w3#4zo7;3;False;1;P = T2?;ST2_low_3;2;Same;low;70;112;112;f;n;1;f;b;967.0141999999942
w3#4zo7;4;False;1;P = T2?;ST2_low_3;2;Same;low;70;112;112;f;n;1;f;b;1092.55840000003
w3#4zo7;5;False;1;P = T1?;ST2_high_5;2;Same;high;96;132;132;f;n;0;f;b;995.740899999987
w3#4zo7;6;False;1;P = T1?;ST1_low_6;1;Same;low;154;96;154;f;n;0;j;v;2454.940899999997
w3#4zo7;7;False;1;P = T1?;ST1_low_4;1;Same;low;112;70;112;f;n;0;j;b;1924.5461000000432
w3#4zo7;8;False;1;P = T1?;ST2_high_3;2;Same;high;70;96;96;f;n;0;f;v;1599.5083999999906
w3#4zo7;9;False;1;P = T2?;DT1_high_2;1;Different;high;112;82;132;f;n;0;f;b;1251.2990000000173
w3#4zo7;10;False;1;P = T2?;DT2_high_1;2;Different;high;82;112;132;f;n;0;f;b;1232.4019999999791
w3#4zo7;11;False;1;P = T1?;ST2_high_4;2;Same;high;96;70;70;f;n;0;f;b;1211.7803999999524
w3#4zo7;12;False;1;P = T1?;ST2_high_6;2;Same;high;132;96;96;f;n;1;j;v;1932.0080999999618
w3#4zo7;13;False;1;P = T1?;ST2_low_1;2;Same;low;82;132;132;f;n;1;j;v;1805.5967999999893
w3#4zo7;14;False;1;P = T2?;ST1_low_4;1;Same;low;112;70;112;f;n;0;f;v;5780.054500000006
w3#4zo7;15;False;1;P = T2?;ST1_high_1;1;Same;high;82;112;82;f;n;0;f;b;1489.6031999999195
w3#4zo7;16;False;1;P = T1?;DT1_high_3;1;Different;high;70;96;60;f;n;1;j;b;1094.5144999999457
w3#4zo7;17;False;1;P = T1?;ST1_high_3;1;Same;high;70;96;70;f;n;1;f;v;1389.7239000000354
w3#4zo7;18;False;1;P = T2?;DT2_low_3;2;Different;low;70;112;132;f;n;0;f;v;880.1177999999936
w3#4zo7;19;False;1;P = T2?;ST2_high_4;2;Same;high;96;70;70;f;n;0;j;v;6618.447500000002
w3#4zo7;20;False;1;P = T1?;ST1_high_5;1;Same;high;96;132;96;f;n;1;f;b;2322.1538000000237
w3#4zo7;21;False;1;P = T1?;DT2_high_3;2;Different;high;70;96;112;f;n;1;j;v;1057.3196999999936
w3#4zo7;22;False;1;P = T2?;ST2_low_6;2;Same;low;154;96;96;f;n;1;f;b;1041.8388000000505
w3#4zo7;23;False;1;P = T2?;ST2_low_4;2;Same;low;112;70;70;f;n;1;f;b;937.546999999995
w3#4zo7;24;False;1;P = T2?;ST1_low_1;1;Same;low;82;132;82;f;n;0;f;b;898.5258999999814
w3#4zo7;25;False;1;P = T2?;ST1_high_2;1;Same;high;112;82;112;f;n;0;f;v;2052.814299999909
w3#4zo7;26;False;1;P = T1?;DT2_high_1;2;Different;high;82;112;132;f;n;0;f;v;1063.6102999999366
w3#4zo7;27;False;1;P = T1?;STb_4;0;Same;None;96;96;96;f;n;1;f;b;949.2304999999988
w3#4zo7;28;False;1;P = T2?;ST1_low_1;1;Same;low;82;132;82;f;n;0;f;b;1006.6470000000436
w3#4zo7;29;False;1;P = T2?;ST1_high_3;1;Same;high;70;96;70;f;n;1;j;v;1034.1482000000042
w3#4zo7;30;False;1;P = T1?;ST1_high_5;1;Same;high;96;132;96;f;n;1;f;v;1557.6930999999377
w3#4zo7;31;False;1;P = T2?;ST1_high_4;1;Same;high;96;70;96;f;n;0;f;v;1117.013400000019
w3#4zo7;32;False;1;P = T1?;ST2_low_5;2;Same;low;96;154;154;f;n;0;f;b;2229.335200000037
w3#4zo7;33;False;1;P = T2?;ST2_low_5;2;Same;low;96;154;154;f;n;1;f;n;1034.9268999999595
w3#4zo7;34;False;1;P = T2?;ST1_high_1;1;Same;high;82;112;82;f;n;0;f;b;859.5315000000028
w3#4zo7;35;False;1;P = T1?;STb_5;0;Same;None;112;112;112;f;n;1;f;v;1462.3765999999705
w3#4zo7;36;False;1;P = T2?;ST1_low_2;1;Same;low;132;82;132;f;n;0;f;b;841.0264999999981
w3#4zo7;37;False;1;P = T2?;ST1_high_6;1;Same;high;132;96;132;f;n;0;f;b;916.9438000000127
w3#4zo7;38;False;1;P = T1?;STb_7;0;Same;None;154;154;154;f;n;1;f;v;756.7646999999624
w3#4zo7;39;False;1;P = T2?;ST2_low_5;2;Same;low;96;154;154;f;n;1;f;b;626.1089999999285
w3#4zo7;40;False;1;P = T2?;ST1_high_6;1;Same;high;132;96;132;f;n;0;f;n;1026.7424999999548
w3#4zo7;41;False;1;P = T1?;ST2_high_5;2;Same;high;96;132;132;f;n;0;f;v;1524.8182999999926
w3#4zo7;42;False;1;P = T1?;ST2_low_2;2;Same;low;132;82;82;f;n;1;j;b;1146.3228999999728
w3#4zo7;43;False;1;P = T1?;ST2_high_6;2;Same;high;132;96;96;f;n;0;f;n;871.1401000000478
w3#4zo7;44;False;1;P = T2?;ST1_low_1;1;Same;low;82;132;82;f;n;0;f;v;717.4181000000317
w3#4zo7;45;False;1;P = T2?;STb_4;0;Same;None;96;96;96;f;n;1;f;b;1011.8952000000263
w3#4zo7;46;False;1;P = T2?;ST2_low_1;2;Same;low;82;132;132;f;n;1;f;b;979.8238000000765
w3#4zo7;47;False;1;P = T2?;ST2_low_1;2;Same;low;82;132;132;f;n;1;f;v;1025.478400000111
w3#4zo7;48;False;1;P = T2?;STb_3;0;Same;None;82;82;82;f;n;0;j;b;1363.3457999999337
w3#4zo7;49;False;1;P = T1?;ST2_high_3;2;Same;high;70;96;96;f;n;0;f;b;944.0512999999555
w3#4zo7;50;False;1;P = T1?;ST2_high_2;2;Same;high;112;82;82;f;n;1;j;v;1562.243700000181
w3#4zo7;51;False;1;P = T2?;ST2_low_5;2;Same;low;96;154;154;f;n;1;f;v;1777.1454000001086
w3#4zo7;52;False;1;P = T2?;ST1_low_5;1;Same;low;96;154;96;f;n;1;j;b;1053.9572000000135
w3#4zo7;53;False;1;P = T1?;STb_2;0;Same;None;70;70;70;f;n;1;f;n;2507.8298999999333
w3#4zo7;54;False;1;P = T1?;ST1_low_2;1;Same;low;132;82;132;f;n;1;f;v;1750.0674999998864
w3#4zo7;55;False;1;P = T1?;ST2_low_6;2;Same;low;154;96;96;f;n;0;f;b;3156.605500000069
w3#4zo7;56;False;1;P = T1?;ST1_low_2;1;Same;low;132;82;132;f;n;1;f;v;915.1848999999856
w3#4zo7;57;False;1;P = T1?;ST2_low_2;2;Same;low;132;82;82;f;n;1;j;b;986.3901000001079
w3#4zo7;58;False;1;P = T1?;ST2_low_4;2;Same;low;112;70;70;f;n;1;j;v;1174.657600000046
w3#4zo7;59;False;1;P = T1?;ST2_low_1;2;Same;low;82;132;132;f;n;0;f;b;544.3429999997988
w3#4zo7;60;False;1;P = T1?;ST2_low_3;2;Same;low;70;112;112;f;n;0;f;b;777.8344999999263
w3#4zo7;61;False;1;P = T1?;STb_1;0;Same;None;60;60;60;f;n;1;f;v;703.5237000000052
w3#4zo7;62;False;1;P = T2?;ST1_low_5;1;Same;low;96;154;96;f;n;1;j;v;1054.0533000000778
w3#4zo7;63;False;1;P = T2?;ST1_low_6;1;Same;low;154;96;154;f;n;0;f;v;1084.1075999999248
w3#4zo7;64;False;1;P = T1?;ST1_low_3;1;Same;low;70;112;70;f;n;1;f;b;821.8529999999191
w3#4zo7;65;False;1;P = T2?;STb_7;0;Same;None;154;154;154;f;n;1;f;b;732.9306999999972
w3#4zo7;66;False;1;P = T1?;ST1_high_5;1;Same;high;96;132;96;f;n;1;f;b;875.450600000022
w3#4zo7;67;False;1;P = T1?;ST1_high_6;1;Same;high;132;96;132;f;n;0;j;v;1907.585700000027
w3#4zo7;68;False;1;P = T2?;ST2_low_2;2;Same;low;132;82;82;f;n;1;f;n;940.2511000000686
w3#4zo7;69;False;1;P = T1?;ST1_high_1;1;Same;high;82;112;82;f;n;1;f;b;1025.2133999999842
w3#4zo7;70;False;1;P = T1?;ST1_low_2;1;Same;low;132;82;132;f;n;0;j;v;1227.2810999998
w3#4zo7;71;False;1;P = T1?;ST1_high_6;1;Same;high;132;96;132;f;n;0;j;v;938.5300999999799
w3#4zo7;72;False;1;P = T1?;ST1_low_5;1;Same;low;96;154;96;f;n;1;f;b;958.6482999998225
w3#4zo7;73;False;1;P = T2?;ST1_low_3;1;Same;low;70;112;70;f;n;1;j;v;1215.2128000000175
w3#4zo7;74;False;1;P = T2?;ST1_high_4;1;Same;high;96;70;96;f;n;0;f;v;842.9445000001579
w3#4zo7;75;False;1;P = T2?;ST2_high_6;2;Same;high;132;96;96;f;n;1;f;b;979.9058999999488
w3#4zo7;76;False;1;P = T2?;ST2_low_3;2;Same;low;70;112;112;f;n;1;f;b;1030.6264000000738
w3#4zo7;77;False;1;P = T2?;STb_5;0;Same;None;112;112;112;f;n;1;f;v;379.9102000000403
w3#4zo7;78;False;1;P = T2?;ST2_high_1;2;Same;high;82;112;112;f;n;1;f;b;916.2092999999913
w3#4zo7;79;False;1;P = T1?;ST2_high_4;2;Same;high;96;70;70;f;n;0;f;v;763.2811000000856
w3#4zo7;80;False;1;P = T2?;ST1_high_2;1;Same;high;112;82;112;f;n;0;f;b;518.9211000001706
w3#4zo7;81;False;1;P = T2?;ST2_low_1;2;Same;low;82;132;132;f;n;1;f;b;721.0564000001796
w3#4zo7;82;False;1;P = T2?;STb_6;0;Same;None;132;132;132;f;n;1;f;b;1031.4891999998963
w3#4zo7;83;False;1;P = T2?;STb_1;0;Same;None;60;60;60;f;n;1;f;b;821.0370000001603
w3#4zo7;84;False;1;P = T1?;ST2_high_5;2;Same;high;96;132;132;f;n;0;f;v;780.1661999999396
w3#4zo7;85;False;1;P = T2?;ST1_low_3;1;Same;low;70;112;70;f;n;0;f;v;778.166100000135
w3#4zo7;86;False;1;P = T1?;DT1_high_6;1;Different;high;132;96;154;f;n;1;j;v;1511.5764999998191
w3#4zo7;87;False;1;P = T1?;ST1_high_3;1;Same;high;70;96;70;f;n;1;f;n;689.9235000000772
w3#4zo7;88;False;1;P = T1?;ST2_low_1;2;Same;low;82;132;132;f;n;0;f;b;472.91969999992034
w3#4zo7;89;False;1;P = T1?;ST2_low_2;2;Same;low;132;82;82;f;n;0;f;b;465.21549999988565
w3#4zo7;90;False;1;P = T2?;ST1_low_6;1;Same;low;154;96;154;f;n;1;j;v;938.6200999999801
w3#4zo7;91;False;1;P = T1?;ST1_high_1;1;Same;high;82;112;82;f;n;1;f;b;548.2291000000714
w3#4zo7;92;False;1;P = T1?;ST2_high_2;2;Same;high;112;82;82;f;n;0;f;n;778.9970000001176
w3#4zo7;93;False;1;P = T1?;STb_6;0;Same;None;132;132;132;f;n;1;f;b;1101.9056000000091
w3#4zo7;94;False;1;P = T2?;ST1_high_6;1;Same;high;132;96;132;f;n;0;f;b;768.6529000000064
w3#4zo7;95;False;1;P = T1?;ST1_low_5;1;Same;low;96;154;96;f;n;1;f;b;657.0220999999492
w3#4zo7;96;False;1;P = T1?;ST1_high_2;1;Same;high;112;82;112;f;n;1;f;v;272.0750999999382
w3#4zo7;97;False;1;P = T1?;ST2_high_2;2;Same;high;112;82;82;f;n;0;f;v;831.7870000000767
w3#4zo7;98;False;1;P = T1?;ST1_low_3;1;Same;low;70;112;70;f;n;1;f;b;329.6006999999008
w3#4zo7;99;False;1;P = T2?;DT1_high_4;1;Different;high;96;70;112;f;n;0;f;v;1045.7197000000633
w3#4zo7;100;False;1;P = T2?;ST1_low_6;1;Same;low;154;96;154;f;n;0;f;v;423.28919999999925
w3#4zo7;101;False;1;P = T2?;ST2_high_2;2;Same;high;112;82;82;f;n;1;f;v;567.5780999999915
w3#4zo7;102;False;1;P = T2?;ST2_high_3;2;Same;high;70;96;96;f;n;1;f;n;550.5393999999342
w3#4zo7;103;False;1;P = T1?;ST1_high_3;1;Same;high;70;96;70;f;n;1;f;b;376.78329999994276
w3#4zo7;104;False;1;P = T1?;DT2_low_4;2;Different;low;112;70;60;f;n;1;j;v;999.0273000000798
w3#4zo7;105;False;1;P = T1?;STb_8;0;Same;None;180;180;180;f;n;1;f;b;475.54250000007414
w3#4zo7;106;False;1;P = T1?;ST2_high_6;2;Same;high;132;96;96;f;n;0;f;v;840.3430000000753
w3#4zo7;107;False;1;P = T2?;ST2_high_6;2;Same;high;132;96;96;f;n;1;f;b;835.0257000001875
w3#4zo7;108;False;1;P = T1?;ST1_high_6;1;Same;high;132;96;132;f;n;1;f;v;814.4498000001477
w3#4zo7;109;False;1;P = T2?;DT2_low_4;2;Different;low;112;70;60;f;n;0;f;v;1318.6935999999605
w3#4zo7;110;False;1;P = T1?;ST2_low_6;2;Same;low;154;96;96;f;n;0;f;b;327.6951000000281
w3#4zo7;111;False;1;P = T2?;ST1_high_3;1;Same;high;70;96;70;f;n;0;f;b;301.91179999997075
w3#4zo7;112;False;1;P = T1?;ST2_low_3;2;Same;low;70;112;112;f;n;1;j;v;828.2056999998986
w3#4zo7;113;False;1;P = T1?;ST1_high_4;1;Same;high;96;70;96;f;n;1;f;b;314.6732999998676
w3#4zo7;114;False;1;P = T2?;ST2_low_6;2;Same;low;154;96;96;f;n;1;f;v;290.277099999912
w3#4zo7;115;False;1;P = T2?;ST2_high_3;2;Same;high;70;96;96;f;n;0;j;v;1243.9469999999346
w3#4zo7;116;False;1;P = T2?;ST1_high_5;1;Same;high;96;132;96;f;n;0;f;b;981.5839999998843
w3#4zo7;117;False;1;P = T2?;ST2_high_1;2;Same;high;82;112;112;f;n;1;f;v;1072.8776999999354
w3#4zo7;118;False;1;P = T1?;ST2_low_4;2;Same;low;112;70;70;f;n;1;j;v;866.7186999998648
w3#4zo7;119;False;1;P = T2?;ST1_low_2;1;Same;low;132;82;132;f;n;1;j;v;783.1002999998873
w3#4zo7;120;False;1;P = T1?;ST1_low_1;1;Same;low;82;132;82;f;n;1;f;v;804.8249999999371
w3#4zo7;121;False;1;P = T2?;STb_2;0;Same;None;70;70;70;f;n;1;f;v;814.3301000000065
w3#4zo7;122;False;1;P = T2?;ST1_high_3;1;Same;high;70;96;70;f;n;0;f;b;621.9983999999386
w3#4zo7;123;False;1;P = T1?;ST1_low_1;1;Same;low;82;132;82;f;n;1;f;v;1035.0106000000778
w3#4zo7;124;False;1;P = T1?;ST1_low_4;1;Same;low;112;70;112;f;n;0;j;v;1800.6477000001269
w3#4zo7;125;False;1;P = T2?;ST1_high_1;1;Same;high;82;112;82;f;n;0;f;b;1380.92000000006
w3#4zo7;126;False;1;P = T2?;ST2_high_6;2;Same;high;132;96;96;f;n;1;f;v;708.2247000000734
w3#4zo7;127;False;1;P = T2?;ST2_high_2;2;Same;high;112;82;82;f;n;1;f;v;597.1897999997964
w3#4zo7;128;False;1;P = T1?;DT2_low_1;2;Different;low;82;132;154;f;n;1;j;v;1090.0329000000966
w3#4zo7;129;False;1;P = T2?;ST2_high_4;2;Same;high;96;70;70;f;n;1;f;b;912.2348999999303
w3#4zo7;130;False;1;P = T1?;ST1_high_2;1;Same;high;112;82;112;f;n;1;f;b;808.836299999939
w3#4zo7;131;False;1;P = T2?;ST2_low_4;2;Same;low;112;70;70;f;n;1;f;b;749.7017999999116
w3#4zo7;132;False;1;P = T2?;ST1_high_4;1;Same;high;96;70;96;f;n;0;f;v;2521.5760999999475
w3#4zo7;133;False;1;P = T2?;ST1_low_2;1;Same;low;132;82;132;f;n;1;j;v;777.464400000099
w3#4zo7;134;False;1;P = T2?;ST2_low_6;2;Same;low;154;96;96;f;n;1;f;v;1283.1077000000732
w3#4zo7;135;False;1;P = T2?;ST2_high_3;2;Same;high;70;96;96;f;n;1;f;b;699.0186999998969
w3#4zo7;136;False;1;P = T1?;ST2_high_4;2;Same;high;96;70;70;f;n;0;f;v;890.1671000000988
w3#4zo7;137;False;1;P = T2?;ST1_low_4;1;Same;low;112;70;112;f;n;0;f;v;735.2855000001455
w3#4zo7;138;False;1;P = T1?;ST2_low_5;2;Same;low;96;154;154;f;n;0;f;b;57.709899999963454
w3#4zo7;139;False;1;P = T2?;ST2_high_4;2;Same;high;96;70;70;f;n;1;f;b;798.007699999971
w3#4zo7;140;False;1;P = T1?;DT2_low_6;2;Different;low;154;96;82;f;n;0;f;v;377.87440000010974
w3#4zo7;141;False;1;P = T2?;ST2_low_4;2;Same;low;112;70;70;f;n;1;f;b;801.3905999998769
w3#4zo7;142;False;1;P = T1?;ST1_low_4;1;Same;low;112;70;112;f;n;1;f;v;747.5096999999096
w3#4zo7;143;False;1;P = T1?;ST2_high_1;2;Same;high;82;112;112;f;n;0;f;v;869.9965000000702
w3#4zo7;144;False;1;P = T2?;ST1_low_3;1;Same;low;70;112;70;f;n;0;f;v;804.4296999999005
w3#4zo7;145;False;1;P = T1?;ST2_low_4;2;Same;low;112;70;70;f;n;0;f;v;470.1257000001533
w3#4zo7;146;False;1;P = T2?;ST1_high_5;1;Same;high;96;132;96;f;n;0;f;b;903.8182000001598
w3#4zo7;147;False;1;P = T2?;DT2_high_2;2;Different;high;112;82;70;f;n;0;f;v;1273.3543000001646
w3#4zo7;148;False;1;P = T1?;ST1_low_3;1;Same;low;70;112;70;f;n;1;f;v;774.0427000001091
w3#4zo7;149;False;1;P = T2?;ST2_high_5;2;Same;high;96;132;132;f;n;1;f;b;905.6454000001395
w3#4zo7;150;False;1;P = T1?;ST1_high_1;1;Same;high;82;112;82;f;n;1;f;b;384.45019999994656
w3#4zo7;151;False;1;P = T1?;ST1_high_4;1;Same;high;96;70;96;f;n;1;f;v;371.5724000001046
w3#4zo7;152;False;1;P = T2?;DT2_low_5;2;Different;low;96;154;180;f;n;0;f;v;1915.20730000002
w3#4zo7;153;False;1;P = T2?;STb_8;0;Same;None;180;180;180;f;n;1;f;v;99.94269999992866
w3#4zo7;154;False;1;P = T2?;ST2_high_5;2;Same;high;96;132;132;f;n;1;f;v;2381.118699999888
w3#4zo7;155;False;1;P = T1?;ST1_high_4;1;Same;high;96;70;96;f;n;0;j;b;849.8376999998527
w3#4zo7;156;False;1;P = T2?;ST1_high_5;1;Same;high;96;132;96;f;n;0;f;v;24647.85670000015
w3#4zo7;157;False;1;P = T1?;ST2_high_1;2;Same;high;82;112;112;f;n;0;f;v;2194.410799999787
w3#4zo7;158;False;1;P = T2?;ST2_high_1;2;Same;high;82;112;112;f;n;1;f;v;2237.926400000106
w3#4zo7;159;False;1;P = T2?;ST1_low_4;1;Same;low;112;70;112;f;n;0;f;b;329.4934000000467
w3#4zo7;160;False;1;P = T1?;ST2_low_5;2;Same;low;96;154;154;f;n;0;f;b;566.3184000000001
w3#4zo7;161;False;1;P = T1?;DT1_low_5;1;Different;low;96;154;82;f;n;0;f;b;885.2170999998634
w3#4zo7;162;False;1;P = T2?;ST2_low_2;2;Same;low;132;82;82;f;n;1;f;v;788.1053000000975
w3#4zo7;163;False;1;P = T1?;ST2_high_1;2;Same;high;82;112;112;f;n;0;f;v;2151.8920999997135
w3#4zo7;164;False;1;P = T1?;ST2_low_3;2;Same;low;70;112;112;f;n;0;f;v;1156.5421000000242
w3#4zo7;165;False;1;P = T2?;ST1_high_2;1;Same;high;112;82;112;f;n;0;f;b;1365.1614999998856
w3#4zo7;166;False;1;P = T2?;ST1_low_5;1;Same;low;96;154;96;f;n;0;f;v;1929.413199999999
w3#4zo7;167;False;1;P = T1?;ST1_high_2;1;Same;high;112;82;112;f;n;1;f;b;921.0183000000143
w3#4zo7;168;False;1;P = T1?;ST1_low_5;1;Same;low;96;154;96;f;n;1;f;v;1809.08270000009
w3#4zo7;169;False;1;P = T1?;ST1_low_6;1;Same;low;154;96;154;f;n;1;f;v;783.2269999998971
w3#4zo7;170;False;1;P = T1?;ST2_high_3;2;Same;high;70;96;96;f;n;0;f;v;1009.9555000001601
w3#4zo7;171;False;1;P = T1?;ST1_low_6;1;Same;low;154;96;154;f;n;1;f;v;1239.8463999998057
w3#4zo7;172;False;1;P = T1?;ST1_low_1;1;Same;low;82;132;82;f;n;1;f;b;739.0470000000278
w3#4zo7;173;False;1;P = T2?;ST2_high_5;2;Same;high;96;132;132;f;n;1;f;b;581.715499999973
w3#4zo7;174;False;1;P = T2?;ST2_low_2;2;Same;low;132;82;82;f;n;1;f;b;784.4916999997622
w3#4zo7;175;False;1;P = T2?;ST2_high_2;2;Same;high;112;82;82;f;n;1;f;v;896.6982000001735
w3#4zo7;176;False;1;P = T2?;DT1_low_5;1;Different;low;96;154;82;f;n;0;f;v;1567.0734000000266
w3#4zo7;1;True;2;P != T1?;STb_4;0;Same;None;96;96;96;f;n;1;j;b;512.5722999996469
w3#4zo7;2;True;2;P != T2?;STb_8;0;Same;None;180;180;180;f;n;1;j;b;589.0994000001228
w3#4zo7;3;True;2;P != T2?;DT1_low_5;1;Different;low;96;154;82;f;n;1;f;b;2069.7543999999652
w3#4zo7;4;True;2;P != T2?;ST2_high_5;2;Same;high;96;132;132;f;n;1;j;b;499.3048000001181
w3#4zo7;5;True;2;P != T1?;ST2_high_5;2;Same;high;96;132;132;f;n;0;j;b;460.2705000002061
w3#4zo7;6;True;2;P != T1?;ST1_low_4;1;Same;low;112;70;112;f;n;1;j;b;4655.056500000228
w3#4zo7;7;True;2;P != T1?;ST2_low_2;2;Same;low;132;82;82;f;n;1;f;v;4046.6801000002306
w3#4zo7;8;True;2;P != T1?;DT1_low_5;1;Different;low;96;154;82;f;n;0;j;v;3384.8643999999695
w3#4zo7;9;True;2;P != T2?;ST2_high_5;2;Same;high;96;132;132;f;n;1;j;b;1367.5580999997692
w3#4zo7;10;True;2;P != T2?;ST1_low_6;1;Same;low;154;96;154;f;n;1;f;b;2748.131399999693
w3#4zo7;11;True;2;P != T2?;ST1_high_5;1;Same;high;96;132;96;f;n;1;f;b;969.7487000003093
w3#4zo7;12;True;2;P != T2?;STb_1;0;Same;None;60;60;60;f;n;1;j;b;602.5920000001861
w3#4zo7;13;True;2;P != T1?;ST1_high_2;1;Same;high;112;82;112;f;n;1;j;b;752.8972000000067
w3#4zo7;14;True;2;P != T2?;DT1_high_5;1;Different;high;96;132;82;f;n;0;j;b;776.7645999997512
w3#4zo7;15;True;2;P != T1?;STb_1;0;Same;None;60;60;60;f;n;0;f;v;1495.5257999999958
w3#4zo7;16;True;2;P != T1?;DT2_low_5;2;Different;low;96;154;180;f;n;0;j;b;842.4912000000404
w3#4zo7;1;False;2;P != T1?;ST1_high_3;1;Same;high;70;96;70;f;n;1;j;b;1108.3535000002485
w3#4zo7;2;False;2;P != T2?;DT2_high_5;2;Different;high;96;132;154;f;n;0;j;b;828.5508999997546
w3#4zo7;3;False;2;P != T1?;ST1_high_5;1;Same;high;96;132;96;f;n;1;j;b;774.1998000001331
w3#4zo7;4;False;2;P != T2?;DT1_low_2;1;Different;low;132;82;154;f;n;1;f;b;1576.419700000315
w3#4zo7;5;False;2;P != T1?;ST1_high_6;1;Same;high;132;96;132;f;n;0;f;v;964.3756999998914
w3#4zo7;6;False;2;P != T1?;ST1_high_3;1;Same;high;70;96;70;f;n;1;j;b;360.54310000008627
w3#4zo7;7;False;2;P != T1?;STb_7;0;Same;None;154;154;154;f;n;1;j;b;1018.354900000304
w3#4zo7;8;False;2;P != T2?;ST1_low_1;1;Same;low;82;132;82;f;n;0;j;b;1152.2408999999243
w3#4zo7;9;False;2;P != T1?;ST2_low_4;2;Same;low;112;70;70;f;n;0;j;b;485.8705999999984
w3#4zo7;10;False;2;P != T2?;ST2_high_4;2;Same;high;96;70;70;f;n;1;j;v;484.7393000000011
w3#4zo7;11;False;2;P != T2?;ST1_high_3;1;Same;high;70;96;70;f;n;0;j;b;1009.1695000000982
w3#4zo7;12;False;2;P != T2?;ST1_high_2;1;Same;high;112;82;112;f;n;0;j;v;2410.0359999997636
w3#4zo7;13;False;2;P != T1?;DT2_low_5;2;Different;low;96;154;180;f;n;0;j;v;885.236299999633
w3#4zo7;14;False;2;P != T2?;ST2_high_6;2;Same;high;132;96;96;f;n;1;j;b;853.5859999997228
w3#4zo7;15;False;2;P != T1?;ST1_high_1;1;Same;high;82;112;82;f;n;1;j;b;918.9830000000256
w3#4zo7;16;False;2;P != T2?;STb_1;0;Same;None;60;60;60;f;n;1;j;b;889.8604999999407
w3#4zo7;17;False;2;P != T1?;ST2_low_1;2;Same;low;82;132;132;f;n;0;j;b;1061.5795999997317
w3#4zo7;18;False;2;P != T2?;ST1_low_2;1;Same;low;132;82;132;f;n;1;f;b;1132.8245999998217
w3#4zo7;19;False;2;P != T2?;ST1_high_6;1;Same;high;132;96;132;f;n;1;f;b;881.1171000002105
w3#4zo7;20;False;2;P != T1?;ST2_high_4;2;Same;high;96;70;70;f;n;0;j;b;833.8390000003528
w3#4zo7;21;False;2;P != T2?;ST2_low_2;2;Same;low;132;82;82;f;n;1;j;v;1583.3911999998236
w3#4zo7;22;False;2;P != T2?;ST2_low_3;2;Same;low;70;112;112;f;n;0;f;b;1003.6344000000099
w3#4zo7;23;False;2;P != T1?;ST1_low_5;1;Same;low;96;154;96;f;n;0;f;v;1697.2870999998122
w3#4zo7;24;False;2;P != T2?;STb_2;0;Same;None;70;70;70;f;n;1;j;b;572.0212999999603
w3#4zo7;25;False;2;P != T2?;ST1_low_4;1;Same;low;112;70;112;f;n;0;j;v;417.52630000019053
w3#4zo7;26;False;2;P != T2?;ST2_low_5;2;Same;low;96;154;154;f;n;1;j;b;810.2834000001167
w3#4zo7;27;False;2;P != T1?;DT2_low_4;2;Different;low;112;70;60;f;n;1;f;v;893.7314999998307
w3#4zo7;28;False;2;P != T2?;DT2_high_4;2;Different;high;96;70;60;f;n;0;j;v;828.5298999999213
w3#4zo7;29;False;2;P != T1?;ST2_high_6;2;Same;high;132;96;96;f;n;0;j;b;393.2350999998562
w3#4zo7;30;False;2;P != T1?;ST2_high_3;2;Same;high;70;96;96;f;n;1;f;v;1516.2046999998893
w3#4zo7;31;False;2;P != T2?;ST2_high_5;2;Same;high;96;132;132;f;n;1;j;n;412.48940000014045
w3#4zo7;32;False;2;P != T2?;ST1_high_4;1;Same;high;96;70;96;f;n;0;j;b;396.99530000007144
w3#4zo7;33;False;2;P != T2?;STb_5;0;Same;None;112;112;112;f;n;1;j;b;985.4789999999412
w3#4zo7;34;False;2;P != T1?;ST1_low_2;1;Same;low;132;82;132;f;n;0;f;v;727.4716000001717
w3#4zo7;35;False;2;P != T2?;ST2_low_2;2;Same;low;132;82;82;f;n;1;j;b;421.024899999793
w3#4zo7;36;False;2;P != T2?;ST1_low_6;1;Same;low;154;96;154;f;n;0;j;b;771.9069999998283
w3#4zo7;37;False;2;P != T1?;ST1_low_1;1;Same;low;82;132;82;f;n;1;j;b;421.9311000001653
w3#4zo7;38;False;2;P != T2?;ST2_low_4;2;Same;low;112;70;70;f;n;1;j;b;870.1575000000048
w3#4zo7;39;False;2;P != T2?;ST2_high_3;2;Same;high;70;96;96;f;n;1;j;b;505.50939999993716
w3#4zo7;40;False;2;P != T2?;ST2_low_6;2;Same;low;154;96;96;f;n;1;j;b;286.6459000001669
w3#4zo7;41;False;2;P != T2?;ST2_high_3;2;Same;high;70;96;96;f;n;1;j;b;384.3618000000788
w3#4zo7;42;False;2;P != T2?;STb_4;0;Same;None;96;96;96;f;n;1;j;b;758.9532000001782
w3#4zo7;43;False;2;P != T1?;ST2_high_6;2;Same;high;132;96;96;f;n;0;j;b;713.7769999999364
w3#4zo7;44;False;2;P != T2?;DT2_low_3;2;Different;low;70;112;132;f;n;0;j;b;681.3594999998713
w3#4zo7;45;False;2;P != T2?;ST2_low_5;2;Same;low;96;154;154;f;n;1;j;b;690.0394999997843
w3#4zo7;46;False;2;P != T2?;STb_6;0;Same;None;132;132;132;f;n;1;j;b;826.3753000001088
w3#4zo7;47;False;2;P != T2?;ST2_high_2;2;Same;high;112;82;82;f;n;1;j;b;761.5086999999221
w3#4zo7;48;False;2;P != T1?;ST2_high_2;2;Same;high;112;82;82;f;n;1;f;v;1305.4161999998541
w3#4zo7;49;False;2;P != T2?;ST1_high_2;1;Same;high;112;82;112;f;n;0;j;b;790.8202000003257
w3#4zo7;50;False;2;P != T2?;ST1_low_1;1;Same;low;82;132;82;f;n;0;j;b;1245.7953000002817
w3#4zo7;51;False;2;P != T1?;ST1_low_5;1;Same;low;96;154;96;f;n;1;j;b;1886.2761000000319
w3#4zo7;52;False;2;P != T2?;ST1_high_5;1;Same;high;96;132;96;f;n;0;j;b;373.60690000014074
w3#4zo7;53;False;2;P != T2?;ST2_high_1;2;Same;high;82;112;112;f;n;1;j;b;736.0467999997127
w3#4zo7;54;False;2;P != T2?;ST1_high_1;1;Same;high;82;112;82;f;n;0;j;b;778.0779999998231
w3#4zo7;55;False;2;P != T1?;ST1_low_6;1;Same;low;154;96;154;f;n;1;j;b;439.37800000003335
w3#4zo7;56;False;2;P != T1?;ST1_low_1;1;Same;low;82;132;82;f;n;1;j;b;461.9443000001411
w3#4zo7;57;False;2;P != T1?;ST2_low_2;2;Same;low;132;82;82;f;n;1;f;v;1299.7424999998657
w3#4zo7;58;False;2;P != T1?;ST2_low_4;2;Same;low;112;70;70;f;n;0;j;v;428.4965000001648
w3#4zo7;59;False;2;P != T2?;ST2_low_3;2;Same;low;70;112;112;f;n;0;f;v;1139.8615000002792
w3#4zo7;60;False;2;P != T1?;ST2_high_1;2;Same;high;82;112;112;f;n;0;j;b;765.6689999998889
w3#4zo7;61;False;2;P != T1?;STb_1;0;Same;None;60;60;60;f;n;0;f;v;27.60100000023158
w3#4zo7;62;False;2;P != T2?;ST2_high_1;2;Same;high;82;112;112;f;n;1;j;b;389.1837000001033
w3#4zo7;63;False;2;P != T2?;DT2_low_6;2;Different;low;154;96;82;f;n;0;j;b;593.3633999998165
w3#4zo7;64;False;2;P != T1?;DT1_low_6;1;Different;low;154;96;180;f;n;0;j;b;913.8545999999224
w3#4zo7;65;False;2;P != T1?;ST1_low_2;1;Same;low;132;82;132;f;n;0;f;b;825.0165000004017
w3#4zo7;66;False;2;P != T2?;ST2_high_1;2;Same;high;82;112;112;f;n;1;j;v;441.7759999996633
w3#4zo7;67;False;2;P != T2?;ST1_low_3;1;Same;low;70;112;70;f;n;0;j;v;396.54780000000756
w3#4zo7;68;False;2;P != T1?;ST1_low_6;1;Same;low;154;96;154;f;n;0;f;b;981.8073999999797
w3#4zo7;69;False;2;P != T2?;ST2_high_4;2;Same;high;96;70;70;f;n;1;j;v;715.8516999998028
w3#4zo7;70;False;2;P != T1?;ST2_high_1;2;Same;high;82;112;112;f;n;1;f;b;668.2729000003746
w3#4zo7;71;False;2;P != T1?;ST2_high_5;2;Same;high;96;132;132;f;n;0;j;b;332.14300000008734
w3#4zo7;72;False;2;P != T2?;ST2_high_2;2;Same;high;112;82;82;f;n;1;j;b;673.248699999931
w3#4zo7;73;False;2;P != T2?;ST1_low_2;1;Same;low;132;82;132;f;n;0;j;b;431.7510000000766
w3#4zo7;74;False;2;P != T1?;ST1_low_3;1;Same;low;70;112;70;f;n;1;j;b;310.3521999996701
w3#4zo7;75;False;2;P != T2?;ST1_high_5;1;Same;high;96;132;96;f;n;0;j;v;428.8398999997298
w3#4zo7;76;False;2;P != T2?;ST2_low_1;2;Same;low;82;132;132;f;n;1;j;v;368.03069999996296
w3#4zo7;77;False;2;P != T2?;ST1_low_4;1;Same;low;112;70;112;f;n;0;j;v;1117.1964999998636
w3#4zo7;78;False;2;P != T2?;ST1_high_6;1;Same;high;132;96;132;f;n;0;j;v;344.22159999985524
w3#4zo7;79;False;2;P != T1?;STb_2;0;Same;None;70;70;70;f;n;1;j;v;671.2603999999374
w3#4zo7;80;False;2;P != T1?;ST1_high_1;1;Same;high;82;112;82;f;n;1;j;v;2037.5858000002154
w3#4zo7;81;False;2;P != T1?;ST2_low_6;2;Same;low;154;96;96;f;n;0;j;v;963.6843000002955
w3#4zo7;82;False;2;P != T1?;ST2_low_5;2;Same;low;96;154;154;f;n;1;f;v;1002.9005999999754
w3#4zo7;83;False;2;P != T2?;DT2_low_1;2;Different;low;82;132;154;f;n;0;j;v;416.54739999967205
w3#4zo7;84;False;2;P != T2?;ST1_low_2;1;Same;low;132;82;132;f;n;0;j;v;787.3806000002332
w3#4zo7;85;False;2;P != T1?;STb_8;0;Same;None;180;180;180;f;n;0;f;v;1774.791499999992
w3#4zo7;86;False;2;P != T1?;ST1_high_4;1;Same;high;96;70;96;f;n;1;j;v;513.1802000000789
w3#4zo7;87;False;2;P != T2?;ST2_low_2;2;Same;low;132;82;82;f;n;0;f;v;481.4393999999993
w3#4zo7;88;False;2;P != T1?;ST2_low_5;2;Same;low;96;154;154;f;n;0;j;v;363.7450000001081
w3#4zo7;89;False;2;P != T2?;ST2_high_5;2;Same;high;96;132;132;f;n;1;j;v;710.7412999998814
w3#4zo7;90;False;2;P != T2?;ST2_high_3;2;Same;high;70;96;96;f;n;1;j;b;495.32549999958064
w3#4zo7;91;False;2;P != T2?;ST1_low_3;1;Same;low;70;112;70;f;n;0;j;b;616.356900000028
w3#4zo7;92;False;2;P != T2?;STb_7;0;Same;None;154;154;154;f;n;1;j;b;360.8745000001363
w3#4zo7;93;False;2;P != T2?;ST2_high_5;2;Same;high;96;132;132;f;n;1;j;b;412.35850000020946
w3#4zo7;94;False;2;P != T1?;ST1_high_2;1;Same;high;112;82;112;f;n;1;j;v;1081.2354999998206
w3#4zo7;95;False;2;P != T2?;STb_8;0;Same;None;180;180;180;f;n;1;j;n;363.0891999996493
w3#4zo7;96;False;2;P != T1?;ST2_high_2;2;Same;high;112;82;82;f;n;0;j;b;479.08789999974033
w3#4zo7;97;False;2;P != T1?;DT1_high_6;1;Different;high;132;96;154;f;n;1;f;v;1403.6489000000074
w3#4zo7;98;False;2;P != T2?;ST2_high_4;2;Same;high;96;70;70;f;n;1;j;b;656.7627999997967
w3#4zo7;99;False;2;P != T2?;ST2_low_4;2;Same;low;112;70;70;f;n;1;j;b;342.1954000000369
w3#4zo7;100;False;2;P != T1?;STb_6;0;Same;None;132;132;132;f;n;1;j;b;749.4123999999829
w3#4zo7;101;False;2;P != T1?;DT1_low_4;1;Different;low;112;70;132;f;n;0;j;v;1231.9484999998167
w3#4zo7;102;False;2;P != T1?;ST2_high_3;2;Same;high;70;96;96;f;n;0;j;b;1167.9008000000977
w3#4zo7;103;False;2;P != T1?;ST1_low_1;1;Same;low;82;132;82;f;n;1;j;v;436.8786
w3#4zo7;104;False;2;P != T1?;ST2_high_5;2;Same;high;96;132;132;f;n;0;j;b;603.0699000002642
w3#4zo7;105;False;2;P != T2?;ST1_low_3;1;Same;low;70;112;70;f;n;0;j;b;347.35319999981584
w3#4zo7;106;False;2;P != T2?;ST2_low_6;2;Same;low;154;96;96;f;n;1;j;b;628.4257999996044
w3#4zo7;107;False;2;P != T2?;DT2_high_1;2;Different;high;82;112;132;f;n;0;j;n;402.8226000000359
w3#4zo7;108;False;2;P != T1?;ST2_low_3;2;Same;low;70;112;112;f;n;0;j;b;406.6373000000567
w3#4zo7;109;False;2;P != T2?;ST1_low_1;1;Same;low;82;132;82;f;n;0;j;b;467.5278999998227
w3#4zo7;110;False;2;P != T1?;STb_4;0;Same;None;96;96;96;f;n;1;j;v;547.0439999999144
w3#4zo7;111;False;2;P != T2?;DT1_low_1;1;Different;low;82;132;70;f;n;0;j;v;600.1814999999624
w3#4zo7;112;False;2;P != T2?;ST2_low_4;2;Same;low;112;70;70;f;n;1;j;v;261.5813000002163
w3#4zo7;113;False;2;P != T2?;ST1_low_4;1;Same;low;112;70;112;f;n;0;j;v;1026.5610000001288
w3#4zo7;114;False;2;P != T1?;ST2_low_5;2;Same;low;96;154;154;f;n;0;j;b;1421.6608000001543
w3#4zo7;115;False;2;P != T1?;ST1_high_5;1;Same;high;96;132;96;f;n;1;j;b;1112.5365999996575
w3#4zo7;116;False;2;P != T1?;ST1_high_5;1;Same;high;96;132;96;f;n;1;j;v;852.7899000000616
w3#4zo7;117;False;2;P != T1?;ST2_high_4;2;Same;high;96;70;70;f;n;0;j;b;418.77379999959885
w3#4zo7;118;False;2;P != T1?;DT2_high_3;2;Different;high;70;96;112;f;n;0;j;v;993.2648999997582
w3#4zo7;119;False;2;P != T2?;ST2_high_6;2;Same;high;132;96;96;f;n;1;j;v;745.1544999998987
w3#4zo7;120;False;2;P != T2?;ST1_high_4;1;Same;high;96;70;96;f;n;0;j;b;603.0417000001762
w3#4zo7;121;False;2;P != T1?;DT1_high_5;1;Different;high;96;132;82;f;n;0;j;v;829.411600000185
w3#4zo7;122;False;2;P != T1?;ST2_high_3;2;Same;high;70;96;96;f;n;0;j;v;1117.8703000000496
w3#4zo7;123;False;2;P != T1?;ST1_low_4;1;Same;low;112;70;112;f;n;1;j;v;1130.4599999998572
w3#4zo7;124;False;2;P != T1?;ST1_high_2;1;Same;high;112;82;112;f;n;0;f;v;1017.975899999783
w3#4zo7;125;False;2;P != T1?;ST2_low_3;2;Same;low;70;112;112;f;n;0;j;v;512.2956999998678
w3#4zo7;126;False;2;P != T1?;ST1_low_3;1;Same;low;70;112;70;f;n;0;f;v;956.9175000001451
w3#4zo7;127;False;2;P != T1?;ST2_low_3;2;Same;low;70;112;112;f;n;0;j;b;824.3962000001375
w3#4zo7;128;False;2;P != T1?;ST2_low_2;2;Same;low;132;82;82;f;n;0;j;v;1094.2114999998012
w3#4zo7;129;False;2;P != T1?;ST1_low_2;1;Same;low;132;82;132;f;n;1;j;v;1009.1247999998814
w3#4zo7;130;False;2;P != T1?;ST1_low_6;1;Same;low;154;96;154;f;n;1;j;b;356.94139999986874
w3#4zo7;131;False;2;P != T2?;ST2_low_5;2;Same;low;96;154;154;f;n;1;j;n;1185.2461999997104
w3#4zo7;132;False;2;P != T1?;ST1_high_6;1;Same;high;132;96;132;f;n;1;j;b;762.4463000001924
w3#4zo7;133;False;2;P != T2?;ST1_high_1;1;Same;high;82;112;82;f;n;0;j;v;778.4945999997035
w3#4zo7;134;False;2;P != T2?;ST2_low_3;2;Same;low;70;112;112;f;n;1;j;v;689.4202000003133
w3#4zo7;135;False;2;P != T1?;STb_3;0;Same;None;82;82;82;f;n;1;j;v;388.30189999998765
w3#4zo7;136;False;2;P != T2?;ST1_low_6;1;Same;low;154;96;154;f;n;0;j;v;828.9810000001125
w3#4zo7;137;False;2;P != T2?;ST1_high_6;1;Same;high;132;96;132;f;n;0;j;v;834.2648999996527
w3#4zo7;138;False;2;P != T1?;ST2_high_1;2;Same;high;82;112;112;f;n;0;j;b;1251.3853000000381
w3#4zo7;139;False;2;P != T2?;ST1_low_5;1;Same;low;96;154;96;f;n;0;j;v;2502.849100000276
w3#4zo7;140;False;2;P != T1?;ST2_high_5;2;Same;high;96;132;132;f;n;0;j;b;1076.9891000004463
w3#4zo7;141;False;2;P != T1?;ST1_high_4;1;Same;high;96;70;96;f;n;1;j;v;1019.5358000000851
w3#4zo7;142;False;2;P != T1?;ST1_high_2;1;Same;high;112;82;112;f;n;1;j;b;476.8816999999217
w3#4zo7;143;False;2;P != T2?;ST1_high_5;1;Same;high;96;132;96;f;n;0;j;b;1037.4228999999104
w3#4zo7;144;False;2;P != T1?;ST2_low_4;2;Same;low;112;70;70;f;n;0;j;b;1199.4958999998744
w3#4zo7;145;False;2;P != T1?;ST2_high_2;2;Same;high;112;82;82;f;n;1;f;v;910.7279999998354
w3#4zo7;146;False;2;P != T2?;ST2_high_6;2;Same;high;132;96;96;f;n;1;j;b;527.8962000002139
w3#4zo7;147;False;2;P != T1?;ST1_low_3;1;Same;low;70;112;70;f;n;0;f;v;781.2060000001111
w3#4zo7;148;False;2;P != T1?;ST1_high_1;1;Same;high;82;112;82;f;n;1;j;b;753.2922999998846
w3#4zo7;149;False;2;P != T1?;ST1_high_3;1;Same;high;70;96;70;f;n;1;j;b;512.5882999996065
w3#4zo7;150;False;2;P != T2?;ST1_high_4;1;Same;high;96;70;96;f;n;0;j;b;396.6298000000279
w3#4zo7;151;False;2;P != T1?;ST2_low_6;2;Same;low;154;96;96;f;n;0;j;b;487.09899999994377
w3#4zo7;152;False;2;P != T2?;ST1_high_2;1;Same;high;112;82;112;f;n;0;j;v;821.1484000003111
w3#4zo7;153;False;2;P != T1?;ST1_low_5;1;Same;low;96;154;96;f;n;1;j;n;1084.8559000000932
w3#4zo7;154;False;2;P != T2?;ST1_high_3;1;Same;high;70;96;70;f;n;0;j;b;377.3714999997537
w3#4zo7;155;False;2;P != T1?;ST2_low_6;2;Same;low;154;96;96;f;n;0;j;v;1047.6439999997638
w3#4zo7;156;False;2;P != T2?;ST1_high_3;1;Same;high;70;96;70;f;n;0;j;b;678.811300000234
w3#4zo7;157;False;2;P != T1?;ST2_low_2;2;Same;low;132;82;82;f;n;0;j;v;761.47439999977
w3#4zo7;158;False;2;P != T1?;ST2_low_1;2;Same;low;82;132;132;f;n;0;j;b;771.5040999996745
w3#4zo7;159;False;2;P != T2?;STb_3;0;Same;None;82;82;82;f;n;1;j;v;1014.8070000000189
w3#4zo7;160;False;2;P != T2?;ST2_low_1;2;Same;low;82;132;132;f;n;1;j;v;739.8832999997467
w3#4zo7;161;False;2;P != T1?;DT2_high_4;2;Different;high;96;70;60;f;n;1;f;v;820.156699999643
w3#4zo7;162;False;2;P != T1?;ST2_low_1;2;Same;low;82;132;132;f;n;0;j;n;819.5783000001029
w3#4zo7;163;False;2;P != T2?;ST1_low_5;1;Same;low;96;154;96;f;n;1;f;v;1214.2525000003843
w3#4zo7;164;False;2;P != T2?;ST2_low_1;2;Same;low;82;132;132;f;n;1;j;b;391.9780000001083
w3#4zo7;165;False;2;P != T1?;ST1_low_4;1;Same;low;112;70;112;f;n;1;j;v;1145.6222000001617
w3#4zo7;166;False;2;P != T1?;ST2_high_4;2;Same;high;96;70;70;f;n;0;j;v;783.000699999775
w3#4zo7;167;False;2;P != T2?;ST1_high_1;1;Same;high;82;112;82;f;n;0;j;v;509.983899999952
w3#4zo7;168;False;2;P != T1?;ST1_high_6;1;Same;high;132;96;132;f;n;1;j;v;1345.7541000002493
w3#4zo7;169;False;2;P != T2?;ST1_low_5;1;Same;low;96;154;96;f;n;0;j;v;886.772800000017
w3#4zo7;170;False;2;P != T1?;STb_5;0;Same;None;112;112;112;f;n;1;j;b;693.4959999998682
w3#4zo7;171;False;2;P != T2?;ST2_low_6;2;Same;low;154;96;96;f;n;1;j;b;469.7179999998298
w3#4zo7;172;False;2;P != T2?;ST1_low_6;1;Same;low;154;96;154;f;n;0;j;b;451.9474000003356
w3#4zo7;173;False;2;P != T1?;ST1_low_4;1;Same;low;112;70;112;f;n;0;f;v;790.8893999997417
w3#4zo7;174;False;2;P != T2?;ST2_high_2;2;Same;high;112;82;82;f;n;1;j;n;384.3827999999121
w3#4zo7;175;False;2;P != T1?;ST2_high_6;2;Same;high;132;96;96;f;n;0;j;v;1292.9221999993388
w3#4zo7;176;False;2;P != T1?;ST1_high_4;1;Same;high;96;70;96;f;n;0;f;v;950.0157000002218
