p_code;trial_nr;practice;block;question;condition;seqPos;Same_or_Diff;ITS;T1_hz;T2_hz;P_hz;yes_key;sure_key;correct;yes_no;rating;resp_time
r!3wy58;1;True;1;P != T2?;STb_4;0;Same;None;96;96;96;f;v;1;j;v;2355.742600000042
r!3wy58;2;True;1;P != T1?;ST2_high_6;2;Same;high;132;96;96;f;v;0;j;v;1572.7022000000375
r!3wy58;3;True;1;P != T2?;ST1_high_3;1;Same;high;70;96;70;f;v;0;j;b;2782.337200000029
r!3wy58;4;True;1;P != T1?;ST1_high_5;1;Same;high;96;132;96;f;v;1;j;b;1259.782599999994
r!3wy58;5;True;1;P != T2?;ST2_low_2;2;Same;low;132;82;82;f;v;1;j;b;4657.96069999999
r!3wy58;6;True;1;P != T1?;DT2_high_1;2;Different;high;82;112;132;f;v;1;f;b;2954.192400000011
r!3wy58;7;True;1;P != T2?;DT2_low_6;2;Different;low;154;96;82;f;v;1;f;v;1782.2788999999943
r!3wy58;8;True;1;P != T1?;STb_6;0;Same;None;132;132;132;f;v;0;f;b;3231.12500000002
r!3wy58;9;True;1;P != T2?;STb_5;0;Same;None;112;112;112;f;v;0;f;v;2223.2566000000133
r!3wy58;10;True;1;P != T1?;ST2_high_1;2;Same;high;82;112;112;f;v;0;j;b;3076.042099999995
r!3wy58;11;True;1;P != T1?;STb_1;0;Same;None;60;60;60;f;v;1;j;v;1049.5961000000307
r!3wy58;12;True;1;P != T1?;DT2_low_3;2;Different;low;70;112;132;f;v;1;f;v;5326.765099999989
r!3wy58;13;True;1;P != T2?;ST2_low_3;2;Same;low;70;112;112;f;v;1;j;v;1105.8841000000257
r!3wy58;14;True;1;P != T2?;DT2_low_1;2;Different;low;82;132;154;f;v;0;j;n;2615.5489000000216
r!3wy58;15;True;1;P != T2?;ST1_high_5;1;Same;high;96;132;96;f;v;1;f;v;3822.4080999999615
r!3wy58;16;True;1;P != T1?;ST1_high_4;1;Same;high;96;70;96;f;v;1;j;b;2736.3967000000002
p_code;trial_nr;practice;block;question;condition;seqPos;Same_or_Diff;ITS;T1_hz;T2_hz;P_hz;yes_key;sure_key;correct;yes_no;rating;resp_time
r!3wy58;1;False;1;P != T2?;ST1_high_2;1;Same;high;112;82;112;f;v;1;f;n;3757.6070000000072
r!3wy58;2;False;1;P != T1?;ST1_high_3;1;Same;high;70;96;70;f;v;0;f;b;1645.1167999999825
r!3wy58;3;False;1;P != T2?;ST1_low_1;1;Same;low;82;132;82;f;v;1;f;v;1982.3307999999997
r!3wy58;4;False;1;P != T2?;ST1_low_3;1;Same;low;70;112;70;f;v;1;f;v;1387.3817999999574
r!3wy58;5;False;1;P != T1?;ST2_low_6;2;Same;low;154;96;96;f;v;0;j;v;1584.5381999999972
r!3wy58;6;False;1;P != T1?;ST1_high_5;1;Same;high;96;132;96;f;v;1;j;n;2608.9236000000255
r!3wy58;7;False;1;P != T1?;ST1_low_5;1;Same;low;96;154;96;f;v;1;j;b;1605.4837000000362
r!3wy58;8;False;1;P != T1?;ST2_low_6;2;Same;low;154;96;96;f;v;1;f;b;1711.6421999999147
r!3wy58;9;False;1;P != T1?;ST1_high_5;1;Same;high;96;132;96;f;v;1;j;n;1618.9117000000124
r!3wy58;10;False;1;P != T2?;ST2_high_5;2;Same;high;96;132;132;f;v;0;f;b;1558.104500000013
r!3wy58;11;False;1;P != T2?;ST2_high_4;2;Same;high;96;70;70;f;v;0;f;n;7043.710000000033
r!3wy58;12;False;1;P != T2?;ST2_high_3;2;Same;high;70;96;96;f;v;1;j;n;1689.352299999996
r!3wy58;13;False;1;P != T2?;STb_8;0;Same;None;180;180;180;f;v;0;f;b;6675.900099999922
r!3wy58;14;False;1;P != T1?;ST1_low_3;1;Same;low;70;112;70;f;v;1;j;b;2412.877999999978
r!3wy58;15;False;1;P != T1?;ST2_high_5;2;Same;high;96;132;132;f;v;1;f;b;1553.697599999964
r!3wy58;16;False;1;P != T2?;ST1_high_6;1;Same;high;132;96;132;f;v;1;f;v;930.8546999999407
r!3wy58;17;False;1;P != T2?;ST1_high_5;1;Same;high;96;132;96;f;v;1;f;v;1976.1670999999978
r!3wy58;18;False;1;P != T2?;ST1_high_4;1;Same;high;96;70;96;f;v;0;j;v;702.1515000000136
r!3wy58;19;False;1;P != T2?;ST2_high_5;2;Same;high;96;132;132;f;v;0;f;b;2768.3517000000393
r!3wy58;20;False;1;P != T2?;ST2_low_5;2;Same;low;96;154;154;f;v;0;f;b;6571.694799999932
r!3wy58;21;False;1;P != T2?;ST2_low_1;2;Same;low;82;132;132;f;v;0;f;n;1169.6249999999964
r!3wy58;22;False;1;P != T1?;ST2_high_3;2;Same;high;70;96;96;f;v;0;j;v;1610.6671000000006
r!3wy58;23;False;1;P != T1?;STb_8;0;Same;None;180;180;180;f;v;1;j;v;454.1863999999123
r!3wy58;24;False;1;P != T2?;ST1_low_5;1;Same;low;96;154;96;f;v;1;f;n;1332.9433000000108
r!3wy58;25;False;1;P != T2?;ST1_high_6;1;Same;high;132;96;132;f;v;1;f;v;3578.575600000022
r!3wy58;26;False;1;P != T1?;ST2_high_4;2;Same;high;96;70;70;f;v;1;f;v;3728.056400000014
r!3wy58;27;False;1;P != T2?;STb_2;0;Same;None;70;70;70;f;v;0;f;v;1406.1996000000363
r!3wy58;28;False;1;P != T1?;ST1_high_6;1;Same;high;132;96;132;f;v;1;j;v;1038.1380000000036
r!3wy58;29;False;1;P != T1?;DT2_high_6;2;Different;high;132;96;82;f;v;0;j;v;2084.8270000000184
r!3wy58;30;False;1;P != T1?;ST2_high_1;2;Same;high;82;112;112;f;v;1;f;b;1463.8289999999188
r!3wy58;31;False;1;P != T1?;ST2_high_5;2;Same;high;96;132;132;f;v;0;j;v;2422.740200000021
r!3wy58;32;False;1;P != T2?;ST1_low_6;1;Same;low;154;96;154;f;v;1;f;v;1120.9451999999374
r!3wy58;33;False;1;P != T2?;ST1_low_6;1;Same;low;154;96;154;f;v;0;j;v;1148.5987999999452
r!3wy58;34;False;1;P != T1?;STb_4;0;Same;None;96;96;96;f;v;1;j;v;1789.1434000000572
r!3wy58;35;False;1;P != T1?;ST2_high_2;2;Same;high;112;82;82;f;v;0;j;b;2595.791599999984
r!3wy58;36;False;1;P != T1?;ST2_low_5;2;Same;low;96;154;154;f;v;1;f;v;1322.1604000000298
r!3wy58;37;False;1;P != T1?;ST1_high_2;1;Same;high;112;82;112;f;v;1;j;v;1077.1483999999418
r!3wy58;38;False;1;P != T2?;ST2_high_6;2;Same;high;132;96;96;f;v;1;j;n;1606.3285999999835
r!3wy58;39;False;1;P != T1?;ST2_low_2;2;Same;low;132;82;82;f;v;0;j;b;1239.1073000000006
r!3wy58;40;False;1;P != T1?;ST2_high_4;2;Same;high;96;70;70;f;v;1;f;b;2081.4531999999417
r!3wy58;41;False;1;P != T1?;ST1_low_4;1;Same;low;112;70;112;f;v;1;j;b;974.0861000000223
r!3wy58;42;False;1;P != T1?;ST1_high_1;1;Same;high;82;112;82;f;v;1;j;n;2129.4192000000294
r!3wy58;43;False;1;P != T1?;ST1_high_4;1;Same;high;96;70;96;f;v;1;j;b;1586.0715000000027
r!3wy58;44;False;1;P != T1?;ST1_low_1;1;Same;low;82;132;82;f;v;0;f;n;1617.8602999998475
r!3wy58;45;False;1;P != T2?;ST2_low_2;2;Same;low;132;82;82;f;v;0;f;v;1458.480100000088
r!3wy58;46;False;1;P != T1?;ST1_high_2;1;Same;high;112;82;112;f;v;1;j;v;1416.5995000000748
r!3wy58;47;False;1;P != T2?;ST2_low_1;2;Same;low;82;132;132;f;v;0;f;v;6230.776800000058
r!3wy58;48;False;1;P != T2?;DT2_high_2;2;Different;high;112;82;70;f;v;1;f;v;1476.8566999998711
r!3wy58;49;False;1;P != T1?;ST2_low_1;2;Same;low;82;132;132;f;v;1;f;v;2237.010199999986
r!3wy58;50;False;1;P != T2?;ST1_high_3;1;Same;high;70;96;70;f;v;1;f;v;1531.1007000000245
r!3wy58;51;False;1;P != T1?;ST2_low_3;2;Same;low;70;112;112;f;v;1;f;b;1138.6984999999186
r!3wy58;52;False;1;P != T1?;ST1_high_2;1;Same;high;112;82;112;f;v;1;j;b;1972.5593999999091
r!3wy58;53;False;1;P != T1?;ST1_low_4;1;Same;low;112;70;112;f;v;1;j;b;2837.3042999999143
r!3wy58;54;False;1;P != T1?;ST2_low_6;2;Same;low;154;96;96;f;v;1;f;b;3256.722299999865
r!3wy58;55;False;1;P != T2?;DT1_low_5;1;Different;low;96;154;82;f;v;1;f;b;2591.9223999999303
r!3wy58;56;False;1;P != T2?;ST2_high_6;2;Same;high;132;96;96;f;v;1;j;b;1071.704899999986
r!3wy58;57;False;1;P != T1?;DT2_high_3;2;Different;high;70;96;112;f;v;1;f;v;1328.7682000000132
r!3wy58;58;False;1;P != T1?;ST1_low_1;1;Same;low;82;132;82;f;v;0;f;b;3607.0044000000507
r!3wy58;59;False;1;P != T1?;ST2_low_1;2;Same;low;82;132;132;f;v;1;f;b;1707.991699999866
r!3wy58;60;False;1;P != T2?;ST1_low_3;1;Same;low;70;112;70;f;v;1;f;v;1187.3329000000012
r!3wy58;61;False;1;P != T1?;ST2_high_1;2;Same;high;82;112;112;f;v;1;f;v;1168.0893999998716
r!3wy58;62;False;1;P != T1?;ST2_low_2;2;Same;low;132;82;82;f;v;1;f;b;1037.8094000000146
r!3wy58;63;False;1;P != T1?;ST1_high_4;1;Same;high;96;70;96;f;v;1;j;v;1458.437700000104
r!3wy58;64;False;1;P != T1?;ST2_low_4;2;Same;low;112;70;70;f;v;1;f;n;1922.980999999936
r!3wy58;65;False;1;P != T2?;ST2_low_4;2;Same;low;112;70;70;f;v;1;j;b;3560.0650999999743
r!3wy58;66;False;1;P != T1?;ST1_low_5;1;Same;low;96;154;96;f;v;1;j;b;6429.259799999954
r!3wy58;67;False;1;P != T1?;ST1_high_6;1;Same;high;132;96;132;f;v;1;j;v;5513.6326000001645
r!3wy58;68;False;1;P != T2?;ST1_low_2;1;Same;low;132;82;132;f;v;1;f;v;1739.2474999999195
r!3wy58;69;False;1;P != T1?;ST2_high_2;2;Same;high;112;82;82;f;v;1;f;v;1281.2584000000697
r!3wy58;70;False;1;P != T2?;ST1_high_1;1;Same;high;82;112;82;f;v;0;j;b;996.2926999999127
r!3wy58;71;False;1;P != T1?;ST1_high_3;1;Same;high;70;96;70;f;v;1;j;v;1509.2025999999805
r!3wy58;72;False;1;P != T1?;DT2_high_4;2;Different;high;96;70;60;f;v;1;f;v;1166.5135999999166
r!3wy58;73;False;1;P != T1?;ST2_low_3;2;Same;low;70;112;112;f;v;1;f;v;1632.8965999998672
r!3wy58;74;False;1;P != T1?;ST2_high_1;2;Same;high;82;112;112;f;v;0;j;v;1862.4383000001217
r!3wy58;75;False;1;P != T2?;ST2_low_5;2;Same;low;96;154;154;f;v;0;f;b;1403.4272999999757
r!3wy58;76;False;1;P != T2?;ST2_high_3;2;Same;high;70;96;96;f;v;1;j;n;1914.828899999975
r!3wy58;77;False;1;P != T2?;ST1_high_2;1;Same;high;112;82;112;f;v;1;f;v;1288.3532000000741
r!3wy58;78;False;1;P != T2?;ST2_low_6;2;Same;low;154;96;96;f;v;0;f;v;1735.1011999999173
r!3wy58;79;False;1;P != T1?;ST2_low_3;2;Same;low;70;112;112;f;v;0;j;b;1969.5858999998563
r!3wy58;80;False;1;P != T2?;ST1_high_6;1;Same;high;132;96;132;f;v;1;f;v;2222.4776999998994
r!3wy58;81;False;1;P != T1?;ST2_low_2;2;Same;low;132;82;82;f;v;1;f;b;1089.73519999995
r!3wy58;82;False;1;P != T1?;ST1_low_6;1;Same;low;154;96;154;f;v;0;f;v;3214.3529999998464
r!3wy58;83;False;1;P != T2?;ST1_low_5;1;Same;low;96;154;96;f;v;1;f;v;1912.1218000000226
r!3wy58;84;False;1;P != T2?;ST2_low_3;2;Same;low;70;112;112;f;v;0;f;v;973.3056999998553
r!3wy58;85;False;1;P != T1?;STb_1;0;Same;None;60;60;60;f;v;1;j;v;450.1800999998977
r!3wy58;86;False;1;P != T1?;DT1_low_3;1;Different;low;70;112;60;f;v;1;f;v;702.9296000000613
r!3wy58;87;False;1;P != T2?;ST1_high_4;1;Same;high;96;70;96;f;v;1;f;v;1130.8484999999564
r!3wy58;88;False;1;P != T1?;ST2_low_1;2;Same;low;82;132;132;f;v;1;f;v;1746.8317000000297
r!3wy58;89;False;1;P != T2?;ST1_low_3;1;Same;low;70;112;70;f;v;1;f;v;1618.0123999999978
r!3wy58;90;False;1;P != T2?;ST2_high_1;2;Same;high;82;112;112;f;v;1;j;n;1617.9729000000407
r!3wy58;91;False;1;P != T2?;ST1_low_4;1;Same;low;112;70;112;f;v;1;f;v;1336.813500000062
r!3wy58;92;False;1;P != T2?;ST1_high_5;1;Same;high;96;132;96;f;v;0;j;v;645.4423999998653
r!3wy58;93;False;1;P != T1?;ST1_high_6;1;Same;high;132;96;132;f;v;1;j;b;1638.5961000000862
r!3wy58;94;False;1;P != T2?;ST2_high_6;2;Same;high;132;96;96;f;v;0;f;v;2417.4152999999023
r!3wy58;95;False;1;P != T1?;ST2_high_3;2;Same;high;70;96;96;f;v;0;j;v;913.374900000008
r!3wy58;96;False;1;P != T2?;ST1_low_4;1;Same;low;112;70;112;f;v;1;f;v;1302.5441999998293
r!3wy58;97;False;1;P != T1?;ST2_high_6;2;Same;high;132;96;96;f;v;0;j;v;1761.2598000000617
r!3wy58;98;False;1;P != T2?;ST2_high_2;2;Same;high;112;82;82;f;v;1;j;v;882.4094999999943
r!3wy58;99;False;1;P != T1?;ST1_low_3;1;Same;low;70;112;70;f;v;1;j;v;2938.699900000074
r!3wy58;100;False;1;P != T1?;ST1_low_6;1;Same;low;154;96;154;f;v;1;j;n;1189.3413999998756
r!3wy58;101;False;1;P != T1?;STb_7;0;Same;None;154;154;154;f;v;1;j;n;2428.571099999999
r!3wy58;102;False;1;P != T2?;ST2_low_3;2;Same;low;70;112;112;f;v;0;f;v;1124.5747000000392
r!3wy58;103;False;1;P != T2?;STb_1;0;Same;None;60;60;60;f;v;1;j;b;1716.7753999999604
r!3wy58;104;False;1;P != T1?;ST1_low_5;1;Same;low;96;154;96;f;v;1;j;b;2879.8861000000215
r!3wy58;105;False;1;P != T2?;ST2_low_4;2;Same;low;112;70;70;f;v;1;j;b;3665.927600000032
r!3wy58;106;False;1;P != T2?;ST1_low_2;1;Same;low;132;82;132;f;v;1;f;v;4095.6053999998403
r!3wy58;107;False;1;P != T1?;ST1_low_1;1;Same;low;82;132;82;f;v;1;j;v;2821.4748000000327
r!3wy58;108;False;1;P != T1?;DT1_low_2;1;Different;low;132;82;154;f;v;1;f;b;2585.685400000102
r!3wy58;109;False;1;P != T2?;ST1_high_2;1;Same;high;112;82;112;f;v;1;f;v;1364.8895999999695
r!3wy58;110;False;1;P != T1?;ST2_low_4;2;Same;low;112;70;70;f;v;1;f;v;1192.1067999999195
r!3wy58;111;False;1;P != T1?;DT1_high_1;1;Different;high;82;112;70;f;v;1;f;v;4787.926299999981
r!3wy58;112;False;1;P != T1?;ST1_high_1;1;Same;high;82;112;82;f;v;0;f;b;2824.251199999935
r!3wy58;113;False;1;P != T2?;ST1_low_1;1;Same;low;82;132;82;f;v;1;f;v;3634.7187999999733
r!3wy58;114;False;1;P != T2?;DT2_high_6;2;Different;high;132;96;82;f;v;0;j;v;402.59500000001935
r!3wy58;115;False;1;P != T2?;ST1_high_3;1;Same;high;70;96;70;f;v;0;j;n;1515.2974999998605
r!3wy58;116;False;1;P != T1?;ST1_low_2;1;Same;low;132;82;132;f;v;1;j;v;982.2802999999567
r!3wy58;117;False;1;P != T1?;ST2_high_6;2;Same;high;132;96;96;f;v;1;f;v;1641.0268999998152
r!3wy58;118;False;1;P != T2?;ST2_low_6;2;Same;low;154;96;96;f;v;0;f;b;1712.6307999999426
r!3wy58;119;False;1;P != T1?;ST2_low_4;2;Same;low;112;70;70;f;v;1;f;v;2231.7551999999523
r!3wy58;120;False;1;P != T2?;DT2_low_6;2;Different;low;154;96;82;f;v;0;j;b;2225.2132999999503
r!3wy58;121;False;1;P != T2?;DT1_high_4;1;Different;high;96;70;112;f;v;1;f;v;1250.0330000000304
r!3wy58;122;False;1;P != T2?;ST2_low_3;2;Same;low;70;112;112;f;v;0;f;v;1894.4738999998663
r!3wy58;123;False;1;P != T2?;ST2_low_6;2;Same;low;154;96;96;f;v;0;f;v;1230.5284999999913
r!3wy58;124;False;1;P != T2?;DT2_low_2;2;Different;low;132;82;70;f;v;1;f;v;1501.8080999998347
r!3wy58;125;False;1;P != T2?;ST1_high_1;1;Same;high;82;112;82;f;v;1;f;v;1295.3542000000198
r!3wy58;126;False;1;P != T2?;ST1_low_6;1;Same;low;154;96;154;f;v;1;f;v;1173.737200000005
r!3wy58;127;False;1;P != T2?;STb_4;0;Same;None;96;96;96;f;v;1;j;b;1378.6115000000336
r!3wy58;128;False;1;P != T1?;ST2_low_5;2;Same;low;96;154;154;f;v;1;f;v;1791.2073999998483
r!3wy58;129;False;1;P != T1?;ST1_low_2;1;Same;low;132;82;132;f;v;1;j;b;1826.4762999999675
r!3wy58;130;False;1;P != T2?;DT1_high_1;1;Different;high;82;112;70;f;v;1;f;v;829.7606999999516
r!3wy58;131;False;1;P != T1?;ST1_low_2;1;Same;low;132;82;132;f;v;1;j;b;1385.4797000001327
r!3wy58;132;False;1;P != T2?;ST1_low_1;1;Same;low;82;132;82;f;v;1;f;v;4296.032400000058
r!3wy58;133;False;1;P != T2?;ST2_high_4;2;Same;high;96;70;70;f;v;1;j;b;1649.6280999999726
r!3wy58;134;False;1;P != T1?;ST1_high_1;1;Same;high;82;112;82;f;v;1;j;b;974.4797000000744
r!3wy58;135;False;1;P != T2?;STb_6;0;Same;None;132;132;132;f;v;1;j;v;657.2017000000869
r!3wy58;136;False;1;P != T2?;ST1_high_1;1;Same;high;82;112;82;f;v;1;f;v;1305.28379999987
r!3wy58;137;False;1;P != T2?;ST2_high_3;2;Same;high;70;96;96;f;v;0;f;v;2163.3798999998817
r!3wy58;138;False;1;P != T2?;ST1_low_2;1;Same;low;132;82;132;f;v;1;f;v;934.5823999999539
r!3wy58;139;False;1;P != T1?;ST2_high_4;2;Same;high;96;70;70;f;v;1;f;v;1038.2239999999001
r!3wy58;140;False;1;P != T2?;ST2_high_1;2;Same;high;82;112;112;f;v;1;j;v;2028.69069999997
r!3wy58;141;False;1;P != T2?;ST1_high_4;1;Same;high;96;70;96;f;v;1;f;v;1582.727499999919
r!3wy58;142;False;1;P != T2?;ST1_high_3;1;Same;high;70;96;70;f;v;1;f;v;432.14530000000195
r!3wy58;143;False;1;P != T2?;ST2_low_2;2;Same;low;132;82;82;f;v;1;j;n;2871.431600000051
r!3wy58;144;False;1;P != T2?;ST2_high_4;2;Same;high;96;70;70;f;v;1;j;b;1366.6567999998733
r!3wy58;145;False;1;P != T1?;STb_2;0;Same;None;70;70;70;f;v;1;j;v;384.17630000003555
r!3wy58;146;False;1;P != T1?;STb_5;0;Same;None;112;112;112;f;v;1;j;n;1307.5026999999864
r!3wy58;147;False;1;P != T2?;ST2_high_2;2;Same;high;112;82;82;f;v;0;f;v;1204.107600000043
r!3wy58;148;False;1;P != T1?;ST1_low_6;1;Same;low;154;96;154;f;v;1;j;v;1201.4177000000927
r!3wy58;149;False;1;P != T2?;ST1_high_5;1;Same;high;96;132;96;f;v;0;j;v;558.9405999999144
r!3wy58;150;False;1;P != T1?;ST1_low_4;1;Same;low;112;70;112;f;v;1;j;b;1446.696799999927
r!3wy58;151;False;1;P != T2?;ST2_low_1;2;Same;low;82;132;132;f;v;0;f;b;2515.3521000002
r!3wy58;152;False;1;P != T2?;ST1_low_5;1;Same;low;96;154;96;f;v;1;f;v;1360.1198999999724
r!3wy58;153;False;1;P != T1?;ST2_high_2;2;Same;high;112;82;82;f;v;1;f;v;1188.4488000000601
r!3wy58;154;False;1;P != T1?;ST1_high_3;1;Same;high;70;96;70;f;v;1;j;b;3930.201600000146
r!3wy58;155;False;1;P != T2?;ST2_high_5;2;Same;high;96;132;132;f;v;1;j;n;1605.530099999669
r!3wy58;156;False;1;P != T2?;DT1_high_6;1;Different;high;132;96;154;f;v;1;f;n;1345.0525000002926
r!3wy58;157;False;1;P != T1?;ST2_high_3;2;Same;high;70;96;96;f;v;0;j;b;1178.7104
r!3wy58;158;False;1;P != T1?;ST1_high_4;1;Same;high;96;70;96;f;v;1;j;b;3773.5170999999355
r!3wy58;159;False;1;P != T2?;ST2_high_1;2;Same;high;82;112;112;f;v;1;j;b;1390.4402000002847
r!3wy58;160;False;1;P != T2?;ST2_low_2;2;Same;low;132;82;82;f;v;0;f;v;2197.7719999999863
r!3wy58;161;False;1;P != T1?;DT1_high_2;1;Different;high;112;82;132;f;v;0;j;v;2131.458500000008
r!3wy58;162;False;1;P != T1?;ST1_high_5;1;Same;high;96;132;96;f;v;0;f;v;1332.8318000003492
r!3wy58;163;False;1;P != T1?;ST2_high_6;2;Same;high;132;96;96;f;v;1;f;v;997.2262999999657
r!3wy58;164;False;1;P != T2?;STb_3;0;Same;None;82;82;82;f;v;0;f;v;1938.1475000000137
r!3wy58;165;False;1;P != T1?;ST2_low_5;2;Same;low;96;154;154;f;v;1;f;b;2048.0133999999452
r!3wy58;166;False;1;P != T1?;ST2_high_5;2;Same;high;96;132;132;f;v;0;j;n;1543.1632999998328
r!3wy58;167;False;1;P != T1?;STb_6;0;Same;None;132;132;132;f;v;0;f;v;2145.014999999603
r!3wy58;168;False;1;P != T2?;ST2_low_4;2;Same;low;112;70;70;f;v;0;f;v;1689.2448999997214
r!3wy58;169;False;1;P != T2?;STb_7;0;Same;None;154;154;154;f;v;1;j;b;3794.292999999925
r!3wy58;170;False;1;P != T2?;STb_5;0;Same;None;112;112;112;f;v;1;j;b;4282.761099999789
r!3wy58;171;False;1;P != T2?;ST2_low_5;2;Same;low;96;154;154;f;v;1;j;n;3099.1007000002355
r!3wy58;172;False;1;P != T1?;STb_3;0;Same;None;82;82;82;f;v;1;j;b;964.9843000001965
r!3wy58;173;False;1;P != T1?;ST1_low_3;1;Same;low;70;112;70;f;v;0;f;b;2057.90960000013
r!3wy58;174;False;1;P != T2?;ST2_high_2;2;Same;high;112;82;82;f;v;0;f;v;2105.022899999767
r!3wy58;175;False;1;P != T2?;ST1_low_4;1;Same;low;112;70;112;f;v;1;f;v;1475.9971000003134
r!3wy58;176;False;1;P != T1?;DT2_low_5;2;Different;low;96;154;180;f;v;1;f;n;2045.63539999981
r!3wy58;1;True;2;P = T1?;ST2_high_2;2;Same;high;112;82;82;f;v;1;j;b;3307.3793000003207
r!3wy58;2;True;2;P = T1?;ST1_low_2;1;Same;low;132;82;132;f;v;0;j;b;3736.016800000016
r!3wy58;3;True;2;P = T2?;ST1_high_1;1;Same;high;82;112;82;f;v;1;j;v;1915.4889999999796
r!3wy58;4;True;2;P = T2?;STb_5;0;Same;None;112;112;112;f;v;0;j;v;4572.542900000371
r!3wy58;5;True;2;P = T2?;DT2_high_5;2;Different;high;96;132;154;f;v;1;j;v;2514.846000000034
r!3wy58;6;True;2;P = T1?;STb_5;0;Same;None;112;112;112;f;v;1;f;b;6137.89369999995
r!3wy58;7;True;2;P = T1?;ST1_high_2;1;Same;high;112;82;112;f;v;1;f;b;5142.448200000217
r!3wy58;8;True;2;P = T1?;DT2_high_3;2;Different;high;70;96;112;f;v;0;f;v;785.5970999999045
r!3wy58;9;True;2;P = T2?;STb_2;0;Same;None;70;70;70;f;v;0;j;v;2513.021700000081
r!3wy58;10;True;2;P = T2?;ST1_low_2;1;Same;low;132;82;132;f;v;1;j;v;1757.2303000001739
r!3wy58;11;True;2;P = T1?;ST2_high_5;2;Same;high;96;132;132;f;v;1;j;n;1858.9178000001993
r!3wy58;12;True;2;P = T1?;DT2_high_2;2;Different;high;112;82;70;f;v;1;j;n;2504.778299999998
r!3wy58;13;True;2;P = T2?;ST2_high_4;2;Same;high;96;70;70;f;v;0;j;v;1328.5470000000714
r!3wy58;14;True;2;P = T2?;ST2_high_3;2;Same;high;70;96;96;f;v;0;j;v;1982.0632000000842
r!3wy58;15;True;2;P = T1?;STb_7;0;Same;None;154;154;154;f;v;0;j;v;3885.0385000000642
r!3wy58;16;True;2;P = T2?;DT2_high_2;2;Different;high;112;82;70;f;v;1;j;b;3486.550399999942
r!3wy58;1;False;2;P = T2?;ST2_high_3;2;Same;high;70;96;96;f;v;0;j;v;1650.502299999971
r!3wy58;2;False;2;P = T2?;ST1_high_2;1;Same;high;112;82;112;f;v;0;f;b;3097.348300000249
r!3wy58;3;False;2;P = T2?;ST2_high_4;2;Same;high;96;70;70;f;v;0;j;v;608.8405000000421
r!3wy58;4;False;2;P = T2?;ST1_low_6;1;Same;low;154;96;154;f;v;1;j;v;1132.3468999999022
r!3wy58;5;False;2;P = T2?;ST2_low_6;2;Same;low;154;96;96;f;v;1;f;v;981.7210999999588
r!3wy58;6;False;2;P = T2?;ST2_low_2;2;Same;low;132;82;82;f;v;0;j;v;1238.4839999999713
r!3wy58;7;False;2;P = T1?;ST1_high_2;1;Same;high;112;82;112;f;v;1;f;b;3854.7166000003017
r!3wy58;8;False;2;P = T2?;ST1_low_3;1;Same;low;70;112;70;f;v;1;j;v;2116.9874000001982
r!3wy58;9;False;2;P = T2?;ST1_low_3;1;Same;low;70;112;70;f;v;1;j;v;978.8831999999275
r!3wy58;10;False;2;P = T2?;ST2_high_5;2;Same;high;96;132;132;f;v;0;j;v;1582.5749999999061
r!3wy58;11;False;2;P = T2?;ST2_high_4;2;Same;high;96;70;70;f;v;1;f;v;1470.7252999996854
r!3wy58;12;False;2;P = T1?;ST1_high_3;1;Same;high;70;96;70;f;v;1;f;v;1077.189599999656
r!3wy58;13;False;2;P = T2?;ST1_low_2;1;Same;low;132;82;132;f;v;0;f;v;9487.83370000001
r!3wy58;14;False;2;P = T1?;ST1_low_2;1;Same;low;132;82;132;f;v;1;f;v;1341.102900000351
r!3wy58;15;False;2;P = T1?;DT2_low_3;2;Different;low;70;112;132;f;v;1;j;v;2997.4919000001137
r!3wy58;16;False;2;P = T1?;ST1_high_5;1;Same;high;96;132;96;f;v;0;j;b;3076.659899999868
r!3wy58;17;False;2;P = T1?;ST1_low_2;1;Same;low;132;82;132;f;v;1;f;v;1457.4280000001636
r!3wy58;18;False;2;P = T1?;ST1_low_3;1;Same;low;70;112;70;f;v;0;j;v;3609.4489000001886
r!3wy58;19;False;2;P = T2?;ST1_low_4;1;Same;low;112;70;112;f;v;1;j;v;881.5857000004144
r!3wy58;20;False;2;P = T2?;ST1_high_4;1;Same;high;96;70;96;f;v;1;j;v;1365.723700000217
r!3wy58;21;False;2;P = T2?;ST2_high_1;2;Same;high;82;112;112;f;v;1;f;v;1024.0231000002495
r!3wy58;22;False;2;P = T2?;ST1_low_1;1;Same;low;82;132;82;f;v;1;j;v;1184.2643999998472
r!3wy58;23;False;2;P = T2?;ST2_low_5;2;Same;low;96;154;154;f;v;0;j;v;1044.2432999998346
r!3wy58;24;False;2;P = T1?;ST2_low_6;2;Same;low;154;96;96;f;v;0;f;v;1419.770299999982
r!3wy58;25;False;2;P = T1?;ST1_high_4;1;Same;high;96;70;96;f;v;1;f;v;862.1310000003177
r!3wy58;26;False;2;P = T1?;ST2_low_1;2;Same;low;82;132;132;f;v;0;f;v;359.57749999988664
r!3wy58;27;False;2;P = T1?;ST1_low_5;1;Same;low;96;154;96;f;v;0;j;b;2120.5964000000677
r!3wy58;28;False;2;P = T2?;ST1_low_4;1;Same;low;112;70;112;f;v;1;j;v;6729.611699999623
r!3wy58;29;False;2;P = T2?;ST1_high_5;1;Same;high;96;132;96;f;v;1;j;v;757.99410000036
r!3wy58;30;False;2;P = T1?;ST1_high_4;1;Same;high;96;70;96;f;v;1;f;v;1812.596400000075
r!3wy58;31;False;2;P = T2?;ST2_high_2;2;Same;high;112;82;82;f;v;0;j;n;1332.5365999999121
r!3wy58;32;False;2;P = T1?;STb_6;0;Same;None;132;132;132;f;v;1;f;v;1244.6718999999575
r!3wy58;33;False;2;P = T1?;ST1_high_1;1;Same;high;82;112;82;f;v;0;j;n;1774.9628000001394
r!3wy58;34;False;2;P = T1?;DT2_low_4;2;Different;low;112;70;60;f;v;1;j;v;684.4043999999485
r!3wy58;35;False;2;P = T2?;ST2_low_6;2;Same;low;154;96;96;f;v;0;j;v;1037.243099999614
r!3wy58;36;False;2;P = T2?;ST1_low_3;1;Same;low;70;112;70;f;v;1;j;v;1893.0223000002115
r!3wy58;37;False;2;P = T2?;ST1_low_4;1;Same;low;112;70;112;f;v;1;j;v;1177.4682000000212
r!3wy58;38;False;2;P = T1?;STb_8;0;Same;None;180;180;180;f;v;1;f;v;467.4869000000399
r!3wy58;39;False;2;P = T1?;ST2_low_6;2;Same;low;154;96;96;f;v;0;f;v;1550.608000000011
r!3wy58;40;False;2;P = T1?;ST1_high_6;1;Same;high;132;96;132;f;v;1;f;v;1103.6589000000276
r!3wy58;41;False;2;P = T1?;ST1_low_5;1;Same;low;96;154;96;f;v;0;j;v;735.9751000003598
r!3wy58;42;False;2;P = T2?;STb_6;0;Same;None;132;132;132;f;v;0;j;v;943.2464999999866
r!3wy58;43;False;2;P = T2?;ST2_high_1;2;Same;high;82;112;112;f;v;0;j;v;1679.732999999942
r!3wy58;44;False;2;P = T1?;ST2_low_2;2;Same;low;132;82;82;f;v;1;j;v;1167.583900000409
r!3wy58;45;False;2;P = T1?;ST1_high_4;1;Same;high;96;70;96;f;v;1;f;b;2104.2820000002393
r!3wy58;46;False;2;P = T2?;ST1_low_1;1;Same;low;82;132;82;f;v;1;j;v;1336.0969000000296
r!3wy58;47;False;2;P = T2?;ST2_high_1;2;Same;high;82;112;112;f;v;0;j;b;1205.6777000002512
r!3wy58;48;False;2;P = T2?;ST2_low_3;2;Same;low;70;112;112;f;v;0;j;v;1058.7639999998828
r!3wy58;49;False;2;P = T2?;DT2_high_1;2;Different;high;82;112;132;f;v;0;f;b;1264.4618999997874
r!3wy58;50;False;2;P = T1?;DT1_high_4;1;Different;high;96;70;112;f;v;1;j;b;2189.9905000000217
r!3wy58;51;False;2;P = T1?;ST2_high_5;2;Same;high;96;132;132;f;v;0;f;b;1631.957600000078
r!3wy58;52;False;2;P = T1?;ST2_low_3;2;Same;low;70;112;112;f;v;1;j;v;2138.6858000000757
r!3wy58;53;False;2;P = T2?;DT1_high_3;1;Different;high;70;96;60;f;v;1;j;n;6393.352500000219
r!3wy58;54;False;2;P = T1?;ST2_low_1;2;Same;low;82;132;132;f;v;1;j;v;3450.3808999998
r!3wy58;55;False;2;P = T1?;STb_4;0;Same;None;96;96;96;f;v;0;j;n;2341.3947999997617
r!3wy58;56;False;2;P = T2?;ST1_high_5;1;Same;high;96;132;96;f;v;1;j;n;2630.669300000136
r!3wy58;57;False;2;P = T1?;ST2_low_6;2;Same;low;154;96;96;f;v;0;f;b;3389.0237999999044
r!3wy58;58;False;2;P = T2?;STb_1;0;Same;None;60;60;60;f;v;1;f;b;1069.872900000064
r!3wy58;59;False;2;P = T1?;ST2_high_1;2;Same;high;82;112;112;f;v;1;j;n;1067.9033999999774
r!3wy58;60;False;2;P = T2?;ST2_low_5;2;Same;low;96;154;154;f;v;0;j;n;995.3769000003376
r!3wy58;61;False;2;P = T1?;ST2_high_3;2;Same;high;70;96;96;f;v;0;f;v;1756.6944000000149
r!3wy58;62;False;2;P = T1?;ST2_high_4;2;Same;high;96;70;70;f;v;0;f;v;343.8501000000542
r!3wy58;63;False;2;P = T2?;ST2_low_4;2;Same;low;112;70;70;f;v;0;j;b;2817.9755000001023
r!3wy58;64;False;2;P = T2?;ST2_high_5;2;Same;high;96;132;132;f;v;1;f;b;2626.9742999998016
r!3wy58;65;False;2;P = T1?;ST2_high_5;2;Same;high;96;132;132;f;v;1;j;v;2807.9577000003155
r!3wy58;66;False;2;P = T2?;STb_5;0;Same;None;112;112;112;f;v;1;f;b;1522.355300000072
r!3wy58;67;False;2;P = T1?;ST2_low_5;2;Same;low;96;154;154;f;v;1;j;v;6083.894800000053
r!3wy58;68;False;2;P = T2?;DT1_low_4;1;Different;low;112;70;132;f;v;1;j;b;1727.8768000001037
r!3wy58;69;False;2;P = T2?;ST2_low_6;2;Same;low;154;96;96;f;v;1;f;v;2948.675000000094
r!3wy58;70;False;2;P = T1?;ST1_low_3;1;Same;low;70;112;70;f;v;1;f;v;1659.3769000000975
r!3wy58;71;False;2;P = T2?;ST1_low_5;1;Same;low;96;154;96;f;v;1;j;v;959.2140999998264
r!3wy58;72;False;2;P = T2?;ST1_high_3;1;Same;high;70;96;70;f;v;1;j;v;1265.8510000001115
r!3wy58;73;False;2;P = T1?;STb_2;0;Same;None;70;70;70;f;v;1;f;v;473.87830000025133
r!3wy58;74;False;2;P = T2?;ST1_high_3;1;Same;high;70;96;70;f;v;1;j;v;919.6346999997331
r!3wy58;75;False;2;P = T1?;ST1_high_1;1;Same;high;82;112;82;f;v;1;f;b;1227.074299999913
r!3wy58;76;False;2;P = T2?;ST2_low_1;2;Same;low;82;132;132;f;v;1;f;v;960.9783000000789
r!3wy58;77;False;2;P = T2?;ST2_low_2;2;Same;low;132;82;82;f;v;0;j;b;1650.189599999976
r!3wy58;78;False;2;P = T1?;ST2_low_2;2;Same;low;132;82;82;f;v;1;j;n;6771.57410000018
r!3wy58;79;False;2;P = T1?;ST2_low_4;2;Same;low;112;70;70;f;v;0;f;v;5000.995299999886
r!3wy58;80;False;2;P = T1?;ST1_high_6;1;Same;high;132;96;132;f;v;1;f;v;3890.280900000107
r!3wy58;81;False;2;P = T2?;ST2_high_2;2;Same;high;112;82;82;f;v;1;f;b;2811.3758999998026
r!3wy58;82;False;2;P = T1?;ST2_high_5;2;Same;high;96;132;132;f;v;1;j;b;1006.8780999999944
r!3wy58;83;False;2;P = T1?;STb_5;0;Same;None;112;112;112;f;v;1;f;b;1674.151200000324
r!3wy58;84;False;2;P = T2?;STb_2;0;Same;None;70;70;70;f;v;0;j;v;3831.7500000002838
r!3wy58;85;False;2;P = T2?;ST2_low_3;2;Same;low;70;112;112;f;v;0;j;b;5283.488400000351
r!3wy58;86;False;2;P = T2?;DT1_low_6;1;Different;low;154;96;180;f;v;1;j;v;996.7443999998977
r!3wy58;87;False;2;P = T2?;DT2_high_3;2;Different;high;70;96;112;f;v;1;j;v;1232.5693000002502
r!3wy58;88;False;2;P = T1?;ST2_high_4;2;Same;high;96;70;70;f;v;1;j;v;2572.231399999964
r!3wy58;89;False;2;P = T1?;ST1_low_4;1;Same;low;112;70;112;f;v;1;f;b;2911.1998999997013
r!3wy58;90;False;2;P = T2?;ST1_low_5;1;Same;low;96;154;96;f;v;1;j;v;1155.1174000001083
r!3wy58;91;False;2;P = T1?;ST2_low_5;2;Same;low;96;154;154;f;v;1;j;n;3173.7058000003344
r!3wy58;92;False;2;P = T2?;ST1_high_5;1;Same;high;96;132;96;f;v;1;j;v;534.8518000000695
r!3wy58;93;False;2;P = T2?;ST1_high_4;1;Same;high;96;70;96;f;v;1;j;v;956.6187000000355
r!3wy58;94;False;2;P = T2?;ST2_low_3;2;Same;low;70;112;112;f;v;0;j;v;1366.4623999998184
r!3wy58;95;False;2;P = T1?;ST2_high_3;2;Same;high;70;96;96;f;v;1;j;b;1678.4820000002583
r!3wy58;96;False;2;P = T2?;ST2_low_5;2;Same;low;96;154;154;f;v;0;j;v;2318.697499999871
r!3wy58;97;False;2;P = T1?;ST2_low_2;2;Same;low;132;82;82;f;v;0;f;b;1747.2255000002406
r!3wy58;98;False;2;P = T1?;STb_7;0;Same;None;154;154;154;f;v;1;f;v;1245.4745000000003
r!3wy58;99;False;2;P = T1?;ST2_high_2;2;Same;high;112;82;82;f;v;0;f;v;899.6268000000782
r!3wy58;100;False;2;P = T1?;ST1_low_3;1;Same;low;70;112;70;f;v;1;f;b;893.0468000003202
r!3wy58;101;False;2;P = T2?;ST2_high_3;2;Same;high;70;96;96;f;v;0;j;v;735.2027000001726
r!3wy58;102;False;2;P = T2?;ST1_high_3;1;Same;high;70;96;70;f;v;1;j;v;1498.599000000013
r!3wy58;103;False;2;P = T2?;ST1_high_4;1;Same;high;96;70;96;f;v;1;j;v;3109.724599999936
r!3wy58;104;False;2;P = T2?;ST1_high_1;1;Same;high;82;112;82;f;v;1;j;v;1025.3837000000203
r!3wy58;105;False;2;P = T1?;ST1_low_6;1;Same;low;154;96;154;f;v;1;f;v;1507.2157999998126
r!3wy58;106;False;2;P = T2?;ST1_high_2;1;Same;high;112;82;112;f;v;1;j;v;1017.8390000000945
r!3wy58;107;False;2;P = T1?;ST2_high_2;2;Same;high;112;82;82;f;v;0;f;b;2172.222799999872
r!3wy58;108;False;2;P = T2?;ST2_high_6;2;Same;high;132;96;96;f;v;0;j;v;1014.188699999977
r!3wy58;109;False;2;P = T1?;STb_1;0;Same;None;60;60;60;f;v;1;f;b;1401.4806000000135
r!3wy58;110;False;2;P = T2?;ST1_high_1;1;Same;high;82;112;82;f;v;1;j;v;774.7175999998035
r!3wy58;111;False;2;P = T2?;ST2_low_1;2;Same;low;82;132;132;f;v;0;j;v;971.3007000000289
r!3wy58;112;False;2;P = T2?;ST1_high_6;1;Same;high;132;96;132;f;v;1;j;v;801.1398999997255
r!3wy58;113;False;2;P = T2?;STb_4;0;Same;None;96;96;96;f;v;0;j;v;1714.2515999998977
r!3wy58;114;False;2;P = T1?;ST1_high_3;1;Same;high;70;96;70;f;v;1;f;v;1384.9670000004153
r!3wy58;115;False;2;P = T2?;ST1_high_1;1;Same;high;82;112;82;f;v;1;j;v;3688.354700000218
r!3wy58;116;False;2;P = T1?;ST1_low_6;1;Same;low;154;96;154;f;v;0;j;b;3563.883199999964
r!3wy58;117;False;2;P = T1?;DT1_high_6;1;Different;high;132;96;154;f;v;0;f;v;2824.5851000001494
r!3wy58;118;False;2;P = T2?;ST2_high_2;2;Same;high;112;82;82;f;v;0;j;v;2140.2720999999474
r!3wy58;119;False;2;P = T1?;DT2_low_1;2;Different;low;82;132;154;f;v;0;f;b;2761.671799999931
r!3wy58;120;False;2;P = T2?;ST1_low_2;1;Same;low;132;82;132;f;v;1;j;v;1417.0380999998997
r!3wy58;121;False;2;P = T1?;ST2_low_1;2;Same;low;82;132;132;f;v;0;f;b;5238.209900000129
r!3wy58;122;False;2;P = T2?;DT1_low_5;1;Different;low;96;154;82;f;v;1;j;v;2277.126799999678
r!3wy58;123;False;2;P = T2?;ST1_low_1;1;Same;low;82;132;82;f;v;1;j;v;1225.3144999999677
r!3wy58;124;False;2;P = T2?;ST2_low_4;2;Same;low;112;70;70;f;v;1;f;v;2502.928200000042
r!3wy58;125;False;2;P = T2?;ST2_low_4;2;Same;low;112;70;70;f;v;1;f;b;2276.4236999996683
r!3wy58;126;False;2;P = T2?;ST2_low_1;2;Same;low;82;132;132;f;v;0;j;b;2472.5248999998257
r!3wy58;127;False;2;P = T1?;ST1_low_1;1;Same;low;82;132;82;f;v;1;f;b;1299.8631999998906
r!3wy58;128;False;2;P = T2?;ST2_high_6;2;Same;high;132;96;96;f;v;0;j;v;1403.223799999978
r!3wy58;129;False;2;P = T1?;ST2_low_5;2;Same;low;96;154;154;f;v;0;f;b;3020.1483999999255
r!3wy58;130;False;2;P = T1?;ST1_low_2;1;Same;low;132;82;132;f;v;1;f;b;2585.486399999809
r!3wy58;131;False;2;P = T1?;ST1_high_5;1;Same;high;96;132;96;f;v;1;f;b;2067.1932999998717
r!3wy58;132;False;2;P = T1?;ST1_low_6;1;Same;low;154;96;154;f;v;0;j;b;825.6734999999935
r!3wy58;133;False;2;P = T2?;DT1_low_1;1;Different;low;82;132;70;f;v;1;j;v;514.2185999998219
r!3wy58;134;False;2;P = T1?;ST1_high_6;1;Same;high;132;96;132;f;v;1;f;v;375.89710000020204
r!3wy58;135;False;2;P = T1?;ST2_high_2;2;Same;high;112;82;82;f;v;0;f;v;1467.234499999904
r!3wy58;136;False;2;P = T1?;ST1_high_1;1;Same;high;82;112;82;f;v;0;j;b;1284.2496000002939
r!3wy58;137;False;2;P = T1?;ST1_high_2;1;Same;high;112;82;112;f;v;1;f;v;748.384100000294
r!3wy58;138;False;2;P = T2?;STb_8;0;Same;None;180;180;180;f;v;0;j;v;958.5547000001498
r!3wy58;139;False;2;P = T2?;ST2_high_3;2;Same;high;70;96;96;f;v;0;j;v;879.4668000000456
r!3wy58;140;False;2;P = T2?;ST1_high_6;1;Same;high;132;96;132;f;v;1;j;v;3722.4292999999307
r!3wy58;141;False;2;P = T1?;ST1_high_5;1;Same;high;96;132;96;f;v;1;f;v;9804.545500000131
r!3wy58;142;False;2;P = T1?;STb_3;0;Same;None;82;82;82;f;v;1;f;v;293.6202000000776
r!3wy58;143;False;2;P = T1?;ST2_low_4;2;Same;low;112;70;70;f;v;0;f;v;725.9503000000223
r!3wy58;144;False;2;P = T1?;ST2_high_6;2;Same;high;132;96;96;f;v;0;f;v;1793.7635999996928
r!3wy58;145;False;2;P = T2?;ST2_high_5;2;Same;high;96;132;132;f;v;0;j;b;1554.0513999999348
r!3wy58;146;False;2;P = T2?;ST1_low_5;1;Same;low;96;154;96;f;v;1;j;b;1722.2701000000598
r!3wy58;147;False;2;P = T2?;ST2_high_6;2;Same;high;132;96;96;f;v;0;j;b;2458.692400000473
r!3wy58;148;False;2;P = T2?;STb_3;0;Same;None;82;82;82;f;v;1;f;v;629.1564000002836
r!3wy58;149;False;2;P = T2?;ST2_low_2;2;Same;low;132;82;82;f;v;0;j;b;7028.614099999686
r!3wy58;150;False;2;P = T1?;ST1_low_1;1;Same;low;82;132;82;f;v;0;j;v;910.833900000398
r!3wy58;151;False;2;P = T1?;DT1_low_3;1;Different;low;70;112;60;f;v;1;j;b;3620.756500000425
r!3wy58;152;False;2;P = T2?;STb_7;0;Same;None;154;154;154;f;v;0;j;v;1190.8261999997194
r!3wy58;153;False;2;P = T1?;ST2_high_6;2;Same;high;132;96;96;f;v;0;f;v;1172.8093000001536
r!3wy58;154;False;2;P = T1?;ST1_low_5;1;Same;low;96;154;96;f;v;0;j;v;1470.4775000000154
r!3wy58;155;False;2;P = T1?;ST2_high_3;2;Same;high;70;96;96;f;v;0;f;v;2222.552799999903
r!3wy58;156;False;2;P = T1?;ST2_low_3;2;Same;low;70;112;112;f;v;1;j;b;1885.931700000583
r!3wy58;157;False;2;P = T2?;ST1_low_6;1;Same;low;154;96;154;f;v;1;j;v;983.0363999999463
r!3wy58;158;False;2;P = T1?;ST1_low_1;1;Same;low;82;132;82;f;v;0;j;v;699.2590999998356
r!3wy58;159;False;2;P = T2?;ST1_high_2;1;Same;high;112;82;112;f;v;1;j;v;3994.700099999136
r!3wy58;160;False;2;P = T1?;ST2_low_3;2;Same;low;70;112;112;f;v;0;f;b;1263.9140999999654
r!3wy58;161;False;2;P = T1?;ST1_high_3;1;Same;high;70;96;70;f;v;0;j;v;977.9551999999967
r!3wy58;162;False;2;P = T1?;ST2_high_4;2;Same;high;96;70;70;f;v;0;f;b;1644.7357999995802
r!3wy58;163;False;2;P = T1?;ST2_high_6;2;Same;high;132;96;96;f;v;0;f;b;736.8425000004208
r!3wy58;164;False;2;P = T1?;ST1_low_4;1;Same;low;112;70;112;f;v;1;f;v;865.8462000003055
r!3wy58;165;False;2;P = T1?;ST2_high_1;2;Same;high;82;112;112;f;v;1;j;b;1006.5507999997862
r!3wy58;166;False;2;P = T2?;ST1_low_6;1;Same;low;154;96;154;f;v;1;j;n;1537.554900000032
r!3wy58;167;False;2;P = T1?;ST2_high_1;2;Same;high;82;112;112;f;v;1;j;b;1250.8301999996547
r!3wy58;168;False;2;P = T1?;ST1_low_4;1;Same;low;112;70;112;f;v;1;f;b;772.2881999998208
r!3wy58;169;False;2;P = T2?;ST1_high_6;1;Same;high;132;96;132;f;v;1;j;b;932.5987000001987
r!3wy58;170;False;2;P = T1?;ST2_low_4;2;Same;low;112;70;70;f;v;1;j;b;976.2058999995133
r!3wy58;171;False;2;P = T1?;ST1_high_2;1;Same;high;112;82;112;f;v;1;f;b;1908.487700000478
r!3wy58;172;False;2;P = T2?;ST2_high_4;2;Same;high;96;70;70;f;v;0;j;b;851.21430000072
r!3wy58;173;False;2;P = T1?;DT1_low_5;1;Different;low;96;154;82;f;v;0;f;n;2903.024799999912
r!3wy58;174;False;2;P = T2?;ST1_low_2;1;Same;low;132;82;132;f;v;1;j;v;855.7802000004813
r!3wy58;175;False;2;P = T2?;DT2_high_2;2;Different;high;112;82;70;f;v;1;j;v;587.632400000075
r!3wy58;176;False;2;P = T1?;DT2_high_5;2;Different;high;96;132;154;f;v;1;j;v;770.2253000006749
