p_code;trial_nr;practice;block;question;condition;seqPos;Same_or_Diff;ITS;T1_hz;T2_hz;P_hz;yes_key;sure_key;correct;yes_no;rating;resp_time
6yu!v08;1;True;1;P != T1?;DT1_low_1;1;Different;low;82;132;70;j;n;1;j;n;1154.0684000010515
6yu!v08;2;True;1;P != T1?;ST1_high_3;1;Same;high;70;96;70;j;n;0;j;n;608.2932999997865
6yu!v08;3;True;1;P != T2?;ST1_low_5;1;Same;low;96;154;96;j;n;0;f;n;1294.777900000554
6yu!v08;4;True;1;P != T1?;STb_4;0;Same;None;96;96;96;j;n;0;j;b;5886.210900000151
6yu!v08;5;True;1;P != T2?;ST2_high_6;2;Same;high;132;96;96;j;n;0;j;n;2017.355600000883
6yu!v08;6;True;1;P != T2?;STb_4;0;Same;None;96;96;96;j;n;1;f;n;3546.294100000523
6yu!v08;7;True;1;P != T1?;ST2_high_1;2;Same;high;82;112;112;j;n;1;j;b;2153.0832999997074
6yu!v08;8;True;1;P != T1?;DT1_high_6;1;Different;high;132;96;154;j;n;0;f;b;1082.3410999983025
6yu!v08;9;True;1;P != T2?;ST2_high_4;2;Same;high;96;70;70;j;n;0;j;b;1035.4045999993104
6yu!v08;10;True;1;P != T2?;DT2_high_3;2;Different;high;70;96;112;j;n;0;f;b;2038.4698000016215
6yu!v08;11;True;1;P != T1?;STb_7;0;Same;None;154;154;154;j;n;1;f;b;724.5081999990362
6yu!v08;12;True;1;P != T1?;ST2_low_2;2;Same;low;132;82;82;j;n;1;j;b;783.9162000000215
6yu!v08;13;True;1;P != T1?;ST1_low_2;1;Same;low;132;82;132;j;n;0;j;b;2680.826000001616
6yu!v08;14;True;1;P != T2?;DT2_low_5;2;Different;low;96;154;180;j;n;0;f;b;1702.5427999997191
6yu!v08;15;True;1;P != T2?;ST1_high_5;1;Same;high;96;132;96;j;n;0;f;b;3446.3811999994505
6yu!v08;16;True;1;P != T2?;STb_7;0;Same;None;154;154;154;j;n;1;f;b;1043.8491999993857
p_code;trial_nr;practice;block;question;condition;seqPos;Same_or_Diff;ITS;T1_hz;T2_hz;P_hz;yes_key;sure_key;correct;yes_no;rating;resp_time
6yu!v08;1;False;1;P != T2?;ST2_high_6;2;Same;high;132;96;96;j;n;1;f;b;1290.9823000009055
6yu!v08;2;False;1;P != T2?;ST2_high_4;2;Same;high;96;70;70;j;n;1;f;v;4156.019500000184
6yu!v08;3;False;1;P != T1?;ST1_low_1;1;Same;low;82;132;82;j;n;0;j;b;1071.387500000128
6yu!v08;4;False;1;P != T2?;ST2_high_3;2;Same;high;70;96;96;j;n;1;f;b;3561.9497999996383
6yu!v08;5;False;1;P != T1?;DT2_low_3;2;Different;low;70;112;132;j;n;0;f;n;989.616400000159
6yu!v08;6;False;1;P != T1?;ST1_high_2;1;Same;high;112;82;112;j;n;1;f;v;1935.296699999526
6yu!v08;7;False;1;P != T1?;ST1_high_6;1;Same;high;132;96;132;j;n;1;f;b;959.9779000000126
6yu!v08;8;False;1;P != T2?;ST2_high_3;2;Same;high;70;96;96;j;n;1;f;b;2113.3094000015262
6yu!v08;9;False;1;P != T2?;STb_4;0;Same;None;96;96;96;j;n;1;f;n;1007.8782999989926
6yu!v08;10;False;1;P != T2?;ST1_low_2;1;Same;low;132;82;132;j;n;0;f;b;898.2366999989608
6yu!v08;11;False;1;P != T1?;STb_8;0;Same;None;180;180;180;j;n;0;j;b;573.0581999996502
6yu!v08;12;False;1;P != T2?;ST2_high_2;2;Same;high;112;82;82;j;n;0;j;n;1456.7015000011452
6yu!v08;13;False;1;P != T2?;DT1_high_4;1;Different;high;96;70;112;j;n;0;f;b;787.3524000006
6yu!v08;14;False;1;P != T2?;ST1_low_4;1;Same;low;112;70;112;j;n;0;f;b;3731.903699999748
6yu!v08;15;False;1;P != T2?;ST2_high_1;2;Same;high;82;112;112;j;n;1;f;n;869.6060000002035
6yu!v08;16;False;1;P != T2?;DT1_low_2;1;Different;low;132;82;154;j;n;0;f;n;920.363900000666
6yu!v08;17;False;1;P != T2?;ST1_high_4;1;Same;high;96;70;96;j;n;0;f;b;3807.4745000012626
6yu!v08;18;False;1;P != T1?;STb_3;0;Same;None;82;82;82;j;n;0;j;b;1068.6323000008997
6yu!v08;19;False;1;P != T1?;ST1_low_5;1;Same;low;96;154;96;j;n;0;j;n;1308.9743999989878
6yu!v08;20;False;1;P != T2?;ST2_low_2;2;Same;low;132;82;82;j;n;0;j;b;1223.2638000004954
6yu!v08;21;False;1;P != T1?;ST2_high_3;2;Same;high;70;96;96;j;n;0;f;b;1169.2581999996037
6yu!v08;22;False;1;P != T1?;ST1_high_6;1;Same;high;132;96;132;j;n;0;j;b;702.6244000007864
6yu!v08;23;False;1;P != T2?;DT2_high_4;2;Different;high;96;70;60;j;n;1;j;b;877.4253000010503
6yu!v08;24;False;1;P != T2?;ST2_low_4;2;Same;low;112;70;70;j;n;0;j;b;1380.0752999995893
6yu!v08;25;False;1;P != T1?;ST2_low_3;2;Same;low;70;112;112;j;n;1;j;b;1883.8181999999506
6yu!v08;26;False;1;P != T1?;ST1_low_1;1;Same;low;82;132;82;j;n;0;j;b;472.807099999045
6yu!v08;27;False;1;P != T2?;STb_7;0;Same;None;154;154;154;j;n;1;f;n;640.8659999997326
6yu!v08;28;False;1;P != T2?;ST2_high_5;2;Same;high;96;132;132;j;n;1;f;n;861.3351000003604
6yu!v08;29;False;1;P != T1?;ST2_high_4;2;Same;high;96;70;70;j;n;1;j;v;1468.6926000013045
6yu!v08;30;False;1;P != T1?;ST1_low_4;1;Same;low;112;70;112;j;n;0;j;v;2815.249799999947
6yu!v08;31;False;1;P != T2?;ST2_high_6;2;Same;high;132;96;96;j;n;1;f;b;1015.4167000000598
6yu!v08;32;False;1;P != T1?;ST2_high_6;2;Same;high;132;96;96;j;n;1;j;b;1507.6106999986223
6yu!v08;33;False;1;P != T1?;ST1_low_4;1;Same;low;112;70;112;j;n;0;j;b;478.8515999989613
6yu!v08;34;False;1;P != T1?;ST1_low_6;1;Same;low;154;96;154;j;n;0;j;n;1025.3162999997585
6yu!v08;35;False;1;P != T1?;ST1_low_6;1;Same;low;154;96;154;j;n;0;j;n;478.14329999891925
6yu!v08;36;False;1;P != T2?;ST2_low_5;2;Same;low;96;154;154;j;n;1;f;n;862.2988000006444
6yu!v08;37;False;1;P != T2?;ST2_low_4;2;Same;low;112;70;70;j;n;1;f;b;1903.6230000001524
6yu!v08;38;False;1;P != T2?;ST1_high_2;1;Same;high;112;82;112;j;n;0;f;b;1140.0126999997156
6yu!v08;39;False;1;P != T1?;ST2_high_2;2;Same;high;112;82;82;j;n;0;f;b;1713.4498000013991
6yu!v08;40;False;1;P != T1?;DT1_low_1;1;Different;low;82;132;70;j;n;1;j;b;584.755399999267
6yu!v08;41;False;1;P != T2?;ST2_high_2;2;Same;high;112;82;82;j;n;1;f;n;1162.0392999993783
6yu!v08;42;False;1;P != T2?;ST2_high_5;2;Same;high;96;132;132;j;n;0;j;b;1123.9989000005153
6yu!v08;43;False;1;P != T2?;ST2_low_6;2;Same;low;154;96;96;j;n;1;f;b;1630.4305000012391
6yu!v08;44;False;1;P != T1?;DT1_high_5;1;Different;high;96;132;82;j;n;0;f;b;3699.6710000003077
6yu!v08;45;False;1;P != T2?;ST1_high_2;1;Same;high;112;82;112;j;n;0;f;n;815.7738000008976
6yu!v08;46;False;1;P != T2?;ST1_low_5;1;Same;low;96;154;96;j;n;0;f;n;653.309100000115
6yu!v08;47;False;1;P != T2?;DT2_low_2;2;Different;low;132;82;70;j;n;0;f;n;517.3711999996158
6yu!v08;48;False;1;P != T1?;ST1_high_4;1;Same;high;96;70;96;j;n;1;f;n;1713.3487999999488
6yu!v08;49;False;1;P != T1?;ST1_low_2;1;Same;low;132;82;132;j;n;0;j;v;3910.624899999675
6yu!v08;50;False;1;P != T1?;STb_4;0;Same;None;96;96;96;j;n;0;j;n;274.87440000004426
6yu!v08;51;False;1;P != T2?;ST1_low_3;1;Same;low;70;112;70;j;n;0;f;n;454.571100000976
6yu!v08;52;False;1;P != T2?;ST1_high_2;1;Same;high;112;82;112;j;n;0;f;n;1540.6760000005306
6yu!v08;53;False;1;P != T1?;ST2_low_2;2;Same;low;132;82;82;j;n;0;f;b;663.1433000002289
6yu!v08;54;False;1;P != T1?;ST1_low_5;1;Same;low;96;154;96;j;n;0;j;v;8444.165200000498
6yu!v08;55;False;1;P != T1?;ST1_low_3;1;Same;low;70;112;70;j;n;1;f;n;291.5948000008939
6yu!v08;56;False;1;P != T1?;ST2_high_5;2;Same;high;96;132;132;j;n;0;f;n;763.9708000006067
6yu!v08;57;False;1;P != T1?;ST2_low_2;2;Same;low;132;82;82;j;n;0;f;n;674.5167999997648
6yu!v08;58;False;1;P != T1?;DT1_high_3;1;Different;high;70;96;60;j;n;0;f;b;2834.883700001228
6yu!v08;59;False;1;P != T1?;ST1_low_2;1;Same;low;132;82;132;j;n;0;j;n;6050.574000000779
6yu!v08;60;False;1;P != T2?;ST1_low_2;1;Same;low;132;82;132;j;n;1;j;v;367.64709999988554
6yu!v08;61;False;1;P != T1?;ST2_high_2;2;Same;high;112;82;82;j;n;0;f;n;1036.9975000012346
6yu!v08;62;False;1;P != T1?;STb_7;0;Same;None;154;154;154;j;n;0;j;n;693.9341000015702
6yu!v08;63;False;1;P != T1?;ST2_high_2;2;Same;high;112;82;82;j;n;0;f;v;3032.7512999992905
6yu!v08;64;False;1;P != T1?;ST1_low_1;1;Same;low;82;132;82;j;n;0;j;n;506.51920000018436
6yu!v08;65;False;1;P != T1?;ST1_low_5;1;Same;low;96;154;96;j;n;0;j;n;2197.7714999993623
6yu!v08;66;False;1;P != T2?;ST1_low_5;1;Same;low;96;154;96;j;n;0;f;b;516.321600000083
6yu!v08;67;False;1;P != T1?;ST2_low_1;2;Same;low;82;132;132;j;n;0;f;b;3593.936699999176
6yu!v08;68;False;1;P != T1?;ST1_high_4;1;Same;high;96;70;96;j;n;0;j;b;4473.53800000019
6yu!v08;69;False;1;P != T1?;ST1_high_5;1;Same;high;96;132;96;j;n;0;j;b;651.3436000004731
6yu!v08;70;False;1;P != T1?;ST1_high_3;1;Same;high;70;96;70;j;n;0;j;v;6954.647999998997
6yu!v08;71;False;1;P != T2?;STb_8;0;Same;None;180;180;180;j;n;1;f;n;843.8062999994145
6yu!v08;72;False;1;P != T1?;ST2_low_6;2;Same;low;154;96;96;j;n;0;f;b;332.9003999988345
6yu!v08;73;False;1;P != T2?;ST1_high_1;1;Same;high;82;112;82;j;n;0;f;n;5756.324300000415
6yu!v08;74;False;1;P != T1?;ST2_low_5;2;Same;low;96;154;154;j;n;0;f;b;4351.06900000028
6yu!v08;75;False;1;P != T1?;ST2_low_4;2;Same;low;112;70;70;j;n;0;f;b;2921.796300001006
6yu!v08;76;False;1;P != T1?;ST1_low_2;1;Same;low;132;82;132;j;n;0;j;b;2584.075099999609
6yu!v08;77;False;1;P != T2?;ST1_low_3;1;Same;low;70;112;70;j;n;0;f;b;5700.154999998631
6yu!v08;78;False;1;P != T1?;ST2_low_5;2;Same;low;96;154;154;j;n;0;f;n;953.3910999998625
6yu!v08;79;False;1;P != T2?;ST2_high_2;2;Same;high;112;82;82;j;n;1;f;n;2318.4850000016013
6yu!v08;80;False;1;P != T2?;ST2_low_2;2;Same;low;132;82;82;j;n;0;j;n;1335.3086999995867
6yu!v08;81;False;1;P != T1?;ST2_low_4;2;Same;low;112;70;70;j;n;0;f;b;636.2589000000298
6yu!v08;82;False;1;P != T1?;ST2_low_2;2;Same;low;132;82;82;j;n;0;f;n;3299.938000000111
6yu!v08;83;False;1;P != T2?;ST1_high_5;1;Same;high;96;132;96;j;n;1;j;v;3653.8731000000553
6yu!v08;84;False;1;P != T2?;ST2_high_4;2;Same;high;96;70;70;j;n;0;j;b;3052.509799999825
6yu!v08;85;False;1;P != T1?;ST1_high_3;1;Same;high;70;96;70;j;n;1;f;b;1147.8853000007803
6yu!v08;86;False;1;P != T2?;STb_3;0;Same;None;82;82;82;j;n;1;f;b;3259.600399998817
6yu!v08;87;False;1;P != T2?;ST2_low_4;2;Same;low;112;70;70;j;n;1;f;b;1358.6453000007168
6yu!v08;88;False;1;P != T1?;ST2_high_5;2;Same;high;96;132;132;j;n;1;j;b;633.2001000009768
6yu!v08;89;False;1;P != T2?;ST1_high_1;1;Same;high;82;112;82;j;n;0;f;n;1443.6654999990424
6yu!v08;90;False;1;P != T2?;ST2_low_3;2;Same;low;70;112;112;j;n;1;f;b;746.3982999997825
6yu!v08;91;False;1;P != T2?;ST1_high_5;1;Same;high;96;132;96;j;n;0;f;b;973.3515000007174
6yu!v08;92;False;1;P != T1?;ST1_high_2;1;Same;high;112;82;112;j;n;0;j;n;1686.3940999992337
6yu!v08;93;False;1;P != T2?;ST2_low_5;2;Same;low;96;154;154;j;n;0;j;v;1965.216299999156
6yu!v08;94;False;1;P != T1?;STb_2;0;Same;None;70;70;70;j;n;1;f;b;2522.8186000003916
6yu!v08;95;False;1;P != T1?;ST2_low_1;2;Same;low;82;132;132;j;n;0;f;v;1604.6508999988873
6yu!v08;96;False;1;P != T2?;ST1_high_6;1;Same;high;132;96;132;j;n;0;f;b;974.0051999997377
6yu!v08;97;False;1;P != T1?;ST2_high_6;2;Same;high;132;96;96;j;n;1;j;b;600.5659999991622
6yu!v08;98;False;1;P != T2?;DT1_low_6;1;Different;low;154;96;180;j;n;0;f;b;787.8985000006651
6yu!v08;99;False;1;P != T1?;ST1_high_3;1;Same;high;70;96;70;j;n;0;j;b;761.4292999987811
6yu!v08;100;False;1;P != T2?;ST2_low_6;2;Same;low;154;96;96;j;n;1;f;b;2425.433799999155
6yu!v08;101;False;1;P != T1?;ST2_high_3;2;Same;high;70;96;96;j;n;1;j;b;577.6234999993903
6yu!v08;102;False;1;P != T1?;ST2_low_6;2;Same;low;154;96;96;j;n;0;f;b;1150.9912999990775
6yu!v08;103;False;1;P != T2?;DT1_low_4;1;Different;low;112;70;132;j;n;0;f;n;614.1338999987056
6yu!v08;104;False;1;P != T1?;DT2_high_4;2;Different;high;96;70;60;j;n;0;f;v;1422.2416000011435
6yu!v08;105;False;1;P != T2?;ST1_low_2;1;Same;low;132;82;132;j;n;0;f;b;1161.3205000012385
6yu!v08;106;False;1;P != T1?;DT2_low_2;2;Different;low;132;82;70;j;n;1;j;b;1298.2709999996587
6yu!v08;107;False;1;P != T2?;ST2_low_3;2;Same;low;70;112;112;j;n;1;f;b;3927.831900000456
6yu!v08;108;False;1;P != T1?;ST1_high_1;1;Same;high;82;112;82;j;n;0;j;n;669.5162999985769
6yu!v08;109;False;1;P != T1?;DT1_low_3;1;Different;low;70;112;60;j;n;1;j;n;844.1888999986986
6yu!v08;110;False;1;P != T2?;DT2_high_1;2;Different;high;82;112;132;j;n;1;j;b;2124.8173999993014
6yu!v08;111;False;1;P != T2?;ST1_low_1;1;Same;low;82;132;82;j;n;0;f;b;867.0438000008289
6yu!v08;112;False;1;P != T2?;ST2_low_2;2;Same;low;132;82;82;j;n;0;j;b;926.7052000013791
6yu!v08;113;False;1;P != T1?;ST1_low_4;1;Same;low;112;70;112;j;n;0;j;b;1560.0558999994973
6yu!v08;114;False;1;P != T1?;ST1_high_2;1;Same;high;112;82;112;j;n;0;j;n;1108.1520000007004
6yu!v08;115;False;1;P != T2?;ST2_high_3;2;Same;high;70;96;96;j;n;0;j;b;568.1427999988955
6yu!v08;116;False;1;P != T1?;ST2_high_4;2;Same;high;96;70;70;j;n;1;j;b;294.4528000007267
6yu!v08;117;False;1;P != T2?;ST2_low_6;2;Same;low;154;96;96;j;n;1;f;n;629.3721000001824
6yu!v08;118;False;1;P != T1?;ST1_high_1;1;Same;high;82;112;82;j;n;0;j;v;3053.2330999994883
6yu!v08;119;False;1;P != T1?;STb_5;0;Same;None;112;112;112;j;n;0;j;n;356.3960000010411
6yu!v08;120;False;1;P != T2?;ST1_high_4;1;Same;high;96;70;96;j;n;0;f;b;1281.428300000698
6yu!v08;121;False;1;P != T2?;ST2_low_1;2;Same;low;82;132;132;j;n;0;j;b;794.9478999998973
6yu!v08;122;False;1;P != T1?;ST2_high_5;2;Same;high;96;132;132;j;n;1;j;b;1948.5386999986076
6yu!v08;123;False;1;P != T2?;ST2_low_3;2;Same;low;70;112;112;j;n;1;f;b;819.1060000008292
6yu!v08;124;False;1;P != T2?;ST2_low_1;2;Same;low;82;132;132;j;n;0;j;n;1004.3167999992875
6yu!v08;125;False;1;P != T2?;ST1_high_6;1;Same;high;132;96;132;j;n;0;f;b;1570.653200000379
6yu!v08;126;False;1;P != T1?;DT2_high_3;2;Different;high;70;96;112;j;n;1;j;b;2193.611400000009
6yu!v08;127;False;1;P != T2?;ST1_high_5;1;Same;high;96;132;96;j;n;0;f;b;6281.7957999996
6yu!v08;128;False;1;P != T1?;ST1_high_5;1;Same;high;96;132;96;j;n;1;f;b;756.860699999379
6yu!v08;129;False;1;P != T1?;ST1_high_4;1;Same;high;96;70;96;j;n;1;f;v;688.0484000012075
6yu!v08;130;False;1;P != T1?;ST2_low_3;2;Same;low;70;112;112;j;n;1;j;b;325.804900001458
6yu!v08;131;False;1;P != T1?;ST2_high_4;2;Same;high;96;70;70;j;n;1;j;b;316.8311999997968
6yu!v08;132;False;1;P != T1?;ST2_low_3;2;Same;low;70;112;112;j;n;1;j;v;2024.898800000301
6yu!v08;133;False;1;P != T2?;ST2_high_1;2;Same;high;82;112;112;j;n;0;j;v;2562.864699999409
6yu!v08;134;False;1;P != T1?;ST2_low_5;2;Same;low;96;154;154;j;n;1;j;v;2422.859000000244
6yu!v08;135;False;1;P != T2?;ST1_low_1;1;Same;low;82;132;82;j;n;0;f;n;777.6063000001159
6yu!v08;136;False;1;P != T2?;ST1_low_6;1;Same;low;154;96;154;j;n;0;f;b;805.9814999996888
6yu!v08;137;False;1;P != T2?;ST1_low_4;1;Same;low;112;70;112;j;n;0;f;n;1741.1431000000448
6yu!v08;138;False;1;P != T2?;ST2_high_4;2;Same;high;96;70;70;j;n;1;f;b;767.6129000010405
6yu!v08;139;False;1;P != T1?;ST1_low_3;1;Same;low;70;112;70;j;n;0;j;n;784.4473000004655
6yu!v08;140;False;1;P != T1?;ST1_high_5;1;Same;high;96;132;96;j;n;0;j;n;498.966000001019
6yu!v08;141;False;1;P != T1?;ST1_low_6;1;Same;low;154;96;154;j;n;1;f;b;1275.7483999994292
6yu!v08;142;False;1;P != T1?;ST2_low_6;2;Same;low;154;96;96;j;n;1;j;b;258.67810000090685
6yu!v08;143;False;1;P != T1?;ST2_high_1;2;Same;high;82;112;112;j;n;1;j;b;9.191900000587339
6yu!v08;144;False;1;P != T2?;ST1_low_1;1;Same;low;82;132;82;j;n;0;f;b;1838.4036000006745
6yu!v08;145;False;1;P != T2?;ST1_high_3;1;Same;high;70;96;70;j;n;0;f;v;2786.639900001319
6yu!v08;146;False;1;P != T1?;ST1_high_1;1;Same;high;82;112;82;j;n;0;j;v;3311.1081999995804
6yu!v08;147;False;1;P != T2?;STb_6;0;Same;None;132;132;132;j;n;1;f;v;9452.684500000032
6yu!v08;148;False;1;P != T1?;ST2_low_4;2;Same;low;112;70;70;j;n;1;j;v;749.6590999999171
6yu!v08;149;False;1;P != T1?;ST2_low_1;2;Same;low;82;132;132;j;n;1;j;v;1760.8690000015486
6yu!v08;150;False;1;P != T2?;ST2_high_5;2;Same;high;96;132;132;j;n;1;f;n;742.6286000008986
6yu!v08;151;False;1;P != T2?;ST1_low_5;1;Same;low;96;154;96;j;n;0;f;b;1784.1728000003059
6yu!v08;152;False;1;P != T1?;ST1_high_6;1;Same;high;132;96;132;j;n;1;f;b;2136.70810000076
6yu!v08;153;False;1;P != T2?;ST1_high_3;1;Same;high;70;96;70;j;n;0;f;v;2654.331399999137
6yu!v08;154;False;1;P != T2?;ST1_low_6;1;Same;low;154;96;154;j;n;0;f;b;1581.3912000012351
6yu!v08;155;False;1;P != T2?;DT2_low_3;2;Different;low;70;112;132;j;n;0;f;n;1166.2651000006008
6yu!v08;156;False;1;P != T2?;ST2_low_5;2;Same;low;96;154;154;j;n;1;f;v;2977.3153999994975
6yu!v08;157;False;1;P != T1?;ST2_high_1;2;Same;high;82;112;112;j;n;1;j;b;259.59680000050867
6yu!v08;158;False;1;P != T1?;ST2_high_6;2;Same;high;132;96;96;j;n;1;j;b;884.6581000016158
6yu!v08;159;False;1;P != T1?;ST2_high_3;2;Same;high;70;96;96;j;n;1;j;v;3559.4232000003103
6yu!v08;160;False;1;P != T1?;STb_6;0;Same;None;132;132;132;j;n;0;j;b;2088.066999998773
6yu!v08;161;False;1;P != T1?;ST1_low_3;1;Same;low;70;112;70;j;n;0;j;b;1680.7556999992812
6yu!v08;162;False;1;P != T2?;STb_2;0;Same;None;70;70;70;j;n;0;j;b;1864.3014999997831
6yu!v08;163;False;1;P != T2?;ST1_low_4;1;Same;low;112;70;112;j;n;1;j;n;243.84180000015476
6yu!v08;164;False;1;P != T2?;ST1_high_1;1;Same;high;82;112;82;j;n;0;f;n;1417.4848000002385
6yu!v08;165;False;1;P != T2?;ST2_low_1;2;Same;low;82;132;132;j;n;1;f;n;1372.7304000003642
6yu!v08;166;False;1;P != T1?;STb_1;0;Same;None;60;60;60;j;n;0;j;n;5982.250799999747
6yu!v08;167;False;1;P != T2?;ST1_low_6;1;Same;low;154;96;154;j;n;0;f;b;7091.670099998737
6yu!v08;168;False;1;P != T2?;ST1_high_6;1;Same;high;132;96;132;j;n;0;f;b;8117.986700000984
6yu!v08;169;False;1;P != T2?;STb_1;0;Same;None;60;60;60;j;n;0;j;b;3309.459699999934
6yu!v08;170;False;1;P != T1?;ST2_high_1;2;Same;high;82;112;112;j;n;1;j;b;1659.0827999989415
6yu!v08;171;False;1;P != T2?;ST1_high_3;1;Same;high;70;96;70;j;n;1;j;b;245.75839999852178
6yu!v08;172;False;1;P != T2?;STb_5;0;Same;None;112;112;112;j;n;1;f;b;1041.9419999998354
6yu!v08;173;False;1;P != T2?;ST1_low_3;1;Same;low;70;112;70;j;n;0;f;v;2005.4564999991271
6yu!v08;174;False;1;P != T2?;ST1_high_4;1;Same;high;96;70;96;j;n;0;f;v;1585.8310000003257
6yu!v08;175;False;1;P != T2?;ST2_high_6;2;Same;high;132;96;96;j;n;1;f;v;713.7954999998328
6yu!v08;176;False;1;P != T2?;ST2_high_1;2;Same;high;82;112;112;j;n;1;f;b;702.2175999991305
6yu!v08;1;True;2;P = T2?;STb_1;0;Same;None;60;60;60;j;n;1;j;n;3881.414400000722
6yu!v08;2;True;2;P = T2?;DT1_high_5;1;Different;high;96;132;82;j;n;1;f;n;1138.8642999991134
6yu!v08;3;True;2;P = T2?;ST2_low_6;2;Same;low;154;96;96;j;n;0;f;v;974.8517999996693
6yu!v08;4;True;2;P = T2?;ST1_low_2;1;Same;low;132;82;132;j;n;1;f;n;888.0955000004178
6yu!v08;5;True;2;P = T1?;ST1_high_2;1;Same;high;112;82;112;j;n;1;j;n;772.5789000014629
6yu!v08;6;True;2;P = T1?;STb_3;0;Same;None;82;82;82;j;n;1;j;b;361.0917000005429
6yu!v08;7;True;2;P = T1?;DT2_high_3;2;Different;high;70;96;112;j;n;0;j;n;692.7241000012145
6yu!v08;8;True;2;P = T2?;DT1_low_6;1;Different;low;154;96;180;j;n;1;f;n;2012.4132000000827
6yu!v08;9;True;2;P = T1?;STb_8;0;Same;None;180;180;180;j;n;1;j;b;1628.056800000195
6yu!v08;10;True;2;P = T2?;STb_8;0;Same;None;180;180;180;j;n;0;f;n;838.7375000002066
6yu!v08;11;True;2;P = T2?;ST2_high_5;2;Same;high;96;132;132;j;n;1;j;b;2306.2016000003496
6yu!v08;12;True;2;P = T1?;ST1_high_6;1;Same;high;132;96;132;j;n;1;j;b;5508.800499999779
6yu!v08;13;True;2;P = T1?;ST2_low_2;2;Same;low;132;82;82;j;n;1;f;n;671.3916999997309
6yu!v08;14;True;2;P = T1?;ST2_low_5;2;Same;low;96;154;154;j;n;0;j;v;966.4800999998988
6yu!v08;15;True;2;P = T1?;DT2_high_6;2;Different;high;132;96;82;j;n;0;j;b;1977.1798000001581
6yu!v08;16;True;2;P = T2?;ST1_high_6;1;Same;high;132;96;132;j;n;1;f;n;1164.0625999989425
6yu!v08;1;False;2;P = T2?;ST1_low_2;1;Same;low;132;82;132;j;n;1;f;b;762.9711000008683
6yu!v08;2;False;2;P = T1?;ST1_low_6;1;Same;low;154;96;154;j;n;1;j;b;1541.834599998765
6yu!v08;3;False;2;P = T1?;ST1_high_2;1;Same;high;112;82;112;j;n;1;j;n;270.095299998502
6yu!v08;4;False;2;P = T2?;ST1_low_2;1;Same;low;132;82;132;j;n;1;f;b;900.8175999988453
6yu!v08;5;False;2;P = T2?;ST1_low_5;1;Same;low;96;154;96;j;n;1;f;b;921.6980000001058
6yu!v08;6;False;2;P = T2?;ST1_high_5;1;Same;high;96;132;96;j;n;0;j;b;370.0107000004209
6yu!v08;7;False;2;P = T1?;ST2_low_3;2;Same;low;70;112;112;j;n;0;j;b;307.2357999990345
6yu!v08;8;False;2;P = T2?;DT2_high_4;2;Different;high;96;70;60;j;n;1;f;n;1018.9245999990817
6yu!v08;9;False;2;P = T1?;ST1_low_5;1;Same;low;96;154;96;j;n;1;j;v;1784.5407000004343
6yu!v08;10;False;2;P = T2?;ST2_low_1;2;Same;low;82;132;132;j;n;0;f;b;2434.8998999994365
6yu!v08;11;False;2;P = T1?;ST2_high_5;2;Same;high;96;132;132;j;n;0;j;b;269.18060000025434
6yu!v08;12;False;2;P = T2?;ST2_low_3;2;Same;low;70;112;112;j;n;1;j;n;982.6079999984358
6yu!v08;13;False;2;P = T2?;ST1_low_1;1;Same;low;82;132;82;j;n;1;f;b;901.8775000004098
6yu!v08;14;False;2;P = T2?;ST1_high_3;1;Same;high;70;96;70;j;n;0;j;b;2841.3207000012335
6yu!v08;15;False;2;P = T2?;ST1_low_4;1;Same;low;112;70;112;j;n;0;j;n;151.16940000007162
6yu!v08;16;False;2;P = T2?;ST2_high_6;2;Same;high;132;96;96;j;n;0;f;b;2510.603799999444
6yu!v08;17;False;2;P = T2?;ST1_high_6;1;Same;high;132;96;132;j;n;0;j;b;750.1895000004879
6yu!v08;18;False;2;P = T1?;ST1_low_2;1;Same;low;132;82;132;j;n;1;j;b;794.4714000004751
6yu!v08;19;False;2;P = T2?;ST1_high_3;1;Same;high;70;96;70;j;n;1;f;b;1647.7113000000827
6yu!v08;20;False;2;P = T2?;ST2_low_6;2;Same;low;154;96;96;j;n;1;j;n;504.3925999998464
6yu!v08;21;False;2;P = T1?;ST2_high_1;2;Same;high;82;112;112;j;n;1;f;v;1689.0383000009024
6yu!v08;22;False;2;P = T2?;ST1_high_2;1;Same;high;112;82;112;j;n;1;f;b;904.9489999997604
6yu!v08;23;False;2;P = T2?;ST2_low_3;2;Same;low;70;112;112;j;n;0;f;b;3290.94189999887
6yu!v08;24;False;2;P = T2?;STb_5;0;Same;None;112;112;112;j;n;1;j;n;328.29229999879317
6yu!v08;25;False;2;P = T2?;ST2_low_3;2;Same;low;70;112;112;j;n;0;f;b;2229.4774999991205
6yu!v08;26;False;2;P = T1?;ST2_high_3;2;Same;high;70;96;96;j;n;0;j;b;1258.8851999989856
6yu!v08;27;False;2;P = T2?;ST1_high_3;1;Same;high;70;96;70;j;n;1;f;v;1171.6842999994697
6yu!v08;28;False;2;P = T1?;ST2_high_5;2;Same;high;96;132;132;j;n;0;j;v;2784.1511000005994
6yu!v08;29;False;2;P = T2?;ST2_low_4;2;Same;low;112;70;70;j;n;0;f;b;3262.9245999996783
6yu!v08;30;False;2;P = T2?;STb_2;0;Same;None;70;70;70;j;n;1;j;b;735.7100000008359
6yu!v08;31;False;2;P = T2?;ST2_low_2;2;Same;low;132;82;82;j;n;0;f;b;900.9549999991577
6yu!v08;32;False;2;P = T1?;ST2_low_6;2;Same;low;154;96;96;j;n;0;j;n;322.3657999988063
6yu!v08;33;False;2;P = T2?;ST2_high_6;2;Same;high;132;96;96;j;n;0;f;b;1840.8024000000296
6yu!v08;34;False;2;P = T2?;DT2_low_2;2;Different;low;132;82;70;j;n;1;f;b;4404.699099999561
6yu!v08;35;False;2;P = T2?;ST2_high_1;2;Same;high;82;112;112;j;n;1;j;b;1392.118500001743
6yu!v08;36;False;2;P = T1?;ST2_high_3;2;Same;high;70;96;96;j;n;0;j;n;599.5504000002256
6yu!v08;37;False;2;P = T1?;ST1_high_4;1;Same;high;96;70;96;j;n;1;j;n;1328.2761000009486
6yu!v08;38;False;2;P = T1?;ST1_low_1;1;Same;low;82;132;82;j;n;1;j;n;609.023500001058
6yu!v08;39;False;2;P = T1?;ST1_low_6;1;Same;low;154;96;154;j;n;1;j;b;4920.433299999786
6yu!v08;40;False;2;P = T1?;ST1_low_6;1;Same;low;154;96;154;j;n;1;j;b;500.6668999994872
6yu!v08;41;False;2;P = T2?;STb_1;0;Same;None;60;60;60;j;n;1;j;b;314.0665999999328
6yu!v08;42;False;2;P = T1?;ST1_high_6;1;Same;high;132;96;132;j;n;1;j;b;1208.6933999999019
6yu!v08;43;False;2;P = T2?;ST1_high_4;1;Same;high;96;70;96;j;n;1;f;b;2079.993800000011
6yu!v08;44;False;2;P = T2?;ST1_low_6;1;Same;low;154;96;154;j;n;1;f;n;587.4141000003874
6yu!v08;45;False;2;P = T1?;ST2_low_6;2;Same;low;154;96;96;j;n;1;f;v;8901.375600000392
6yu!v08;46;False;2;P = T1?;ST1_low_3;1;Same;low;70;112;70;j;n;1;j;b;907.3765000011917
6yu!v08;47;False;2;P = T1?;DT2_low_1;2;Different;low;82;132;154;j;n;0;j;b;838.7772000005498
6yu!v08;48;False;2;P = T1?;ST1_high_3;1;Same;high;70;96;70;j;n;1;j;b;587.3303999997006
6yu!v08;49;False;2;P = T1?;STb_6;0;Same;None;132;132;132;j;n;1;j;b;3041.746900000362
6yu!v08;50;False;2;P = T2?;ST2_low_4;2;Same;low;112;70;70;j;n;0;f;v;10907.97449999991
6yu!v08;51;False;2;P = T2?;ST2_high_2;2;Same;high;112;82;82;j;n;0;f;b;1677.0814999999857
6yu!v08;52;False;2;P = T1?;STb_7;0;Same;None;154;154;154;j;n;1;j;n;1778.5952000012912
6yu!v08;53;False;2;P = T1?;ST1_high_1;1;Same;high;82;112;82;j;n;1;j;v;3632.52250000005
6yu!v08;54;False;2;P = T2?;ST1_low_4;1;Same;low;112;70;112;j;n;0;j;b;2403.204599999299
6yu!v08;55;False;2;P = T2?;ST2_low_1;2;Same;low;82;132;132;j;n;1;j;n;1638.4511000014754
6yu!v08;56;False;2;P = T1?;ST1_high_4;1;Same;high;96;70;96;j;n;0;f;b;1231.3302000002295
6yu!v08;57;False;2;P = T1?;ST1_low_5;1;Same;low;96;154;96;j;n;0;f;v;2963.871800000561
6yu!v08;58;False;2;P = T1?;ST1_high_4;1;Same;high;96;70;96;j;n;1;j;n;268.1240000001708
6yu!v08;59;False;2;P = T1?;STb_3;0;Same;None;82;82;82;j;n;1;j;n;390.1021000001492
6yu!v08;60;False;2;P = T2?;ST2_low_5;2;Same;low;96;154;154;j;n;0;f;b;902.6551000006293
6yu!v08;61;False;2;P = T2?;DT2_high_6;2;Different;high;132;96;82;j;n;0;j;v;3692.4111000007542
6yu!v08;62;False;2;P = T2?;ST1_low_3;1;Same;low;70;112;70;j;n;1;f;n;1581.906200000958
6yu!v08;63;False;2;P = T2?;STb_8;0;Same;None;180;180;180;j;n;1;j;n;330.1441999992676
6yu!v08;64;False;2;P = T1?;ST1_low_2;1;Same;low;132;82;132;j;n;0;f;v;1874.461400000655
6yu!v08;65;False;2;P = T2?;ST1_low_4;1;Same;low;112;70;112;j;n;1;f;b;4091.331999999966
6yu!v08;66;False;2;P = T1?;ST1_low_4;1;Same;low;112;70;112;j;n;1;j;b;712.0118000002549
6yu!v08;67;False;2;P = T1?;ST2_high_6;2;Same;high;132;96;96;j;n;0;j;b;670.5941000000166
6yu!v08;68;False;2;P = T2?;ST1_high_4;1;Same;high;96;70;96;j;n;1;f;b;522.4226000009367
6yu!v08;69;False;2;P = T1?;DT1_low_4;1;Different;low;112;70;132;j;n;1;f;b;2571.8993000009505
6yu!v08;70;False;2;P = T1?;ST2_high_3;2;Same;high;70;96;96;j;n;1;f;b;2653.7597000005917
6yu!v08;71;False;2;P = T2?;ST2_high_4;2;Same;high;96;70;70;j;n;1;j;b;1177.466099999947
6yu!v08;72;False;2;P = T2?;STb_3;0;Same;None;82;82;82;j;n;1;j;n;100.8177000003343
6yu!v08;73;False;2;P = T1?;ST2_low_2;2;Same;low;132;82;82;j;n;1;f;n;1025.0531999990926
6yu!v08;74;False;2;P = T1?;ST2_low_6;2;Same;low;154;96;96;j;n;1;f;b;1525.4267000000254
6yu!v08;75;False;2;P = T2?;ST2_high_3;2;Same;high;70;96;96;j;n;0;f;n;3088.1530000006023
6yu!v08;76;False;2;P = T1?;ST2_low_3;2;Same;low;70;112;112;j;n;1;f;b;354.8012999999628
6yu!v08;77;False;2;P = T1?;ST1_low_4;1;Same;low;112;70;112;j;n;1;j;b;751.0662999993656
6yu!v08;78;False;2;P = T2?;ST1_low_5;1;Same;low;96;154;96;j;n;1;f;n;2925.376999999571
6yu!v08;79;False;2;P = T2?;ST2_high_4;2;Same;high;96;70;70;j;n;1;j;n;293.2457999995677
6yu!v08;80;False;2;P = T2?;ST1_low_6;1;Same;low;154;96;154;j;n;0;j;v;2357.940599998983
6yu!v08;81;False;2;P = T2?;ST2_low_2;2;Same;low;132;82;82;j;n;0;f;b;779.3348999985028
6yu!v08;82;False;2;P = T2?;ST2_low_6;2;Same;low;154;96;96;j;n;1;j;b;994.6128999999928
6yu!v08;83;False;2;P = T1?;ST2_high_1;2;Same;high;82;112;112;j;n;0;j;b;368.38040000111505
6yu!v08;84;False;2;P = T1?;ST1_low_2;1;Same;low;132;82;132;j;n;1;j;b;474.7375999995711
6yu!v08;85;False;2;P = T2?;ST2_high_5;2;Same;high;96;132;132;j;n;0;f;b;2788.4370000010676
6yu!v08;86;False;2;P = T2?;ST2_high_5;2;Same;high;96;132;132;j;n;0;f;n;829.7394000001077
6yu!v08;87;False;2;P = T1?;DT1_low_1;1;Different;low;82;132;70;j;n;0;j;n;748.1654999992315
6yu!v08;88;False;2;P = T2?;ST2_low_5;2;Same;low;96;154;154;j;n;0;f;n;1732.7096999997593
6yu!v08;89;False;2;P = T1?;ST1_low_3;1;Same;low;70;112;70;j;n;1;j;n;87.4948000000586
6yu!v08;90;False;2;P = T1?;ST1_low_1;1;Same;low;82;132;82;j;n;1;j;v;2464.1537000006792
6yu!v08;91;False;2;P = T1?;ST1_high_1;1;Same;high;82;112;82;j;n;1;j;n;234.4078999994963
6yu!v08;92;False;2;P = T1?;ST2_high_4;2;Same;high;96;70;70;j;n;0;j;n;780.8846000007179
6yu!v08;93;False;2;P = T2?;ST2_high_4;2;Same;high;96;70;70;j;n;0;f;b;1110.2817999999388
6yu!v08;94;False;2;P = T2?;ST2_high_5;2;Same;high;96;132;132;j;n;1;j;n;1418.953500000498
6yu!v08;95;False;2;P = T1?;ST2_high_2;2;Same;high;112;82;82;j;n;0;j;n;615.2957000012975
6yu!v08;96;False;2;P = T2?;ST1_high_1;1;Same;high;82;112;82;j;n;1;f;v;4018.692599998758
6yu!v08;97;False;2;P = T2?;DT2_low_5;2;Different;low;96;154;180;j;n;1;f;b;1172.785600001589
6yu!v08;98;False;2;P = T2?;ST1_low_3;1;Same;low;70;112;70;j;n;1;f;b;753.3822000004875
6yu!v08;99;False;2;P = T2?;ST2_low_6;2;Same;low;154;96;96;j;n;1;j;n;180.94050000036077
6yu!v08;100;False;2;P = T2?;ST1_low_5;1;Same;low;96;154;96;j;n;1;f;b;793.3594000005542
6yu!v08;101;False;2;P = T2?;ST2_high_2;2;Same;high;112;82;82;j;n;1;j;n;356.9496000000072
6yu!v08;102;False;2;P = T1?;ST1_high_5;1;Same;high;96;132;96;j;n;1;j;n;601.2680000003456
6yu!v08;103;False;2;P = T1?;ST2_low_1;2;Same;low;82;132;132;j;n;1;f;b;1637.7768000002106
6yu!v08;104;False;2;P = T1?;ST1_low_4;1;Same;low;112;70;112;j;n;0;f;b;1106.4053999998578
6yu!v08;105;False;2;P = T1?;ST1_low_1;1;Same;low;82;132;82;j;n;1;j;n;618.9432000010129
6yu!v08;106;False;2;P = T2?;ST1_low_1;1;Same;low;82;132;82;j;n;1;f;n;1376.1105999983556
6yu!v08;107;False;2;P = T2?;ST2_low_5;2;Same;low;96;154;154;j;n;0;f;n;721.0228999992978
6yu!v08;108;False;2;P = T2?;STb_6;0;Same;None;132;132;132;j;n;0;f;n;724.5760000005248
6yu!v08;109;False;2;P = T2?;ST2_high_6;2;Same;high;132;96;96;j;n;1;j;n;4.545400001006783
6yu!v08;110;False;2;P = T2?;ST1_low_2;1;Same;low;132;82;132;j;n;1;f;b;652.0067000001291
6yu!v08;111;False;2;P = T1?;ST1_high_6;1;Same;high;132;96;132;j;n;1;j;b;913.6739999994461
6yu!v08;112;False;2;P = T1?;STb_5;0;Same;None;112;112;112;j;n;1;j;v;1886.7337000010593
6yu!v08;113;False;2;P = T1?;ST1_high_2;1;Same;high;112;82;112;j;n;1;j;n;571.6279000007489
6yu!v08;114;False;2;P = T2?;ST2_high_3;2;Same;high;70;96;96;j;n;1;j;n;308.37609999980486
6yu!v08;115;False;2;P = T1?;ST1_high_2;1;Same;high;112;82;112;j;n;1;j;n;318.0467000001954
6yu!v08;116;False;2;P = T1?;ST1_high_5;1;Same;high;96;132;96;j;n;1;j;n;418.31490000004123
6yu!v08;117;False;2;P = T2?;DT1_high_2;1;Different;high;112;82;132;j;n;0;j;v;2654.0721000001213
6yu!v08;118;False;2;P = T2?;ST1_low_3;1;Same;low;70;112;70;j;n;1;f;v;2780.7902000004106
6yu!v08;119;False;2;P = T1?;ST2_low_5;2;Same;low;96;154;154;j;n;0;j;b;1357.3935000003985
6yu!v08;120;False;2;P = T2?;ST2_low_4;2;Same;low;112;70;70;j;n;1;j;n;85.46899999964808
6yu!v08;121;False;2;P = T1?;DT2_high_6;2;Different;high;132;96;82;j;n;0;j;n;271.2359999986802
6yu!v08;122;False;2;P = T2?;ST1_low_1;1;Same;low;82;132;82;j;n;1;f;b;918.027699999584
6yu!v08;123;False;2;P = T1?;ST2_low_5;2;Same;low;96;154;154;j;n;0;j;b;812.925100000939
6yu!v08;124;False;2;P = T2?;ST1_high_2;1;Same;high;112;82;112;j;n;1;f;b;1500.7495999998355
6yu!v08;125;False;2;P = T2?;ST1_low_6;1;Same;low;154;96;154;j;n;0;j;b;2305.860600001324
6yu!v08;126;False;2;P = T2?;ST2_high_3;2;Same;high;70;96;96;j;n;1;j;n;806.4381999993202
6yu!v08;127;False;2;P = T1?;ST2_high_6;2;Same;high;132;96;96;j;n;0;j;n;774.057200000243
6yu!v08;128;False;2;P = T2?;ST1_high_6;1;Same;high;132;96;132;j;n;0;j;n;143.3059000009962
6yu!v08;129;False;2;P = T1?;ST1_high_5;1;Same;high;96;132;96;j;n;1;j;n;775.0406000013754
6yu!v08;130;False;2;P = T1?;STb_8;0;Same;None;180;180;180;j;n;1;j;n;563.9681000011478
6yu!v08;131;False;2;P = T1?;ST1_high_1;1;Same;high;82;112;82;j;n;1;j;n;2119.473400000061
6yu!v08;132;False;2;P = T1?;STb_2;0;Same;None;70;70;70;j;n;1;j;n;361.1972999988211
6yu!v08;133;False;2;P = T1?;ST2_low_2;2;Same;low;132;82;82;j;n;0;j;n;342.24470000117435
6yu!v08;134;False;2;P = T2?;ST1_high_1;1;Same;high;82;112;82;j;n;1;f;v;1082.7331000000413
6yu!v08;135;False;2;P = T1?;ST2_high_2;2;Same;high;112;82;82;j;n;0;j;n;453.8587999995798
6yu!v08;136;False;2;P = T1?;STb_4;0;Same;None;96;96;96;j;n;1;j;n;313.6101999989478
6yu!v08;137;False;2;P = T1?;ST2_high_6;2;Same;high;132;96;96;j;n;0;j;n;321.30770000003395
6yu!v08;138;False;2;P = T2?;ST2_high_1;2;Same;high;82;112;112;j;n;1;j;v;1695.6153999999515
6yu!v08;139;False;2;P = T1?;ST2_low_4;2;Same;low;112;70;70;j;n;0;j;n;497.70580000040354
6yu!v08;140;False;2;P = T1?;ST1_high_3;1;Same;high;70;96;70;j;n;1;j;n;643.0733999986842
6yu!v08;141;False;2;P = T2?;ST1_high_2;1;Same;high;112;82;112;j;n;1;f;v;628.8466999994853
6yu!v08;142;False;2;P = T1?;ST1_high_6;1;Same;high;132;96;132;j;n;0;f;v;1292.0494000009057
6yu!v08;143;False;2;P = T2?;ST2_high_1;2;Same;high;82;112;112;j;n;1;j;v;1703.9003999998386
6yu!v08;144;False;2;P = T2?;DT2_high_3;2;Different;high;70;96;112;j;n;1;f;v;1284.6233000000211
6yu!v08;145;False;2;P = T2?;ST1_high_1;1;Same;high;82;112;82;j;n;0;j;n;330.88130000032834
6yu!v08;146;False;2;P = T2?;ST1_high_4;1;Same;high;96;70;96;j;n;0;j;n;250.59589999909804
6yu!v08;147;False;2;P = T1?;ST2_low_1;2;Same;low;82;132;132;j;n;1;f;n;842.9922999985138
6yu!v08;148;False;2;P = T1?;STb_1;0;Same;None;60;60;60;j;n;1;j;n;397.975600000791
6yu!v08;149;False;2;P = T1?;ST2_low_2;2;Same;low;132;82;82;j;n;0;j;v;1149.0460999993957
6yu!v08;150;False;2;P = T2?;ST2_low_2;2;Same;low;132;82;82;j;n;0;f;v;7457.562199999302
6yu!v08;151;False;2;P = T1?;DT1_high_6;1;Different;high;132;96;154;j;n;0;j;n;3253.5913000010623
6yu!v08;152;False;2;P = T1?;ST2_high_2;2;Same;high;112;82;82;j;n;0;j;v;1293.0725000005623
6yu!v08;153;False;2;P = T1?;ST2_low_4;2;Same;low;112;70;70;j;n;1;f;b;2757.519599999796
6yu!v08;154;False;2;P = T1?;DT2_high_3;2;Different;high;70;96;112;j;n;1;f;v;4624.232799998936
6yu!v08;155;False;2;P = T1?;ST1_low_5;1;Same;low;96;154;96;j;n;1;j;n;667.6477999990311
6yu!v08;156;False;2;P = T2?;DT2_high_5;2;Different;high;96;132;154;j;n;0;j;n;1196.173500000441
6yu!v08;157;False;2;P = T1?;ST2_high_4;2;Same;high;96;70;70;j;n;0;j;n;1906.4205000013317
6yu!v08;158;False;2;P = T2?;ST1_high_5;1;Same;high;96;132;96;j;n;1;f;n;1467.811000000438
6yu!v08;159;False;2;P = T2?;DT1_high_1;1;Different;high;82;112;70;j;n;0;j;n;338.8006999994104
6yu!v08;160;False;2;P = T2?;ST1_high_5;1;Same;high;96;132;96;j;n;0;j;b;5815.199399999983
6yu!v08;161;False;2;P = T1?;ST1_low_3;1;Same;low;70;112;70;j;n;0;f;b;2840.031400000953
6yu!v08;162;False;2;P = T1?;ST2_low_4;2;Same;low;112;70;70;j;n;0;j;v;1557.8241999992315
6yu!v08;163;False;2;P = T1?;DT1_high_4;1;Different;high;96;70;112;j;n;0;j;n;2193.5201000014786
6yu!v08;164;False;2;P = T1?;ST2_high_4;2;Same;high;96;70;70;j;n;1;f;v;1927.0164000008663
6yu!v08;165;False;2;P = T2?;ST2_low_1;2;Same;low;82;132;132;j;n;1;j;b;1339.8957999997947
6yu!v08;166;False;2;P = T1?;ST2_low_1;2;Same;low;82;132;132;j;n;0;j;n;872.2964000007778
6yu!v08;167;False;2;P = T2?;STb_4;0;Same;None;96;96;96;j;n;0;f;v;506.09609999992244
6yu!v08;168;False;2;P = T1?;ST2_high_1;2;Same;high;82;112;112;j;n;0;j;b;1134.4530999995186
6yu!v08;169;False;2;P = T2?;ST2_high_2;2;Same;high;112;82;82;j;n;1;j;b;899.3729000012536
6yu!v08;170;False;2;P = T1?;ST1_high_3;1;Same;high;70;96;70;j;n;1;j;n;281.90340000037395
6yu!v08;171;False;2;P = T1?;ST2_high_5;2;Same;high;96;132;132;j;n;0;j;n;332.26640000066254
6yu!v08;172;False;2;P = T2?;STb_7;0;Same;None;154;154;154;j;n;1;j;n;266.7693000003055
6yu!v08;173;False;2;P = T1?;ST2_low_5;2;Same;low;96;154;154;j;n;0;j;v;1133.1986999994115
6yu!v08;174;False;2;P = T1?;DT2_high_1;2;Different;high;82;112;132;j;n;0;j;n;369.6074999988923
6yu!v08;175;False;2;P = T1?;ST2_low_3;2;Same;low;70;112;112;j;n;0;j;n;465.6025000003865
6yu!v08;176;False;2;P = T2?;ST1_high_6;1;Same;high;132;96;132;j;n;1;f;b;1603.1957999985025
