p_code;trial_nr;practice;block;question;condition;seqPos;Same_or_Diff;ITS;T1_hz;T2_hz;P_hz;yes_key;sure_key;correct;yes_no;rating;resp_time
6gv#58z;1;True;1;P = T2?;STb_1;0;Same;None;60;60;60;f;n;1;f;n;2502.9422999996314
6gv#58z;2;True;1;P = T1?;ST1_high_1;1;Same;high;82;112;82;f;n;1;f;n;806.9656999996369
6gv#58z;3;True;1;P = T2?;ST1_high_5;1;Same;high;96;132;96;f;n;1;j;n;1217.6878000000215
6gv#58z;4;True;1;P = T1?;ST2_low_6;2;Same;low;154;96;96;f;n;1;j;n;2069.345699999758
6gv#58z;5;True;1;P = T2?;ST2_high_2;2;Same;high;112;82;82;f;n;1;f;n;1675.999199999751
6gv#58z;6;True;1;P = T2?;STb_6;0;Same;None;132;132;132;f;n;1;f;n;1170.4633999997895
6gv#58z;7;True;1;P = T1?;STb_7;0;Same;None;154;154;154;f;n;0;j;n;2069.044699999722
6gv#58z;8;True;1;P = T1?;DT1_low_6;1;Different;low;154;96;180;f;n;0;f;b;4290.042200000244
6gv#58z;9;True;1;P = T2?;ST1_high_6;1;Same;high;132;96;132;f;n;0;f;n;1063.6540999994395
6gv#58z;10;True;1;P = T2?;DT2_low_6;2;Different;low;154;96;82;f;n;0;f;b;1892.524500000036
6gv#58z;11;True;1;P = T1?;ST1_high_4;1;Same;high;96;70;96;f;n;1;f;b;760.7127999999648
6gv#58z;12;True;1;P = T2?;DT1_high_4;1;Different;high;96;70;112;f;n;0;f;b;848.00180000002
6gv#58z;13;True;1;P = T2?;ST2_low_2;2;Same;low;132;82;82;f;n;0;j;n;999.3588999996064
6gv#58z;14;True;1;P = T1?;DT2_low_1;2;Different;low;82;132;154;f;n;1;j;n;2691.3186000001588
6gv#58z;15;True;1;P = T1?;STb_5;0;Same;None;112;112;112;f;n;1;f;n;681.805400000485
6gv#58z;16;True;1;P = T1?;ST2_high_5;2;Same;high;96;132;132;f;n;0;f;n;2373.5820000001695
p_code;trial_nr;practice;block;question;condition;seqPos;Same_or_Diff;ITS;T1_hz;T2_hz;P_hz;yes_key;sure_key;correct;yes_no;rating;resp_time
6gv#58z;1;False;1;P = T1?;ST1_low_2;1;Same;low;132;82;132;f;n;1;f;n;1754.6081999998933
6gv#58z;2;False;1;P = T1?;ST1_low_6;1;Same;low;154;96;154;f;n;1;f;b;1369.6321999996144
6gv#58z;3;False;1;P = T1?;STb_2;0;Same;None;70;70;70;f;n;1;f;n;876.7947000005734
6gv#58z;4;False;1;P = T2?;ST1_low_3;1;Same;low;70;112;70;f;n;1;j;b;1766.1749000008058
6gv#58z;5;False;1;P = T1?;ST2_high_6;2;Same;high;132;96;96;f;n;1;j;b;2330.5702999996356
6gv#58z;6;False;1;P = T1?;ST2_high_3;2;Same;high;70;96;96;f;n;0;f;v;1370.2076999998098
6gv#58z;7;False;1;P = T1?;STb_6;0;Same;None;132;132;132;f;n;0;j;b;1890.5230000000302
6gv#58z;8;False;1;P = T2?;ST2_high_4;2;Same;high;96;70;70;f;n;0;j;n;724.8575000003257
6gv#58z;9;False;1;P = T1?;ST1_high_5;1;Same;high;96;132;96;f;n;0;j;b;1120.9122000000207
6gv#58z;10;False;1;P = T1?;ST2_low_1;2;Same;low;82;132;132;f;n;1;j;n;1958.5185999994792
6gv#58z;11;False;1;P = T2?;ST1_high_5;1;Same;high;96;132;96;f;n;1;j;v;1132.1619999998802
6gv#58z;12;False;1;P = T1?;DT2_high_2;2;Different;high;112;82;70;f;n;0;f;b;4283.217299999706
6gv#58z;13;False;1;P = T2?;ST1_high_6;1;Same;high;132;96;132;f;n;0;f;b;4238.365000000158
6gv#58z;14;False;1;P = T1?;ST1_low_2;1;Same;low;132;82;132;f;n;0;j;n;1021.5084000001298
6gv#58z;15;False;1;P = T1?;ST2_high_5;2;Same;high;96;132;132;f;n;1;j;v;4202.869599999758
6gv#58z;16;False;1;P = T1?;DT1_high_1;1;Different;high;82;112;70;f;n;0;f;n;2774.834599999849
6gv#58z;17;False;1;P = T1?;ST1_high_2;1;Same;high;112;82;112;f;n;1;f;b;1853.7176999998337
6gv#58z;18;False;1;P = T1?;ST2_low_4;2;Same;low;112;70;70;f;n;1;j;n;2863.4338000001662
6gv#58z;19;False;1;P = T1?;ST2_low_2;2;Same;low;132;82;82;f;n;1;j;n;1284.6216999996614
6gv#58z;20;False;1;P = T1?;ST2_high_3;2;Same;high;70;96;96;f;n;0;f;n;390.8981999993557
6gv#58z;21;False;1;P = T1?;ST2_high_5;2;Same;high;96;132;132;f;n;1;j;n;1159.6254000005501
6gv#58z;22;False;1;P = T2?;ST2_high_3;2;Same;high;70;96;96;f;n;1;f;n;1370.3585000002931
6gv#58z;23;False;1;P = T2?;ST1_low_3;1;Same;low;70;112;70;f;n;1;j;n;790.8317999999781
6gv#58z;24;False;1;P = T2?;ST2_low_3;2;Same;low;70;112;112;f;n;1;f;b;2312.2597000001406
6gv#58z;25;False;1;P = T1?;ST2_low_6;2;Same;low;154;96;96;f;n;1;j;n;1946.712099999786
6gv#58z;26;False;1;P = T1?;ST1_high_3;1;Same;high;70;96;70;f;n;0;j;n;1588.1962000003114
6gv#58z;27;False;1;P = T2?;ST2_low_1;2;Same;low;82;132;132;f;n;1;f;b;2961.1588999996457
6gv#58z;28;False;1;P = T1?;ST1_high_1;1;Same;high;82;112;82;f;n;0;j;n;1943.705000000591
6gv#58z;29;False;1;P = T2?;ST2_high_2;2;Same;high;112;82;82;f;n;1;f;b;1990.4237999999168
6gv#58z;30;False;1;P = T1?;ST1_high_1;1;Same;high;82;112;82;f;n;1;f;n;611.8593999999575
6gv#58z;31;False;1;P = T2?;ST2_high_2;2;Same;high;112;82;82;f;n;1;f;b;602.7881999998499
6gv#58z;32;False;1;P = T2?;ST2_high_6;2;Same;high;132;96;96;f;n;1;f;b;1039.5736000000397
6gv#58z;33;False;1;P = T1?;ST2_low_5;2;Same;low;96;154;154;f;n;0;f;b;644.5481000000655
6gv#58z;34;False;1;P = T1?;ST2_high_5;2;Same;high;96;132;132;f;n;1;j;n;1534.51319999931
6gv#58z;35;False;1;P = T1?;ST1_high_1;1;Same;high;82;112;82;f;n;1;f;v;13853.788600000371
6gv#58z;36;False;1;P = T2?;ST1_low_6;1;Same;low;154;96;154;f;n;1;j;n;2716.3878999999724
6gv#58z;37;False;1;P = T1?;ST1_high_6;1;Same;high;132;96;132;f;n;0;j;n;1542.4454000003607
6gv#58z;38;False;1;P = T1?;ST2_high_1;2;Same;high;82;112;112;f;n;0;f;b;2298.7075999999433
6gv#58z;39;False;1;P = T1?;ST1_low_3;1;Same;low;70;112;70;f;n;1;f;b;1150.0341999999364
6gv#58z;40;False;1;P = T1?;DT1_low_5;1;Different;low;96;154;82;f;n;0;f;b;963.4381000005305
6gv#58z;41;False;1;P = T2?;ST2_low_1;2;Same;low;82;132;132;f;n;1;f;n;2542.9007000002457
6gv#58z;42;False;1;P = T1?;ST2_low_2;2;Same;low;132;82;82;f;n;1;j;n;1821.6455000001588
6gv#58z;43;False;1;P = T2?;STb_5;0;Same;None;112;112;112;f;n;0;j;b;1963.6757999996917
6gv#58z;44;False;1;P = T1?;ST2_high_2;2;Same;high;112;82;82;f;n;0;f;v;792.1910000004573
6gv#58z;45;False;1;P = T1?;ST2_high_2;2;Same;high;112;82;82;f;n;1;j;v;6604.47479999948
6gv#58z;46;False;1;P = T2?;ST1_high_1;1;Same;high;82;112;82;f;n;0;f;n;309.71130000034464
6gv#58z;47;False;1;P = T2?;ST2_low_6;2;Same;low;154;96;96;f;n;1;f;n;7809.09740000061
6gv#58z;48;False;1;P = T1?;ST1_low_1;1;Same;low;82;132;82;f;n;0;j;n;657.1739000000889
6gv#58z;49;False;1;P = T1?;DT2_low_6;2;Different;low;154;96;82;f;n;1;j;b;10124.271900000167
6gv#58z;50;False;1;P = T2?;ST1_high_2;1;Same;high;112;82;112;f;n;0;f;n;1534.0704000000187
6gv#58z;51;False;1;P = T2?;ST2_low_5;2;Same;low;96;154;154;f;n;1;f;n;2550.147900000411
6gv#58z;52;False;1;P = T2?;STb_3;0;Same;None;82;82;82;f;n;1;f;b;653.4779000003255
6gv#58z;53;False;1;P = T1?;ST2_low_6;2;Same;low;154;96;96;f;n;1;j;n;891.69690000017
6gv#58z;54;False;1;P = T1?;DT2_low_1;2;Different;low;82;132;154;f;n;1;j;v;3514.7156000002724
6gv#58z;55;False;1;P = T2?;ST2_high_5;2;Same;high;96;132;132;f;n;1;f;n;1357.657300000028
6gv#58z;56;False;1;P = T1?;ST1_low_5;1;Same;low;96;154;96;f;n;1;f;n;616.4972999995371
6gv#58z;57;False;1;P = T2?;ST1_low_4;1;Same;low;112;70;112;f;n;0;f;n;1290.4383999994025
6gv#58z;58;False;1;P = T1?;ST2_high_4;2;Same;high;96;70;70;f;n;0;f;b;650.3558999993402
6gv#58z;59;False;1;P = T2?;ST2_high_4;2;Same;high;96;70;70;f;n;1;f;n;636.76039999973
6gv#58z;60;False;1;P = T1?;STb_5;0;Same;None;112;112;112;f;n;0;j;v;2909.7301000001607
6gv#58z;61;False;1;P = T2?;ST2_high_3;2;Same;high;70;96;96;f;n;1;f;n;1403.4493000008297
6gv#58z;62;False;1;P = T2?;ST1_low_1;1;Same;low;82;132;82;f;n;1;j;n;1575.9795000003578
6gv#58z;63;False;1;P = T1?;ST2_low_1;2;Same;low;82;132;132;f;n;0;f;b;768.4196999998676
6gv#58z;64;False;1;P = T2?;ST2_low_5;2;Same;low;96;154;154;f;n;1;f;n;876.8964999999298
6gv#58z;65;False;1;P = T1?;STb_7;0;Same;None;154;154;154;f;n;0;j;b;714.3995000005816
6gv#58z;66;False;1;P = T2?;DT2_low_5;2;Different;low;96;154;180;f;n;0;f;n;4860.042500000418
6gv#58z;67;False;1;P = T1?;ST1_low_5;1;Same;low;96;154;96;f;n;1;f;b;2235.4809999997087
6gv#58z;68;False;1;P = T2?;ST1_low_5;1;Same;low;96;154;96;f;n;1;j;n;1133.5423000000446
6gv#58z;69;False;1;P = T2?;ST1_low_6;1;Same;low;154;96;154;f;n;1;j;n;718.7385999995968
6gv#58z;70;False;1;P = T2?;STb_7;0;Same;None;154;154;154;f;n;1;f;b;935.8684999997422
6gv#58z;71;False;1;P = T1?;ST2_low_3;2;Same;low;70;112;112;f;n;1;j;n;2144.8364999996556
6gv#58z;72;False;1;P = T2?;ST1_low_1;1;Same;low;82;132;82;f;n;1;j;n;3142.612000000554
6gv#58z;73;False;1;P = T2?;STb_2;0;Same;None;70;70;70;f;n;1;f;b;4593.396799999937
6gv#58z;74;False;1;P = T2?;ST2_high_5;2;Same;high;96;132;132;f;n;1;f;b;803.030399999443
6gv#58z;75;False;1;P = T1?;ST1_low_6;1;Same;low;154;96;154;f;n;1;f;n;754.439000000275
6gv#58z;76;False;1;P = T2?;DT1_low_1;1;Different;low;82;132;70;f;n;1;j;n;817.510100000618
6gv#58z;77;False;1;P = T2?;ST1_high_3;1;Same;high;70;96;70;f;n;0;f;n;515.0402999997823
6gv#58z;78;False;1;P = T2?;ST2_high_3;2;Same;high;70;96;96;f;n;1;f;n;579.2387999999846
6gv#58z;79;False;1;P = T2?;ST1_high_3;1;Same;high;70;96;70;f;n;0;f;n;350.7612999992489
6gv#58z;80;False;1;P = T2?;ST1_low_2;1;Same;low;132;82;132;f;n;1;j;b;766.5502999998353
6gv#58z;81;False;1;P = T2?;ST1_low_2;1;Same;low;132;82;132;f;n;1;j;n;977.6075999998284
6gv#58z;82;False;1;P = T1?;ST2_low_2;2;Same;low;132;82;82;f;n;1;j;n;1625.850299999911
6gv#58z;83;False;1;P = T2?;STb_4;0;Same;None;96;96;96;f;n;1;f;b;514.5997999998144
6gv#58z;84;False;1;P = T2?;ST2_low_2;2;Same;low;132;82;82;f;n;0;j;v;9224.226799999997
6gv#58z;85;False;1;P = T2?;DT1_high_5;1;Different;high;96;132;82;f;n;1;j;b;768.0102000003899
6gv#58z;86;False;1;P = T2?;ST1_low_3;1;Same;low;70;112;70;f;n;1;j;b;1527.0672000006016
6gv#58z;87;False;1;P = T1?;STb_4;0;Same;None;96;96;96;f;n;1;f;b;641.5029999998296
6gv#58z;88;False;1;P = T1?;ST1_high_6;1;Same;high;132;96;132;f;n;1;f;b;3096.655600000304
6gv#58z;89;False;1;P = T1?;ST1_low_5;1;Same;low;96;154;96;f;n;1;f;n;1511.896799999704
6gv#58z;90;False;1;P = T2?;ST2_high_2;2;Same;high;112;82;82;f;n;1;f;n;4650.127699999757
6gv#58z;91;False;1;P = T2?;ST1_high_5;1;Same;high;96;132;96;f;n;1;j;n;1186.7271000000983
6gv#58z;92;False;1;P = T1?;ST1_high_6;1;Same;high;132;96;132;f;n;1;f;b;420.89670000041224
6gv#58z;93;False;1;P = T1?;ST1_low_4;1;Same;low;112;70;112;f;n;1;f;b;1458.6324000001696
6gv#58z;94;False;1;P = T2?;ST2_high_1;2;Same;high;82;112;112;f;n;0;j;n;1836.5570999994816
6gv#58z;95;False;1;P = T2?;ST1_high_4;1;Same;high;96;70;96;f;n;1;j;b;849.0379000004395
6gv#58z;96;False;1;P = T1?;ST2_low_1;2;Same;low;82;132;132;f;n;0;f;b;721.9913999997516
6gv#58z;97;False;1;P = T1?;ST2_high_1;2;Same;high;82;112;112;f;n;0;f;n;4837.768200000028
6gv#58z;98;False;1;P = T1?;ST1_high_5;1;Same;high;96;132;96;f;n;0;j;n;989.2632000000958
6gv#58z;99;False;1;P = T2?;DT2_high_2;2;Different;high;112;82;70;f;n;0;f;b;2614.519599999767
6gv#58z;100;False;1;P = T2?;STb_1;0;Same;None;60;60;60;f;n;1;f;n;309.56370000058087
6gv#58z;101;False;1;P = T1?;ST1_low_1;1;Same;low;82;132;82;f;n;1;f;b;1102.0497999998042
6gv#58z;102;False;1;P = T2?;ST1_high_4;1;Same;high;96;70;96;f;n;0;f;n;1042.7561999995305
6gv#58z;103;False;1;P = T1?;ST1_low_3;1;Same;low;70;112;70;f;n;0;j;n;5271.015899999838
6gv#58z;104;False;1;P = T2?;ST2_low_6;2;Same;low;154;96;96;f;n;0;j;b;2024.5146999995995
6gv#58z;105;False;1;P = T1?;ST1_low_4;1;Same;low;112;70;112;f;n;1;f;n;302.5309999993624
6gv#58z;106;False;1;P = T2?;STb_8;0;Same;None;180;180;180;f;n;1;f;b;407.5329999996029
6gv#58z;107;False;1;P = T2?;ST2_high_6;2;Same;high;132;96;96;f;n;1;f;b;726.6543000005186
6gv#58z;108;False;1;P = T1?;ST1_high_4;1;Same;high;96;70;96;f;n;1;f;n;3167.074300000422
6gv#58z;109;False;1;P = T1?;ST2_low_4;2;Same;low;112;70;70;f;n;0;f;n;1317.7173000003677
6gv#58z;110;False;1;P = T1?;ST2_low_5;2;Same;low;96;154;154;f;n;1;j;n;804.7920999997586
6gv#58z;111;False;1;P = T1?;ST2_high_1;2;Same;high;82;112;112;f;n;0;f;b;857.3552000007112
6gv#58z;112;False;1;P = T1?;ST2_high_6;2;Same;high;132;96;96;f;n;1;j;n;1658.8105999999243
6gv#58z;113;False;1;P = T2?;DT1_high_4;1;Different;high;96;70;112;f;n;1;j;n;714.8886000004495
6gv#58z;114;False;1;P = T1?;ST2_high_4;2;Same;high;96;70;70;f;n;1;j;b;2016.8970000004265
6gv#58z;115;False;1;P = T2?;ST1_high_3;1;Same;high;70;96;70;f;n;0;f;n;539.7063999998863
6gv#58z;116;False;1;P = T2?;ST2_low_4;2;Same;low;112;70;70;f;n;1;f;v;1745.7855000002382
6gv#58z;117;False;1;P = T2?;ST1_high_6;1;Same;high;132;96;132;f;n;0;f;n;4138.362900000175
6gv#58z;118;False;1;P = T2?;ST2_low_4;2;Same;low;112;70;70;f;n;1;f;n;4344.66379999958
6gv#58z;119;False;1;P = T2?;DT1_low_2;1;Different;low;132;82;154;f;n;1;j;n;717.1570000000429
6gv#58z;120;False;1;P = T2?;ST2_high_4;2;Same;high;96;70;70;f;n;0;j;v;1823.6525000002075
6gv#58z;121;False;1;P = T2?;DT1_low_5;1;Different;low;96;154;82;f;n;1;j;b;3688.214499999958
6gv#58z;122;False;1;P = T1?;DT2_high_3;2;Different;high;70;96;112;f;n;1;j;v;7022.335599999678
6gv#58z;123;False;1;P = T2?;ST1_high_2;1;Same;high;112;82;112;f;n;1;j;n;4142.963799999961
6gv#58z;124;False;1;P = T1?;STb_1;0;Same;None;60;60;60;f;n;1;f;b;1027.1130999999514
6gv#58z;125;False;1;P = T2?;ST1_low_1;1;Same;low;82;132;82;f;n;1;j;n;1901.222799999232
6gv#58z;126;False;1;P = T2?;ST2_low_1;2;Same;low;82;132;132;f;n;1;f;v;606.0993999999482
6gv#58z;127;False;1;P = T1?;ST1_high_5;1;Same;high;96;132;96;f;n;0;j;b;1559.4353999995292
6gv#58z;128;False;1;P = T1?;ST2_low_3;2;Same;low;70;112;112;f;n;0;f;b;6648.613099999238
6gv#58z;129;False;1;P = T2?;ST2_low_3;2;Same;low;70;112;112;f;n;0;j;n;820.0569999999061
6gv#58z;130;False;1;P = T1?;ST2_high_4;2;Same;high;96;70;70;f;n;0;f;n;4862.044200000128
6gv#58z;131;False;1;P = T1?;ST1_low_3;1;Same;low;70;112;70;f;n;0;j;v;1812.5216999997065
6gv#58z;132;False;1;P = T1?;ST2_high_3;2;Same;high;70;96;96;f;n;0;f;n;1229.0810000004058
6gv#58z;133;False;1;P = T1?;ST2_low_4;2;Same;low;112;70;70;f;n;1;j;n;8760.48879999962
6gv#58z;134;False;1;P = T1?;ST1_low_2;1;Same;low;132;82;132;f;n;1;f;b;2469.679400000132
6gv#58z;135;False;1;P = T2?;ST2_low_3;2;Same;low;70;112;112;f;n;1;f;n;805.1998999999341
6gv#58z;136;False;1;P = T2?;ST2_low_6;2;Same;low;154;96;96;f;n;0;j;n;3333.983399999852
6gv#58z;137;False;1;P = T1?;DT2_high_5;2;Different;high;96;132;154;f;n;0;f;n;11363.244599999234
6gv#58z;138;False;1;P = T2?;ST1_high_6;1;Same;high;132;96;132;f;n;1;j;n;3731.090799999947
6gv#58z;139;False;1;P = T2?;ST2_high_6;2;Same;high;132;96;96;f;n;1;f;b;1512.120700000196
6gv#58z;140;False;1;P = T2?;ST1_low_6;1;Same;low;154;96;154;f;n;0;f;n;1898.130499999752
6gv#58z;141;False;1;P = T1?;ST1_high_2;1;Same;high;112;82;112;f;n;0;j;n;9128.109600000244
6gv#58z;142;False;1;P = T2?;ST2_high_5;2;Same;high;96;132;132;f;n;1;f;b;7144.698199999766
6gv#58z;143;False;1;P = T2?;ST2_low_2;2;Same;low;132;82;82;f;n;0;j;b;965.1170000006459
6gv#58z;144;False;1;P = T1?;ST1_low_6;1;Same;low;154;96;154;f;n;1;f;b;1091.0359999998036
6gv#58z;145;False;1;P = T1?;DT1_high_6;1;Different;high;132;96;154;f;n;0;f;b;1325.1249000004464
6gv#58z;146;False;1;P = T2?;ST1_high_2;1;Same;high;112;82;112;f;n;0;f;n;745.4358000004504
6gv#58z;147;False;1;P = T1?;STb_3;0;Same;None;82;82;82;f;n;1;f;n;309.17110000063985
6gv#58z;148;False;1;P = T2?;ST1_high_4;1;Same;high;96;70;96;f;n;1;j;b;1420.8851999992476
6gv#58z;149;False;1;P = T2?;ST1_low_5;1;Same;low;96;154;96;f;n;1;j;n;1399.747099999331
6gv#58z;150;False;1;P = T2?;ST1_low_2;1;Same;low;132;82;132;f;n;1;j;n;1578.306800000064
6gv#58z;151;False;1;P = T2?;STb_6;0;Same;None;132;132;132;f;n;0;j;v;1721.540399999867
6gv#58z;152;False;1;P = T2?;DT1_high_3;1;Different;high;70;96;60;f;n;1;j;b;8091.932399999678
6gv#58z;153;False;1;P = T2?;ST2_high_1;2;Same;high;82;112;112;f;n;1;f;b;2238.353499999903
6gv#58z;154;False;1;P = T2?;ST1_high_5;1;Same;high;96;132;96;f;n;1;j;b;6787.464500000169
6gv#58z;155;False;1;P = T2?;ST2_high_1;2;Same;high;82;112;112;f;n;0;j;n;651.5613000001395
6gv#58z;156;False;1;P = T1?;STb_8;0;Same;None;180;180;180;f;n;1;f;b;514.4369999998162
6gv#58z;157;False;1;P = T1?;ST1_low_1;1;Same;low;82;132;82;f;n;0;j;n;593.4534999996686
6gv#58z;158;False;1;P = T2?;ST1_high_1;1;Same;high;82;112;82;f;n;0;f;b;3141.941799999586
6gv#58z;159;False;1;P = T1?;ST1_low_4;1;Same;low;112;70;112;f;n;1;f;n;1643.0558000001838
6gv#58z;160;False;1;P = T1?;ST2_low_6;2;Same;low;154;96;96;f;n;1;j;b;2535.2809000005436
6gv#58z;161;False;1;P = T2?;ST2_low_4;2;Same;low;112;70;70;f;n;0;j;n;1581.5247999998974
6gv#58z;162;False;1;P = T1?;ST2_low_3;2;Same;low;70;112;112;f;n;1;j;b;4864.573800000471
6gv#58z;163;False;1;P = T2?;ST2_low_2;2;Same;low;132;82;82;f;n;1;f;n;661.7840999997497
6gv#58z;164;False;1;P = T1?;ST1_high_3;1;Same;high;70;96;70;f;n;0;j;b;2564.484000000448
6gv#58z;165;False;1;P = T2?;ST2_low_5;2;Same;low;96;154;154;f;n;0;j;b;5394.928900000195
6gv#58z;166;False;1;P = T2?;ST1_low_5;1;Same;low;96;154;96;f;n;1;j;n;825.2659999998286
6gv#58z;167;False;1;P = T1?;ST1_high_2;1;Same;high;112;82;112;f;n;1;f;b;647.1545999993396
6gv#58z;168;False;1;P = T2?;ST1_low_4;1;Same;low;112;70;112;f;n;1;j;n;907.1274999996604
6gv#58z;169;False;1;P = T1?;ST2_low_5;2;Same;low;96;154;154;f;n;1;j;b;843.4510999995837
6gv#58z;170;False;1;P = T2?;ST1_low_4;1;Same;low;112;70;112;f;n;0;f;b;998.9615999993475
6gv#58z;171;False;1;P = T1?;ST2_high_2;2;Same;high;112;82;82;f;n;0;f;b;1025.5975999998554
6gv#58z;172;False;1;P = T1?;ST2_high_6;2;Same;high;132;96;96;f;n;1;j;n;1046.3675999999396
6gv#58z;173;False;1;P = T2?;ST1_high_1;1;Same;high;82;112;82;f;n;0;f;b;7447.862400000304
6gv#58z;174;False;1;P = T1?;ST1_high_4;1;Same;high;96;70;96;f;n;1;f;b;683.4637000001749
6gv#58z;175;False;1;P = T1?;ST1_high_4;1;Same;high;96;70;96;f;n;1;f;b;652.6655999996365
6gv#58z;176;False;1;P = T1?;ST1_high_3;1;Same;high;70;96;70;f;n;0;j;n;351.90140000031533
6gv#58z;1;True;2;P != T1?;ST1_low_6;1;Same;low;154;96;154;f;n;1;j;n;3918.8258999993195
6gv#58z;2;True;2;P != T1?;STb_3;0;Same;None;82;82;82;f;n;1;j;n;5167.803299999832
6gv#58z;3;True;2;P != T2?;STb_7;0;Same;None;154;154;154;f;n;1;j;n;16929.896999999983
6gv#58z;4;True;2;P != T2?;ST2_high_1;2;Same;high;82;112;112;f;n;1;j;n;30754.909499999485
6gv#58z;5;True;2;P != T1?;ST2_high_6;2;Same;high;132;96;96;f;n;0;j;b;4181.144000000131
6gv#58z;6;True;2;P != T2?;DT1_high_4;1;Different;high;96;70;112;f;n;0;j;b;782.4295000000347
6gv#58z;7;True;2;P != T1?;ST2_high_4;2;Same;high;96;70;70;f;n;1;f;b;2400.6082000005335
6gv#58z;8;True;2;P != T1?;DT2_high_4;2;Different;high;96;70;60;f;n;1;f;b;3382.71689999965
6gv#58z;9;True;2;P != T1?;ST1_high_3;1;Same;high;70;96;70;f;n;1;j;b;1209.5060999999987
6gv#58z;10;True;2;P != T2?;STb_8;0;Same;None;180;180;180;f;n;1;j;n;704.6153000001141
6gv#58z;11;True;2;P != T1?;DT2_high_2;2;Different;high;112;82;70;f;n;1;f;b;777.0338000000265
6gv#58z;12;True;2;P != T2?;ST1_high_4;1;Same;high;96;70;96;f;n;0;j;n;348.2032000001709
6gv#58z;13;True;2;P != T2?;ST1_low_6;1;Same;low;154;96;154;f;n;1;f;b;1254.078599999957
6gv#58z;14;True;2;P != T2?;DT1_low_2;1;Different;low;132;82;154;f;n;0;j;n;1439.3629999995028
6gv#58z;15;True;2;P != T2?;ST2_low_6;2;Same;low;154;96;96;f;n;0;f;b;1344.9460000001636
6gv#58z;16;True;2;P != T1?;STb_7;0;Same;None;154;154;154;f;n;1;j;b;1356.6426000006686
6gv#58z;1;False;2;P != T2?;ST2_low_5;2;Same;low;96;154;154;f;n;1;j;b;1156.7706000005273
6gv#58z;2;False;2;P != T1?;ST2_high_3;2;Same;high;70;96;96;f;n;0;j;n;527.3006999996142
6gv#58z;3;False;2;P != T2?;ST2_high_6;2;Same;high;132;96;96;f;n;0;f;b;867.4604999996518
6gv#58z;4;False;2;P != T2?;ST2_high_2;2;Same;high;112;82;82;f;n;1;j;b;2088.987199999792
6gv#58z;5;False;2;P != T1?;ST2_high_1;2;Same;high;82;112;112;f;n;1;f;v;2523.055600000589
6gv#58z;6;False;2;P != T2?;ST2_low_3;2;Same;low;70;112;112;f;n;0;f;b;3055.2893999993103
6gv#58z;7;False;2;P != T2?;ST1_low_3;1;Same;low;70;112;70;f;n;0;j;n;1800.459399999454
6gv#58z;8;False;2;P != T1?;STb_8;0;Same;None;180;180;180;f;n;1;j;b;889.4862000006469
6gv#58z;9;False;2;P != T2?;STb_6;0;Same;None;132;132;132;f;n;1;j;n;927.1939999998722
6gv#58z;10;False;2;P != T2?;ST1_low_2;1;Same;low;132;82;132;f;n;0;j;n;1026.296099999854
6gv#58z;11;False;2;P != T2?;ST2_low_6;2;Same;low;154;96;96;f;n;1;j;n;1685.6957999998485
6gv#58z;12;False;2;P != T2?;ST1_low_5;1;Same;low;96;154;96;f;n;1;f;b;894.3001999996341
6gv#58z;13;False;2;P != T1?;ST2_low_1;2;Same;low;82;132;132;f;n;0;j;n;1024.353599999813
6gv#58z;14;False;2;P != T2?;ST2_low_5;2;Same;low;96;154;154;f;n;1;j;n;715.9621000000698
6gv#58z;15;False;2;P != T2?;ST2_high_3;2;Same;high;70;96;96;f;n;0;f;b;1892.5116999998863
6gv#58z;16;False;2;P != T2?;DT1_low_6;1;Different;low;154;96;180;f;n;1;f;b;2224.0443000000596
6gv#58z;17;False;2;P != T2?;ST2_high_4;2;Same;high;96;70;70;f;n;1;j;n;2120.9640999995827
6gv#58z;18;False;2;P != T1?;ST1_low_1;1;Same;low;82;132;82;f;n;1;j;b;2662.065200000143
6gv#58z;19;False;2;P != T2?;ST1_low_6;1;Same;low;154;96;154;f;n;0;j;b;8321.836699999949
6gv#58z;20;False;2;P != T2?;ST1_high_1;1;Same;high;82;112;82;f;n;1;f;b;1302.5022000001627
6gv#58z;21;False;2;P != T1?;ST1_high_5;1;Same;high;96;132;96;f;n;0;f;b;1614.2460000000938
6gv#58z;22;False;2;P != T2?;ST2_high_6;2;Same;high;132;96;96;f;n;1;j;n;912.2020999993765
6gv#58z;23;False;2;P != T2?;ST1_low_5;1;Same;low;96;154;96;f;n;1;f;b;1318.1595000005473
6gv#58z;24;False;2;P != T1?;ST2_low_1;2;Same;low;82;132;132;f;n;0;j;n;755.9620000001814
6gv#58z;25;False;2;P != T1?;STb_4;0;Same;None;96;96;96;f;n;1;j;b;1410.6198999998014
6gv#58z;26;False;2;P != T2?;DT1_low_3;1;Different;low;70;112;60;f;n;0;j;n;3017.749699999513
6gv#58z;27;False;2;P != T2?;ST2_high_5;2;Same;high;96;132;132;f;n;0;f;b;972.5836999996318
6gv#58z;28;False;2;P != T1?;ST2_high_2;2;Same;high;112;82;82;f;n;0;j;n;812.9903999997623
6gv#58z;29;False;2;P != T2?;ST1_low_2;1;Same;low;132;82;132;f;n;0;j;n;1245.8495000000767
6gv#58z;30;False;2;P != T2?;ST1_high_4;1;Same;high;96;70;96;f;n;1;f;b;935.9966000001805
6gv#58z;31;False;2;P != T1?;ST2_high_1;2;Same;high;82;112;112;f;n;0;j;n;434.7888000002058
6gv#58z;32;False;2;P != T1?;ST1_high_4;1;Same;high;96;70;96;f;n;0;f;b;1286.9611000005534
6gv#58z;33;False;2;P != T2?;ST1_high_3;1;Same;high;70;96;70;f;n;0;j;n;1435.1480999994237
6gv#58z;34;False;2;P != T2?;ST1_low_1;1;Same;low;82;132;82;f;n;0;j;n;3336.137599999347
6gv#58z;35;False;2;P != T2?;ST2_low_4;2;Same;low;112;70;70;f;n;1;j;n;2401.5488000004552
6gv#58z;36;False;2;P != T1?;ST2_low_2;2;Same;low;132;82;82;f;n;1;f;b;1587.661399999888
6gv#58z;37;False;2;P != T1?;ST2_high_5;2;Same;high;96;132;132;f;n;1;f;b;1440.092599998934
6gv#58z;38;False;2;P != T1?;ST1_high_6;1;Same;high;132;96;132;f;n;1;j;n;1648.091499999282
6gv#58z;39;False;2;P != T2?;ST1_high_6;1;Same;high;132;96;132;f;n;1;f;b;3214.415899999949
6gv#58z;40;False;2;P != T1?;ST1_high_5;1;Same;high;96;132;96;f;n;1;j;n;297.1636000002036
6gv#58z;41;False;2;P != T2?;ST2_low_1;2;Same;low;82;132;132;f;n;1;j;n;856.3261999988754
6gv#58z;42;False;2;P != T1?;ST2_low_6;2;Same;low;154;96;96;f;n;0;j;n;300.7094999993569
6gv#58z;43;False;2;P != T2?;ST1_low_4;1;Same;low;112;70;112;f;n;1;f;b;802.5073999997403
6gv#58z;44;False;2;P != T1?;ST2_low_1;2;Same;low;82;132;132;f;n;0;j;n;2897.0323000012286
6gv#58z;45;False;2;P != T2?;ST1_low_2;1;Same;low;132;82;132;f;n;1;f;b;2607.8176999999414
6gv#58z;46;False;2;P != T2?;ST2_high_1;2;Same;high;82;112;112;f;n;1;j;n;2224.9198999998043
6gv#58z;47;False;2;P != T1?;DT1_high_1;1;Different;high;82;112;70;f;n;0;j;n;1068.7392999989243
6gv#58z;48;False;2;P != T2?;ST1_low_4;1;Same;low;112;70;112;f;n;0;j;n;672.8296999990562
6gv#58z;49;False;2;P != T1?;ST2_high_3;2;Same;high;70;96;96;f;n;1;f;b;1072.3476000002847
6gv#58z;50;False;2;P != T1?;DT2_high_3;2;Different;high;70;96;112;f;n;0;j;n;1085.7765000000654
6gv#58z;51;False;2;P != T1?;ST1_low_3;1;Same;low;70;112;70;f;n;0;f;n;365.5036000000109
6gv#58z;52;False;2;P != T1?;ST1_high_1;1;Same;high;82;112;82;f;n;1;j;v;2161.421099999643
6gv#58z;53;False;2;P != T2?;ST2_high_5;2;Same;high;96;132;132;f;n;1;j;n;272.0016000002943
6gv#58z;54;False;2;P != T1?;ST1_low_2;1;Same;low;132;82;132;f;n;1;j;b;1112.2866999994585
6gv#58z;55;False;2;P != T2?;ST2_low_4;2;Same;low;112;70;70;f;n;0;f;b;1299.676399999953
6gv#58z;56;False;2;P != T1?;ST2_high_4;2;Same;high;96;70;70;f;n;1;f;b;978.7894000000961
6gv#58z;57;False;2;P != T2?;ST2_high_2;2;Same;high;112;82;82;f;n;1;j;n;1464.480699998603
6gv#58z;58;False;2;P != T2?;DT2_high_2;2;Different;high;112;82;70;f;n;0;j;n;1454.0699999997742
6gv#58z;59;False;2;P != T2?;ST1_low_5;1;Same;low;96;154;96;f;n;0;j;n;3526.4189999998052
6gv#58z;60;False;2;P != T2?;ST1_high_5;1;Same;high;96;132;96;f;n;0;j;n;988.621399999829
6gv#58z;61;False;2;P != T2?;ST1_high_5;1;Same;high;96;132;96;f;n;0;j;n;297.0685999989655
6gv#58z;62;False;2;P != T2?;ST1_high_3;1;Same;high;70;96;70;f;n;0;j;n;586.3853999999264
6gv#58z;63;False;2;P != T1?;ST2_high_2;2;Same;high;112;82;82;f;n;1;f;b;1874.3783999998413
6gv#58z;64;False;2;P != T1?;ST1_low_5;1;Same;low;96;154;96;f;n;1;j;b;652.7399000005971
6gv#58z;65;False;2;P != T1?;ST2_high_6;2;Same;high;132;96;96;f;n;0;j;n;1315.528600000107
6gv#58z;66;False;2;P != T1?;ST1_low_4;1;Same;low;112;70;112;f;n;1;j;n;790.8597000005102
6gv#58z;67;False;2;P != T2?;ST2_high_1;2;Same;high;82;112;112;f;n;1;j;b;873.7750000000233
6gv#58z;68;False;2;P != T1?;ST1_low_4;1;Same;low;112;70;112;f;n;0;f;v;980.1420999992843
6gv#58z;69;False;2;P != T2?;ST1_high_1;1;Same;high;82;112;82;f;n;0;j;b;924.0432000005967
6gv#58z;70;False;2;P != T2?;ST1_low_6;1;Same;low;154;96;154;f;n;0;j;v;976.6373000002204
6gv#58z;71;False;2;P != T2?;ST1_high_6;1;Same;high;132;96;132;f;n;1;f;b;328.45459999953164
6gv#58z;72;False;2;P != T1?;ST2_low_5;2;Same;low;96;154;154;f;n;1;f;b;748.0995999994775
6gv#58z;73;False;2;P != T1?;ST2_low_3;2;Same;low;70;112;112;f;n;0;j;n;709.1992000005121
6gv#58z;74;False;2;P != T2?;STb_2;0;Same;None;70;70;70;f;n;1;j;n;288.3201000004192
6gv#58z;75;False;2;P != T2?;ST2_high_5;2;Same;high;96;132;132;f;n;1;j;b;4246.261199999935
6gv#58z;76;False;2;P != T2?;ST2_low_1;2;Same;low;82;132;132;f;n;0;f;b;751.5082999998413
6gv#58z;77;False;2;P != T2?;ST1_low_3;1;Same;low;70;112;70;f;n;0;j;b;271.55299999867566
6gv#58z;78;False;2;P != T2?;DT1_high_2;1;Different;high;112;82;132;f;n;1;f;b;1127.946399999928
6gv#58z;79;False;2;P != T1?;STb_1;0;Same;None;60;60;60;f;n;1;j;n;1200.7224000008136
6gv#58z;80;False;2;P != T2?;ST2_high_2;2;Same;high;112;82;82;f;n;0;f;b;980.5420000011509
6gv#58z;81;False;2;P != T1?;ST1_high_2;1;Same;high;112;82;112;f;n;1;j;n;922.7722999985417
6gv#58z;82;False;2;P != T2?;DT2_low_3;2;Different;low;70;112;132;f;n;0;j;b;361.0336000001553
6gv#58z;83;False;2;P != T2?;ST2_low_2;2;Same;low;132;82;82;f;n;0;f;b;2677.061300000787
6gv#58z;84;False;2;P != T2?;ST1_high_5;1;Same;high;96;132;96;f;n;1;f;n;783.3977000009327
6gv#58z;85;False;2;P != T1?;ST1_low_6;1;Same;low;154;96;154;f;n;1;j;b;1070.4646000012872
6gv#58z;86;False;2;P != T2?;ST1_low_6;1;Same;low;154;96;154;f;n;0;j;n;1310.5632999995578
6gv#58z;87;False;2;P != T2?;ST2_low_6;2;Same;low;154;96;96;f;n;1;j;n;438.4334000005765
6gv#58z;88;False;2;P != T1?;DT1_high_4;1;Different;high;96;70;112;f;n;1;f;b;1531.1910000000353
6gv#58z;89;False;2;P != T1?;ST2_high_3;2;Same;high;70;96;96;f;n;1;f;b;2681.3035999985004
6gv#58z;90;False;2;P != T2?;ST1_high_2;1;Same;high;112;82;112;f;n;1;f;b;1675.1714000001812
6gv#58z;91;False;2;P != T2?;ST2_low_2;2;Same;low;132;82;82;f;n;1;j;n;869.3203000002541
6gv#58z;92;False;2;P != T2?;ST2_low_6;2;Same;low;154;96;96;f;n;1;j;n;2124.174900000071
6gv#58z;93;False;2;P != T1?;ST1_low_2;1;Same;low;132;82;132;f;n;1;j;b;762.31099999859
6gv#58z;94;False;2;P != T1?;ST1_low_5;1;Same;low;96;154;96;f;n;0;f;b;1549.3800999993255
6gv#58z;95;False;2;P != T1?;ST1_high_2;1;Same;high;112;82;112;f;n;1;j;b;1028.0167999990226
6gv#58z;96;False;2;P != T1?;ST2_high_4;2;Same;high;96;70;70;f;n;1;f;b;2626.103200000216
6gv#58z;97;False;2;P != T2?;ST1_low_4;1;Same;low;112;70;112;f;n;1;f;b;2079.2806999997993
6gv#58z;98;False;2;P != T2?;ST1_low_1;1;Same;low;82;132;82;f;n;1;f;b;876.0050999990199
6gv#58z;99;False;2;P != T2?;ST2_high_4;2;Same;high;96;70;70;f;n;0;f;n;1225.3818999997748
6gv#58z;100;False;2;P != T1?;ST1_high_2;1;Same;high;112;82;112;f;n;1;j;n;6974.642200000744
6gv#58z;101;False;2;P != T2?;ST2_low_3;2;Same;low;70;112;112;f;n;0;f;b;1230.7846000003337
6gv#58z;102;False;2;P != T1?;ST1_high_1;1;Same;high;82;112;82;f;n;1;j;b;784.5644999997603
6gv#58z;103;False;2;P != T1?;ST1_high_4;1;Same;high;96;70;96;f;n;0;f;b;286.2505000011879
6gv#58z;104;False;2;P != T1?;ST2_low_4;2;Same;low;112;70;70;f;n;0;j;n;790.850400000636
6gv#58z;105;False;2;P != T1?;ST2_high_6;2;Same;high;132;96;96;f;n;1;f;b;758.6467000000994
6gv#58z;106;False;2;P != T1?;STb_6;0;Same;None;132;132;132;f;n;0;f;b;778.9651999992202
6gv#58z;107;False;2;P != T1?;ST1_low_2;1;Same;low;132;82;132;f;n;1;j;n;1355.955899998662
6gv#58z;108;False;2;P != T1?;ST2_high_4;2;Same;high;96;70;70;f;n;1;f;b;1658.2395999994333
6gv#58z;109;False;2;P != T2?;ST1_high_4;1;Same;high;96;70;96;f;n;1;f;b;1018.1422000005114
6gv#58z;110;False;2;P != T2?;ST2_low_5;2;Same;low;96;154;154;f;n;1;j;n;922.916499999701
6gv#58z;111;False;2;P != T1?;ST2_low_3;2;Same;low;70;112;112;f;n;1;f;b;2196.2875000008353
6gv#58z;112;False;2;P != T1?;ST2_high_1;2;Same;high;82;112;112;f;n;0;j;v;2610.232499999256
6gv#58z;113;False;2;P != T1?;ST2_low_5;2;Same;low;96;154;154;f;n;0;j;n;446132.60699999955
6gv#58z;114;False;2;P != T2?;ST2_high_3;2;Same;high;70;96;96;f;n;1;j;b;3013.0424999988463
6gv#58z;115;False;2;P != T1?;ST1_low_4;1;Same;low;112;70;112;f;n;0;f;n;1800.7023000009212
6gv#58z;116;False;2;P != T1?;STb_3;0;Same;None;82;82;82;f;n;1;j;n;542.2795000013139
6gv#58z;117;False;2;P != T1?;ST1_high_6;1;Same;high;132;96;132;f;n;1;j;n;650.3147000003082
6gv#58z;118;False;2;P != T1?;ST1_low_6;1;Same;low;154;96;154;f;n;1;j;b;690.7184000010602
6gv#58z;119;False;2;P != T1?;STb_5;0;Same;None;112;112;112;f;n;1;j;n;478.865200000655
6gv#58z;120;False;2;P != T2?;STb_5;0;Same;None;112;112;112;f;n;0;f;b;356.5100000014354
6gv#58z;121;False;2;P != T1?;ST1_low_3;1;Same;low;70;112;70;f;n;0;f;n;259.97479999932693
6gv#58z;122;False;2;P != T1?;ST1_low_1;1;Same;low;82;132;82;f;n;1;j;n;1338.1722000012815
6gv#58z;123;False;2;P != T1?;ST1_high_5;1;Same;high;96;132;96;f;n;1;j;n;1772.5783999994746
6gv#58z;124;False;2;P != T2?;ST2_high_4;2;Same;high;96;70;70;f;n;1;j;n;4348.5652999988815
6gv#58z;125;False;2;P != T1?;ST1_high_4;1;Same;high;96;70;96;f;n;0;f;b;902.7818000013212
6gv#58z;126;False;2;P != T2?;ST2_high_3;2;Same;high;70;96;96;f;n;1;j;n;1221.3637000004383
6gv#58z;127;False;2;P != T1?;ST2_low_4;2;Same;low;112;70;70;f;n;1;f;b;825.1464999993914
6gv#58z;128;False;2;P != T1?;STb_7;0;Same;None;154;154;154;f;n;1;j;n;1310.7481999995798
6gv#58z;129;False;2;P != T2?;ST2_high_6;2;Same;high;132;96;96;f;n;1;j;n;308.93790000118315
6gv#58z;130;False;2;P != T2?;ST1_high_6;1;Same;high;132;96;132;f;n;1;f;b;8700.395500000013
6gv#58z;131;False;2;P != T1?;ST1_low_1;1;Same;low;82;132;82;f;n;1;j;n;709.7606000006635
6gv#58z;132;False;2;P != T1?;ST1_high_3;1;Same;high;70;96;70;f;n;0;f;n;1792.3957000002702
6gv#58z;133;False;2;P != T2?;ST2_low_4;2;Same;low;112;70;70;f;n;1;j;n;769.501400000081
6gv#58z;134;False;2;P != T1?;ST2_low_2;2;Same;low;132;82;82;f;n;1;f;b;463.00589999918884
6gv#58z;135;False;2;P != T1?;ST2_low_3;2;Same;low;70;112;112;f;n;0;j;n;707.8580000015791
6gv#58z;136;False;2;P != T1?;ST2_low_6;2;Same;low;154;96;96;f;n;1;f;b;983.2127999998193
6gv#58z;137;False;2;P != T1?;STb_2;0;Same;None;70;70;70;f;n;1;j;n;1259.3502999989141
6gv#58z;138;False;2;P != T2?;STb_3;0;Same;None;82;82;82;f;n;1;j;n;624.8242000001483
6gv#58z;139;False;2;P != T1?;ST1_high_3;1;Same;high;70;96;70;f;n;0;f;b;3996.9693000002735
6gv#58z;140;False;2;P != T1?;ST1_low_5;1;Same;low;96;154;96;f;n;1;j;n;508.40299999981653
6gv#58z;141;False;2;P != T1?;DT2_low_4;2;Different;low;112;70;60;f;n;1;f;b;1317.281900001035
6gv#58z;142;False;2;P != T2?;ST2_low_3;2;Same;low;70;112;112;f;n;1;j;n;626.7499000005046
6gv#58z;143;False;2;P != T2?;ST1_high_2;1;Same;high;112;82;112;f;n;0;j;n;628.4197000004497
6gv#58z;144;False;2;P != T1?;ST2_high_2;2;Same;high;112;82;82;f;n;1;f;b;1143.7822000007145
6gv#58z;145;False;2;P != T1?;DT1_high_6;1;Different;high;132;96;154;f;n;0;j;n;4137.023400000544
6gv#58z;146;False;2;P != T1?;ST1_high_3;1;Same;high;70;96;70;f;n;1;j;n;864.0342999988206
6gv#58z;147;False;2;P != T1?;ST2_high_6;2;Same;high;132;96;96;f;n;1;f;b;1078.4739999999147
6gv#58z;148;False;2;P != T1?;ST2_low_2;2;Same;low;132;82;82;f;n;0;j;n;1187.7418000003672
6gv#58z;149;False;2;P != T1?;ST1_low_3;1;Same;low;70;112;70;f;n;1;j;b;868.8227000002371
6gv#58z;150;False;2;P != T1?;DT2_low_3;2;Different;low;70;112;132;f;n;1;f;b;974.9929000008706
6gv#58z;151;False;2;P != T1?;ST2_low_5;2;Same;low;96;154;154;f;n;0;j;n;820.5897999996523
6gv#58z;152;False;2;P != T2?;ST1_low_1;1;Same;low;82;132;82;f;n;1;f;b;927.0484999997279
6gv#58z;153;False;2;P != T2?;ST1_low_3;1;Same;low;70;112;70;f;n;0;j;n;411.72369999912917
6gv#58z;154;False;2;P != T1?;ST1_high_1;1;Same;high;82;112;82;f;n;0;f;b;1065.0610000011511
6gv#58z;155;False;2;P != T2?;STb_4;0;Same;None;96;96;96;f;n;1;j;n;1285.1826999994955
6gv#58z;156;False;2;P != T2?;ST1_high_4;1;Same;high;96;70;96;f;n;1;f;b;499.37750000026426
6gv#58z;157;False;2;P != T2?;DT2_high_5;2;Different;high;96;132;154;f;n;0;j;n;1303.5718999999517
6gv#58z;158;False;2;P != T1?;ST2_high_5;2;Same;high;96;132;132;f;n;1;f;b;1658.6321000013413
6gv#58z;159;False;2;P != T2?;ST2_low_1;2;Same;low;82;132;132;f;n;1;j;n;624.8261000000639
6gv#58z;160;False;2;P != T2?;ST1_high_1;1;Same;high;82;112;82;f;n;0;j;n;662.8353999985848
6gv#58z;161;False;2;P != T1?;ST1_low_6;1;Same;low;154;96;154;f;n;0;f;b;1140.404400000989
6gv#58z;162;False;2;P != T1?;ST2_low_6;2;Same;low;154;96;96;f;n;1;f;b;587.2567000005802
6gv#58z;163;False;2;P != T2?;ST1_high_2;1;Same;high;112;82;112;f;n;0;j;n;563.0712999991374
6gv#58z;164;False;2;P != T2?;STb_8;0;Same;None;180;180;180;f;n;1;j;n;953.2478000000992
6gv#58z;165;False;2;P != T2?;ST2_high_1;2;Same;high;82;112;112;f;n;1;j;n;350.56169999916165
6gv#58z;166;False;2;P != T2?;DT2_high_4;2;Different;high;96;70;60;f;n;1;f;b;2105.2574000004824
6gv#58z;167;False;2;P != T2?;ST2_low_2;2;Same;low;132;82;82;f;n;1;j;n;274.7075000006589
6gv#58z;168;False;2;P != T1?;ST2_high_5;2;Same;high;96;132;132;f;n;1;f;n;1454.285699999673
6gv#58z;169;False;2;P != T2?;DT2_low_6;2;Different;low;154;96;82;f;n;1;f;b;1071.8182000000525
6gv#58z;170;False;2;P != T1?;ST2_low_4;2;Same;low;112;70;70;f;n;0;j;n;2009.7329999989597
6gv#58z;171;False;2;P != T2?;STb_1;0;Same;None;60;60;60;f;n;0;f;b;722.3278000001301
6gv#58z;172;False;2;P != T1?;ST1_high_6;1;Same;high;132;96;132;f;n;1;j;n;470.75800000129675
6gv#58z;173;False;2;P != T1?;DT2_low_5;2;Different;low;96;154;180;f;n;1;f;b;566.1759000013262
6gv#58z;174;False;2;P != T2?;ST1_high_3;1;Same;high;70;96;70;f;n;0;j;n;408.46090000013646
6gv#58z;175;False;2;P != T1?;DT2_high_5;2;Different;high;96;132;154;f;n;1;f;n;454.8773999995319
6gv#58z;176;False;2;P != T2?;STb_7;0;Same;None;154;154;154;f;n;1;j;n;261.07779999983904
