p_code;trial_nr;practice;block;question;condition;seqPos;Same_or_Diff;ITS;T1_hz;T2_hz;P_hz;yes_key;sure_key;correct;yes_no;rating;resp_time
90k2a#v;1;True;1;P != T2?;ST1_low_6;1;Same;low;154;96;154;f;v;1;f;v;4119.921899999099
90k2a#v;2;True;1;P != T2?;STb_8;0;Same;None;180;180;180;f;v;1;j;v;1979.002500000206
90k2a#v;3;True;1;P != T2?;STb_1;0;Same;None;60;60;60;f;v;1;j;v;2214.8219000009703
90k2a#v;4;True;1;P != T1?;ST1_low_3;1;Same;low;70;112;70;f;v;1;j;v;3022.8816000017105
90k2a#v;5;True;1;P != T1?;ST2_low_5;2;Same;low;96;154;154;f;v;1;f;v;2316.138199999841
90k2a#v;6;True;1;P != T2?;ST2_low_3;2;Same;low;70;112;112;f;v;1;j;v;1779.0395000010903
90k2a#v;7;True;1;P != T2?;DT1_high_6;1;Different;high;132;96;154;f;v;1;f;v;1996.7348000009224
90k2a#v;8;True;1;P != T1?;DT1_high_5;1;Different;high;96;132;82;f;v;1;f;v;1913.1780000006984
90k2a#v;9;True;1;P != T1?;STb_8;0;Same;None;180;180;180;f;v;0;f;b;2589.151199999833
90k2a#v;10;True;1;P != T2?;ST1_high_5;1;Same;high;96;132;96;f;v;1;f;v;2318.022999999812
90k2a#v;11;True;1;P != T2?;ST2_high_3;2;Same;high;70;96;96;f;v;1;j;v;1663.138699999763
90k2a#v;12;True;1;P != T2?;DT2_high_4;2;Different;high;96;70;60;f;v;0;j;v;1339.1909999991185
90k2a#v;13;True;1;P != T1?;ST1_high_6;1;Same;high;132;96;132;f;v;1;j;v;2267.2525999987556
90k2a#v;14;True;1;P != T1?;STb_5;0;Same;None;112;112;112;f;v;1;j;v;1316.6982000002463
90k2a#v;15;True;1;P != T1?;ST2_high_6;2;Same;high;132;96;96;f;v;1;f;b;2512.6405999999406
90k2a#v;16;True;1;P != T1?;DT1_high_6;1;Different;high;132;96;154;f;v;0;j;b;2390.0423999984923
p_code;trial_nr;practice;block;question;condition;seqPos;Same_or_Diff;ITS;T1_hz;T2_hz;P_hz;yes_key;sure_key;correct;yes_no;rating;resp_time
90k2a#v;1;False;1;P != T2?;ST2_high_6;2;Same;high;132;96;96;f;v;1;j;v;1467.9470999999467
90k2a#v;2;False;1;P != T2?;ST2_high_5;2;Same;high;96;132;132;f;v;1;j;v;1346.2140999999974
90k2a#v;3;False;1;P != T2?;ST2_high_4;2;Same;high;96;70;70;f;v;1;j;v;1324.1819999984727
90k2a#v;4;False;1;P != T1?;ST2_low_3;2;Same;low;70;112;112;f;v;0;j;v;1083.333999999013
90k2a#v;5;False;1;P != T1?;ST2_low_3;2;Same;low;70;112;112;f;v;0;j;v;1092.972500000542
90k2a#v;6;False;1;P != T2?;ST2_high_3;2;Same;high;70;96;96;f;v;0;f;n;8052.257899998949
90k2a#v;7;False;1;P != T1?;ST1_low_5;1;Same;low;96;154;96;f;v;1;j;n;2334.3681000005745
90k2a#v;8;False;1;P != T1?;ST1_low_5;1;Same;low;96;154;96;f;v;0;f;b;2812.980400000015
90k2a#v;9;False;1;P != T2?;ST2_low_4;2;Same;low;112;70;70;f;v;1;j;b;1716.6565000006813
90k2a#v;10;False;1;P != T2?;STb_1;0;Same;None;60;60;60;f;v;1;j;n;6321.199099998921
90k2a#v;11;False;1;P != T1?;STb_5;0;Same;None;112;112;112;f;v;1;j;v;1345.698999999513
90k2a#v;12;False;1;P != T1?;ST1_high_2;1;Same;high;112;82;112;f;v;1;j;v;1021.2455000000773
90k2a#v;13;False;1;P != T2?;ST2_low_2;2;Same;low;132;82;82;f;v;1;j;v;1232.685599999968
90k2a#v;14;False;1;P != T1?;ST2_high_2;2;Same;high;112;82;82;f;v;1;f;b;3582.9603999991377
90k2a#v;15;False;1;P != T1?;DT2_high_1;2;Different;high;82;112;132;f;v;1;f;n;4656.293599999117
90k2a#v;16;False;1;P != T1?;ST2_low_5;2;Same;low;96;154;154;f;v;1;f;b;2645.041100000526
90k2a#v;17;False;1;P != T1?;ST2_high_3;2;Same;high;70;96;96;f;v;0;j;b;1480.3026000008686
90k2a#v;18;False;1;P != T2?;STb_6;0;Same;None;132;132;132;f;v;1;j;b;2156.0306000010314
90k2a#v;19;False;1;P != T1?;ST1_low_3;1;Same;low;70;112;70;f;v;1;j;v;1240.8660000000964
90k2a#v;20;False;1;P != T1?;ST1_high_6;1;Same;high;132;96;132;f;v;1;j;b;1689.1094999991765
90k2a#v;21;False;1;P != T1?;ST1_low_2;1;Same;low;132;82;132;f;v;0;f;n;3575.556799998594
90k2a#v;22;False;1;P != T2?;ST1_high_4;1;Same;high;96;70;96;f;v;1;f;n;2538.317599999573
90k2a#v;23;False;1;P != T2?;ST2_low_1;2;Same;low;82;132;132;f;v;1;j;b;2096.72479999972
90k2a#v;24;False;1;P != T1?;ST1_low_6;1;Same;low;154;96;154;f;v;1;j;v;1635.7593000011548
90k2a#v;25;False;1;P != T2?;ST2_high_2;2;Same;high;112;82;82;f;v;1;j;v;1349.2795000001934
90k2a#v;26;False;1;P != T1?;DT1_high_3;1;Different;high;70;96;60;f;v;1;f;n;2432.0108000010805
90k2a#v;27;False;1;P != T1?;ST2_high_4;2;Same;high;96;70;70;f;v;1;f;n;5298.872199999096
90k2a#v;28;False;1;P != T2?;ST2_low_3;2;Same;low;70;112;112;f;v;1;j;v;1406.9517999996606
90k2a#v;29;False;1;P != T2?;ST1_low_3;1;Same;low;70;112;70;f;v;0;j;v;3195.3891000011936
90k2a#v;30;False;1;P != T2?;DT1_low_5;1;Different;low;96;154;82;f;v;1;f;v;1967.689099999916
90k2a#v;31;False;1;P != T1?;ST2_high_6;2;Same;high;132;96;96;f;v;1;f;n;2831.6852999996627
90k2a#v;32;False;1;P != T2?;ST1_high_6;1;Same;high;132;96;132;f;v;0;j;n;8691.558200000145
90k2a#v;33;False;1;P != T1?;ST2_low_6;2;Same;low;154;96;96;f;v;1;f;v;1494.9935000004189
90k2a#v;34;False;1;P != T2?;ST1_high_4;1;Same;high;96;70;96;f;v;1;f;n;3125.1941000009538
90k2a#v;35;False;1;P != T1?;ST2_high_6;2;Same;high;132;96;96;f;v;1;f;v;1490.6984999997803
90k2a#v;36;False;1;P != T2?;ST1_low_2;1;Same;low;132;82;132;f;v;1;f;v;1282.2657999986404
90k2a#v;37;False;1;P != T1?;DT1_high_5;1;Different;high;96;132;82;f;v;0;j;n;5779.411499999696
90k2a#v;38;False;1;P != T1?;ST2_low_4;2;Same;low;112;70;70;f;v;1;f;n;4586.6480999993655
90k2a#v;39;False;1;P != T1?;ST1_low_1;1;Same;low;82;132;82;f;v;1;j;n;1803.7761999985378
90k2a#v;40;False;1;P != T2?;ST1_low_3;1;Same;low;70;112;70;f;v;0;j;b;1501.0107999987667
90k2a#v;41;False;1;P != T1?;ST2_high_1;2;Same;high;82;112;112;f;v;0;j;v;1270.5397000008816
90k2a#v;42;False;1;P != T2?;ST2_high_6;2;Same;high;132;96;96;f;v;1;j;v;1837.793300001067
90k2a#v;43;False;1;P != T1?;ST1_low_3;1;Same;low;70;112;70;f;v;0;f;v;1882.684899999731
90k2a#v;44;False;1;P != T1?;DT2_high_4;2;Different;high;96;70;60;f;v;0;j;v;1552.8448999993998
90k2a#v;45;False;1;P != T1?;ST2_high_1;2;Same;high;82;112;112;f;v;0;j;v;1884.9058000014338
90k2a#v;46;False;1;P != T1?;ST1_high_5;1;Same;high;96;132;96;f;v;1;j;v;1074.2252999989432
90k2a#v;47;False;1;P != T1?;ST1_high_3;1;Same;high;70;96;70;f;v;1;j;v;1581.5698000005796
90k2a#v;48;False;1;P != T1?;ST1_high_1;1;Same;high;82;112;82;f;v;1;j;b;1688.135100001091
90k2a#v;49;False;1;P != T2?;ST1_low_3;1;Same;low;70;112;70;f;v;0;j;v;3093.5267000004387
90k2a#v;50;False;1;P != T1?;ST2_low_2;2;Same;low;132;82;82;f;v;1;f;v;2807.8256999997393
90k2a#v;51;False;1;P != T1?;ST2_high_5;2;Same;high;96;132;132;f;v;1;f;v;1908.0264000003808
90k2a#v;52;False;1;P != T1?;ST2_low_1;2;Same;low;82;132;132;f;v;1;f;b;1521.4425000012852
90k2a#v;53;False;1;P != T1?;ST1_low_4;1;Same;low;112;70;112;f;v;1;j;n;5799.572099998841
90k2a#v;54;False;1;P != T2?;DT2_high_2;2;Different;high;112;82;70;f;v;1;f;b;1462.112100000013
90k2a#v;55;False;1;P != T2?;ST2_low_6;2;Same;low;154;96;96;f;v;1;j;b;3054.460100000142
90k2a#v;56;False;1;P != T2?;ST1_high_3;1;Same;high;70;96;70;f;v;0;j;b;1525.7399999991321
90k2a#v;57;False;1;P != T2?;STb_2;0;Same;None;70;70;70;f;v;1;j;v;1274.0522000003693
90k2a#v;58;False;1;P != T2?;ST1_low_2;1;Same;low;132;82;132;f;v;1;f;v;2278.750299999956
90k2a#v;59;False;1;P != T2?;ST2_low_1;2;Same;low;82;132;132;f;v;1;j;v;1425.3334999993967
90k2a#v;60;False;1;P != T1?;ST1_high_3;1;Same;high;70;96;70;f;v;0;f;n;2430.41120000089
90k2a#v;61;False;1;P != T2?;ST2_high_4;2;Same;high;96;70;70;f;v;1;j;b;1528.3545999991475
90k2a#v;62;False;1;P != T1?;ST1_high_6;1;Same;high;132;96;132;f;v;1;j;b;3547.847700001512
90k2a#v;63;False;1;P != T2?;ST1_high_5;1;Same;high;96;132;96;f;v;1;f;b;1977.305799999158
90k2a#v;64;False;1;P != T2?;ST2_low_6;2;Same;low;154;96;96;f;v;1;j;b;2381.127299999207
90k2a#v;65;False;1;P != T2?;ST1_low_4;1;Same;low;112;70;112;f;v;0;j;b;1330.5958999990253
90k2a#v;66;False;1;P != T2?;ST2_high_3;2;Same;high;70;96;96;f;v;1;j;b;1137.253499999133
90k2a#v;67;False;1;P != T2?;ST1_high_1;1;Same;high;82;112;82;f;v;1;f;b;1914.6340999996028
90k2a#v;68;False;1;P != T2?;STb_7;0;Same;None;154;154;154;f;v;1;j;v;2819.0674999987095
90k2a#v;69;False;1;P != T1?;DT2_high_5;2;Different;high;96;132;154;f;v;1;f;v;2952.989000001253
90k2a#v;70;False;1;P != T2?;ST2_low_3;2;Same;low;70;112;112;f;v;1;j;b;1752.7995000000374
90k2a#v;71;False;1;P != T1?;ST1_low_4;1;Same;low;112;70;112;f;v;1;j;n;1574.4097999995574
90k2a#v;72;False;1;P != T2?;ST1_low_1;1;Same;low;82;132;82;f;v;1;f;b;2235.075399999914
90k2a#v;73;False;1;P != T1?;ST2_high_3;2;Same;high;70;96;96;f;v;0;j;b;3359.2298999992636
90k2a#v;74;False;1;P != T1?;ST2_low_2;2;Same;low;132;82;82;f;v;1;f;n;2070.9366999999475
90k2a#v;75;False;1;P != T1?;ST1_high_5;1;Same;high;96;132;96;f;v;0;f;n;4319.1118000013375
90k2a#v;76;False;1;P != T2?;ST1_low_4;1;Same;low;112;70;112;f;v;0;j;b;1815.1409999991301
90k2a#v;77;False;1;P != T2?;ST2_low_5;2;Same;low;96;154;154;f;v;1;j;v;1553.8651999995636
90k2a#v;78;False;1;P != T1?;ST2_low_6;2;Same;low;154;96;96;f;v;1;f;v;2077.2239999987505
90k2a#v;79;False;1;P != T2?;ST2_high_1;2;Same;high;82;112;112;f;v;1;j;v;3138.33220000015
90k2a#v;80;False;1;P != T2?;ST2_high_1;2;Same;high;82;112;112;f;v;1;j;b;1800.9748000004038
90k2a#v;81;False;1;P != T2?;DT2_low_1;2;Different;low;82;132;154;f;v;0;j;b;1594.6441000014602
90k2a#v;82;False;1;P != T2?;ST2_high_2;2;Same;high;112;82;82;f;v;1;j;v;1385.6353999999556
90k2a#v;83;False;1;P != T1?;ST1_high_3;1;Same;high;70;96;70;f;v;1;j;b;1292.9516999993211
90k2a#v;84;False;1;P != T2?;ST2_low_3;2;Same;low;70;112;112;f;v;0;f;n;1957.1427999999287
90k2a#v;85;False;1;P != T1?;ST2_low_6;2;Same;low;154;96;96;f;v;1;f;v;1480.6047999991279
90k2a#v;86;False;1;P != T1?;ST1_low_6;1;Same;low;154;96;154;f;v;1;j;v;1789.9455000006128
90k2a#v;87;False;1;P != T1?;ST1_low_6;1;Same;low;154;96;154;f;v;1;j;b;2184.32329999996
90k2a#v;88;False;1;P != T2?;ST1_low_4;1;Same;low;112;70;112;f;v;0;j;b;1015.3941999997187
90k2a#v;89;False;1;P != T2?;ST1_low_6;1;Same;low;154;96;154;f;v;1;f;v;1257.5904000004812
90k2a#v;90;False;1;P != T2?;ST2_low_2;2;Same;low;132;82;82;f;v;1;j;n;2232.3885999994673
90k2a#v;91;False;1;P != T2?;ST1_high_2;1;Same;high;112;82;112;f;v;0;j;b;1545.596599999044
90k2a#v;92;False;1;P != T2?;ST2_high_2;2;Same;high;112;82;82;f;v;1;j;b;1636.7445000014413
90k2a#v;93;False;1;P != T2?;ST1_low_1;1;Same;low;82;132;82;f;v;1;f;v;1773.970800000825
90k2a#v;94;False;1;P != T1?;ST1_low_1;1;Same;low;82;132;82;f;v;1;j;b;2265.426899999511
90k2a#v;95;False;1;P != T1?;ST2_low_5;2;Same;low;96;154;154;f;v;1;f;v;1203.545700000177
90k2a#v;96;False;1;P != T2?;ST1_high_1;1;Same;high;82;112;82;f;v;1;f;n;3027.5820000006206
90k2a#v;97;False;1;P != T2?;ST1_low_5;1;Same;low;96;154;96;f;v;1;f;v;1362.7501999999367
90k2a#v;98;False;1;P != T1?;STb_8;0;Same;None;180;180;180;f;v;1;j;v;2875.359900001058
90k2a#v;99;False;1;P != T2?;ST1_high_6;1;Same;high;132;96;132;f;v;1;f;v;1138.1051999996998
90k2a#v;100;False;1;P != T2?;DT2_low_5;2;Different;low;96;154;180;f;v;0;j;v;1537.9661999995733
90k2a#v;101;False;1;P != T2?;DT2_high_6;2;Different;high;132;96;82;f;v;0;j;n;3482.933300001605
90k2a#v;102;False;1;P != T1?;ST1_high_6;1;Same;high;132;96;132;f;v;1;j;n;1927.5692000010167
90k2a#v;103;False;1;P != T1?;ST1_low_1;1;Same;low;82;132;82;f;v;1;j;n;1941.2759999995615
90k2a#v;104;False;1;P != T2?;ST2_high_5;2;Same;high;96;132;132;f;v;1;j;b;1416.3363000006939
90k2a#v;105;False;1;P != T1?;ST1_low_2;1;Same;low;132;82;132;f;v;1;j;b;1521.9160999986343
90k2a#v;106;False;1;P != T1?;ST2_high_2;2;Same;high;112;82;82;f;v;0;j;b;1641.7751999997563
90k2a#v;107;False;1;P != T1?;ST1_high_4;1;Same;high;96;70;96;f;v;1;j;b;922.123799999099
90k2a#v;108;False;1;P != T2?;ST2_low_1;2;Same;low;82;132;132;f;v;1;j;v;2182.18700000034
90k2a#v;109;False;1;P != T2?;ST2_low_4;2;Same;low;112;70;70;f;v;1;j;b;1491.7086999994353
90k2a#v;110;False;1;P != T2?;ST2_high_3;2;Same;high;70;96;96;f;v;1;j;v;1197.0380000002478
90k2a#v;111;False;1;P != T2?;ST2_low_6;2;Same;low;154;96;96;f;v;1;j;b;1245.2016000006552
90k2a#v;112;False;1;P != T1?;ST1_low_5;1;Same;low;96;154;96;f;v;1;j;b;1526.860599999054
90k2a#v;113;False;1;P != T2?;ST2_low_5;2;Same;low;96;154;154;f;v;1;j;b;1049.626599999101
90k2a#v;114;False;1;P != T2?;STb_4;0;Same;None;96;96;96;f;v;1;j;v;1250.338300000294
90k2a#v;115;False;1;P != T2?;ST1_low_6;1;Same;low;154;96;154;f;v;1;f;n;2117.97050000132
90k2a#v;116;False;1;P != T1?;ST1_low_4;1;Same;low;112;70;112;f;v;0;f;n;3419.2173999999795
90k2a#v;117;False;1;P != T1?;ST2_high_3;2;Same;high;70;96;96;f;v;0;j;v;1139.7242000002734
90k2a#v;118;False;1;P != T1?;ST2_high_5;2;Same;high;96;132;132;f;v;1;f;v;1504.8117000005732
90k2a#v;119;False;1;P != T1?;ST1_high_5;1;Same;high;96;132;96;f;v;1;j;v;3501.097899999877
90k2a#v;120;False;1;P != T1?;ST2_low_1;2;Same;low;82;132;132;f;v;1;f;v;3275.9668000016973
90k2a#v;121;False;1;P != T1?;ST1_high_1;1;Same;high;82;112;82;f;v;1;j;b;1543.6543999985588
90k2a#v;122;False;1;P != T2?;ST1_high_5;1;Same;high;96;132;96;f;v;0;j;n;1406.56669999953
90k2a#v;123;False;1;P != T2?;STb_5;0;Same;None;112;112;112;f;v;1;j;b;1170.1407000000472
90k2a#v;124;False;1;P != T2?;ST1_high_6;1;Same;high;132;96;132;f;v;0;j;b;2031.673100000262
90k2a#v;125;False;1;P != T1?;STb_2;0;Same;None;70;70;70;f;v;1;j;b;1037.5235000010434
90k2a#v;126;False;1;P != T1?;ST1_high_2;1;Same;high;112;82;112;f;v;1;j;b;1689.8608000010427
90k2a#v;127;False;1;P != T2?;ST1_high_5;1;Same;high;96;132;96;f;v;1;f;n;2729.7739000005095
90k2a#v;128;False;1;P != T1?;ST2_high_4;2;Same;high;96;70;70;f;v;0;j;b;1374.6458000005077
90k2a#v;129;False;1;P != T2?;ST1_high_3;1;Same;high;70;96;70;f;v;0;j;b;1099.070700000084
90k2a#v;130;False;1;P != T2?;ST1_high_1;1;Same;high;82;112;82;f;v;0;j;b;1915.2831000010337
90k2a#v;131;False;1;P != T1?;DT2_low_6;2;Different;low;154;96;82;f;v;1;f;n;1330.3343000006862
90k2a#v;132;False;1;P != T1?;ST2_low_4;2;Same;low;112;70;70;f;v;1;f;n;2652.0084000003408
90k2a#v;133;False;1;P != T1?;STb_6;0;Same;None;132;132;132;f;v;1;j;v;1150.46540000003
90k2a#v;134;False;1;P != T1?;STb_7;0;Same;None;154;154;154;f;v;1;j;v;2317.0200000004115
90k2a#v;135;False;1;P != T1?;ST2_low_2;2;Same;low;132;82;82;f;v;1;f;n;2485.447099999874
90k2a#v;136;False;1;P != T1?;ST2_low_4;2;Same;low;112;70;70;f;v;0;j;n;2488.8496000003215
90k2a#v;137;False;1;P != T1?;STb_1;0;Same;None;60;60;60;f;v;1;j;b;1218.0903000007675
90k2a#v;138;False;1;P != T2?;ST1_high_3;1;Same;high;70;96;70;f;v;0;j;b;1213.5626999988745
90k2a#v;139;False;1;P != T1?;ST2_high_2;2;Same;high;112;82;82;f;v;0;j;b;973.193399999218
90k2a#v;140;False;1;P != T1?;ST2_low_3;2;Same;low;70;112;112;f;v;0;j;b;970.0843000009627
90k2a#v;141;False;1;P != T1?;ST2_high_5;2;Same;high;96;132;132;f;v;1;f;n;1667.2096000002057
90k2a#v;142;False;1;P != T2?;ST2_high_5;2;Same;high;96;132;132;f;v;1;j;b;982.920100001138
90k2a#v;143;False;1;P != T2?;ST1_high_2;1;Same;high;112;82;112;f;v;0;j;b;1359.5033000001422
90k2a#v;144;False;1;P != T2?;ST1_low_2;1;Same;low;132;82;132;f;v;0;j;n;3111.086700000669
90k2a#v;145;False;1;P != T2?;ST2_low_2;2;Same;low;132;82;82;f;v;1;j;b;3446.0847999998805
90k2a#v;146;False;1;P != T2?;STb_3;0;Same;None;82;82;82;f;v;1;j;b;1555.4714999998396
90k2a#v;147;False;1;P != T2?;ST1_low_6;1;Same;low;154;96;154;f;v;1;f;v;1711.4206000005652
90k2a#v;148;False;1;P != T1?;ST1_low_2;1;Same;low;132;82;132;f;v;1;j;n;1836.2570999997843
90k2a#v;149;False;1;P != T1?;ST1_high_4;1;Same;high;96;70;96;f;v;1;j;b;2678.836000000956
90k2a#v;150;False;1;P != T2?;ST1_low_1;1;Same;low;82;132;82;f;v;1;f;v;2383.1178000000364
90k2a#v;151;False;1;P != T2?;ST1_high_2;1;Same;high;112;82;112;f;v;1;f;n;1484.9631000015506
90k2a#v;152;False;1;P != T2?;ST1_low_5;1;Same;low;96;154;96;f;v;1;f;b;1190.7050999998319
90k2a#v;153;False;1;P != T1?;ST2_high_4;2;Same;high;96;70;70;f;v;0;j;b;2604.5081000011123
90k2a#v;154;False;1;P != T1?;ST1_high_4;1;Same;high;96;70;96;f;v;1;j;b;1205.4974000002403
90k2a#v;155;False;1;P != T2?;ST2_low_5;2;Same;low;96;154;154;f;v;1;j;v;1773.9662999993016
90k2a#v;156;False;1;P != T2?;STb_8;0;Same;None;180;180;180;f;v;1;j;v;1102.0841999998083
90k2a#v;157;False;1;P != T1?;ST2_low_1;2;Same;low;82;132;132;f;v;1;f;n;3296.2782999984483
90k2a#v;158;False;1;P != T1?;DT1_low_1;1;Different;low;82;132;70;f;v;0;j;n;1542.984300000171
90k2a#v;159;False;1;P != T1?;STb_3;0;Same;None;82;82;82;f;v;1;j;b;1891.5889999989304
90k2a#v;160;False;1;P != T1?;ST2_high_1;2;Same;high;82;112;112;f;v;1;f;n;2698.0060000005324
90k2a#v;161;False;1;P != T1?;ST2_high_6;2;Same;high;132;96;96;f;v;1;f;n;1649.3472999991354
90k2a#v;162;False;1;P != T2?;ST1_low_5;1;Same;low;96;154;96;f;v;0;j;n;2997.6812999993854
90k2a#v;163;False;1;P != T2?;ST2_high_4;2;Same;high;96;70;70;f;v;0;f;n;1451.7206000000442
90k2a#v;164;False;1;P != T1?;ST1_high_1;1;Same;high;82;112;82;f;v;0;f;n;3219.0710000013496
90k2a#v;165;False;1;P != T2?;ST2_high_6;2;Same;high;132;96;96;f;v;1;j;v;1855.9065999997983
90k2a#v;166;False;1;P != T1?;ST1_low_3;1;Same;low;70;112;70;f;v;1;j;b;1438.0574999995588
90k2a#v;167;False;1;P != T2?;DT1_high_3;1;Different;high;70;96;60;f;v;1;f;n;2340.9165000011853
90k2a#v;168;False;1;P != T1?;DT2_low_5;2;Different;low;96;154;180;f;v;1;f;b;1581.3811000007263
90k2a#v;169;False;1;P != T1?;STb_4;0;Same;None;96;96;96;f;v;0;f;n;2622.2288999997545
90k2a#v;170;False;1;P != T2?;ST2_high_1;2;Same;high;82;112;112;f;v;1;j;b;1730.430499999784
90k2a#v;171;False;1;P != T2?;DT2_high_4;2;Different;high;96;70;60;f;v;1;f;v;1898.1495999996696
90k2a#v;172;False;1;P != T2?;ST1_high_4;1;Same;high;96;70;96;f;v;0;j;b;1608.5022000006575
90k2a#v;173;False;1;P != T2?;DT1_high_6;1;Different;high;132;96;154;f;v;1;f;v;1664.8314999983995
90k2a#v;174;False;1;P != T1?;ST1_high_2;1;Same;high;112;82;112;f;v;0;f;v;3091.286900000341
90k2a#v;175;False;1;P != T2?;ST2_low_4;2;Same;low;112;70;70;f;v;1;j;v;1459.313800000018
90k2a#v;176;False;1;P != T1?;ST2_low_5;2;Same;low;96;154;154;f;v;0;j;v;866.2549000000581
90k2a#v;1;True;2;P = T2?;ST1_low_1;1;Same;low;82;132;82;f;v;0;f;b;2977.8585999993084
90k2a#v;2;True;2;P = T1?;DT2_high_1;2;Different;high;82;112;132;f;v;0;f;v;1484.7152000002097
90k2a#v;3;True;2;P = T1?;DT1_low_1;1;Different;low;82;132;70;f;v;0;f;b;1751.5822000004846
90k2a#v;4;True;2;P = T1?;ST1_low_6;1;Same;low;154;96;154;f;v;1;f;b;1259.958499998902
90k2a#v;5;True;2;P = T2?;STb_5;0;Same;None;112;112;112;f;v;1;f;b;1449.6191999987786
90k2a#v;6;True;2;P = T1?;ST1_low_6;1;Same;low;154;96;154;f;v;1;f;b;1265.4641000008269
90k2a#v;7;True;2;P = T2?;ST1_high_5;1;Same;high;96;132;96;f;v;1;j;n;2674.0463000005548
90k2a#v;8;True;2;P = T2?;DT1_high_4;1;Different;high;96;70;112;f;v;1;j;n;1743.8194000005751
90k2a#v;9;True;2;P = T1?;STb_3;0;Same;None;82;82;82;f;v;1;f;b;1351.6693000001396
90k2a#v;10;True;2;P = T2?;DT2_high_6;2;Different;high;132;96;82;f;v;0;f;b;1248.9414000010584
90k2a#v;11;True;2;P = T1?;STb_5;0;Same;None;112;112;112;f;v;0;j;n;1387.5289999996312
90k2a#v;12;True;2;P = T2?;ST2_low_2;2;Same;low;132;82;82;f;v;1;f;b;2285.6202999992092
90k2a#v;13;True;2;P = T1?;ST2_high_6;2;Same;high;132;96;96;f;v;0;f;b;1171.5409999997064
90k2a#v;14;True;2;P = T2?;ST2_low_4;2;Same;low;112;70;70;f;v;0;j;n;1847.8625000007014
90k2a#v;15;True;2;P = T1?;ST2_low_4;2;Same;low;112;70;70;f;v;0;f;b;1087.642999998934
90k2a#v;16;True;2;P = T2?;STb_3;0;Same;None;82;82;82;f;v;1;f;n;1534.5620999996754
90k2a#v;1;False;2;P = T2?;ST2_low_2;2;Same;low;132;82;82;f;v;1;f;b;2267.0679000002565
90k2a#v;2;False;2;P = T2?;DT1_high_5;1;Different;high;96;132;82;f;v;1;j;n;3534.183800000392
90k2a#v;3;False;2;P = T1?;ST1_high_2;1;Same;high;112;82;112;f;v;1;f;b;1438.884600000165
90k2a#v;4;False;2;P = T2?;ST2_low_1;2;Same;low;82;132;132;f;v;1;f;b;1099.1368999984843
90k2a#v;5;False;2;P = T2?;ST2_high_6;2;Same;high;132;96;96;f;v;1;f;b;1075.2057999998215
90k2a#v;6;False;2;P = T2?;ST2_low_6;2;Same;low;154;96;96;f;v;1;f;b;1044.6019999999407
90k2a#v;7;False;2;P = T1?;ST1_low_5;1;Same;low;96;154;96;f;v;1;f;b;1266.5286999999807
90k2a#v;8;False;2;P = T2?;ST1_high_5;1;Same;high;96;132;96;f;v;0;f;n;1356.0420999983762
90k2a#v;9;False;2;P = T1?;ST1_high_5;1;Same;high;96;132;96;f;v;0;j;n;1638.4646999995311
90k2a#v;10;False;2;P = T1?;ST2_high_4;2;Same;high;96;70;70;f;v;0;f;b;1150.3481999989162
90k2a#v;11;False;2;P = T2?;STb_2;0;Same;None;70;70;70;f;v;1;f;b;1756.1626000006072
90k2a#v;12;False;2;P = T1?;STb_4;0;Same;None;96;96;96;f;v;1;f;b;1418.065599998954
90k2a#v;13;False;2;P = T1?;ST1_high_6;1;Same;high;132;96;132;f;v;0;j;n;1177.8612000016437
90k2a#v;14;False;2;P = T1?;ST2_high_5;2;Same;high;96;132;132;f;v;1;j;n;1091.6600999989896
90k2a#v;15;False;2;P = T1?;ST2_low_1;2;Same;low;82;132;132;f;v;1;j;n;1204.6663999990415
90k2a#v;16;False;2;P = T1?;ST2_high_1;2;Same;high;82;112;112;f;v;0;f;n;1085.9677999997075
90k2a#v;17;False;2;P = T2?;ST1_low_3;1;Same;low;70;112;70;f;v;0;f;b;1198.124499998812
90k2a#v;18;False;2;P = T1?;ST2_high_2;2;Same;high;112;82;82;f;v;0;f;n;4073.6977999986266
90k2a#v;19;False;2;P = T2?;ST2_high_5;2;Same;high;96;132;132;f;v;1;f;b;1134.7982000006596
90k2a#v;20;False;2;P = T2?;STb_4;0;Same;None;96;96;96;f;v;0;j;n;1119.1084000001865
90k2a#v;21;False;2;P = T2?;ST1_low_2;1;Same;low;132;82;132;f;v;1;j;b;2200.1413999987562
90k2a#v;22;False;2;P = T1?;ST1_low_2;1;Same;low;132;82;132;f;v;1;f;b;1066.0870000010618
90k2a#v;23;False;2;P = T1?;ST1_high_3;1;Same;high;70;96;70;f;v;0;j;n;1119.1498999996838
90k2a#v;24;False;2;P = T2?;ST1_low_2;1;Same;low;132;82;132;f;v;1;j;b;1432.1107999985543
90k2a#v;25;False;2;P = T1?;ST1_low_2;1;Same;low;132;82;132;f;v;1;f;v;998.5331999996561
90k2a#v;26;False;2;P = T1?;ST2_low_3;2;Same;low;70;112;112;f;v;1;j;n;1699.0752999990946
90k2a#v;27;False;2;P = T1?;ST1_high_3;1;Same;high;70;96;70;f;v;0;j;n;1771.1170999991737
90k2a#v;28;False;2;P = T1?;ST1_low_4;1;Same;low;112;70;112;f;v;1;f;b;1186.8433999989065
90k2a#v;29;False;2;P = T1?;ST1_high_6;1;Same;high;132;96;132;f;v;1;f;b;957.6266999993095
90k2a#v;30;False;2;P = T1?;ST1_high_1;1;Same;high;82;112;82;f;v;1;f;b;850.9936999998899
90k2a#v;31;False;2;P = T1?;ST2_high_6;2;Same;high;132;96;96;f;v;0;f;b;382.3437000010017
90k2a#v;32;False;2;P = T2?;STb_8;0;Same;None;180;180;180;f;v;0;j;b;1391.6245000000345
90k2a#v;33;False;2;P = T1?;DT1_high_1;1;Different;high;82;112;70;f;v;1;j;n;1825.0319000017043
90k2a#v;34;False;2;P = T1?;ST1_low_6;1;Same;low;154;96;154;f;v;1;f;n;1458.7261999986367
90k2a#v;35;False;2;P = T1?;ST1_high_5;1;Same;high;96;132;96;f;v;1;f;b;1045.98470000019
90k2a#v;36;False;2;P = T1?;DT1_high_4;1;Different;high;96;70;112;f;v;0;f;b;811.0364000003756
90k2a#v;37;False;2;P = T1?;DT2_high_6;2;Different;high;132;96;82;f;v;0;f;n;2276.4053999999305
90k2a#v;38;False;2;P = T1?;ST2_low_5;2;Same;low;96;154;154;f;v;1;j;n;2332.12260000073
90k2a#v;39;False;2;P = T2?;ST1_high_1;1;Same;high;82;112;82;f;v;1;j;b;2622.025199998461
90k2a#v;40;False;2;P = T1?;ST1_high_2;1;Same;high;112;82;112;f;v;1;f;n;1929.3579000004684
90k2a#v;41;False;2;P = T2?;ST1_low_2;1;Same;low;132;82;132;f;v;1;j;v;2107.7541999984533
90k2a#v;42;False;2;P = T2?;ST1_high_6;1;Same;high;132;96;132;f;v;1;j;v;1107.6928000002226
90k2a#v;43;False;2;P = T1?;DT1_high_2;1;Different;high;112;82;132;f;v;0;f;n;1389.6504000003915
90k2a#v;44;False;2;P = T1?;STb_2;0;Same;None;70;70;70;f;v;1;f;v;875.085499999841
90k2a#v;45;False;2;P = T1?;STb_5;0;Same;None;112;112;112;f;v;0;j;b;2223.474399999759
90k2a#v;46;False;2;P = T2?;DT1_low_3;1;Different;low;70;112;60;f;v;1;j;b;1165.597200000775
90k2a#v;47;False;2;P = T2?;ST1_low_3;1;Same;low;70;112;70;f;v;0;f;b;1828.1299999998737
90k2a#v;48;False;2;P = T1?;ST2_high_3;2;Same;high;70;96;96;f;v;0;f;n;2503.41010000011
90k2a#v;49;False;2;P = T1?;ST1_low_1;1;Same;low;82;132;82;f;v;1;f;n;1177.9572000014014
90k2a#v;50;False;2;P = T2?;ST1_high_3;1;Same;high;70;96;70;f;v;0;f;b;1518.816699999661
90k2a#v;51;False;2;P = T1?;ST1_low_6;1;Same;low;154;96;154;f;v;1;f;v;997.4650000003749
90k2a#v;52;False;2;P = T1?;ST1_low_1;1;Same;low;82;132;82;f;v;0;j;n;4874.89049999931
90k2a#v;53;False;2;P = T2?;DT1_low_1;1;Different;low;82;132;70;f;v;1;j;v;1352.315300000555
90k2a#v;54;False;2;P = T1?;ST2_high_4;2;Same;high;96;70;70;f;v;0;f;n;1254.3077999998786
90k2a#v;55;False;2;P = T2?;ST2_low_5;2;Same;low;96;154;154;f;v;1;f;v;1911.673200000223
90k2a#v;56;False;2;P = T1?;ST1_low_5;1;Same;low;96;154;96;f;v;1;f;b;1342.262899999696
90k2a#v;57;False;2;P = T1?;ST1_low_6;1;Same;low;154;96;154;f;v;1;f;v;1633.8438999991922
90k2a#v;58;False;2;P = T2?;ST2_low_1;2;Same;low;82;132;132;f;v;1;f;v;1326.2340000001132
90k2a#v;59;False;2;P = T2?;ST2_high_1;2;Same;high;82;112;112;f;v;1;f;b;3091.798600000402
90k2a#v;60;False;2;P = T1?;ST2_high_6;2;Same;high;132;96;96;f;v;0;f;b;951.2869999998657
90k2a#v;61;False;2;P = T1?;ST2_high_5;2;Same;high;96;132;132;f;v;0;f;v;473.6740999996982
90k2a#v;62;False;2;P = T1?;ST1_low_4;1;Same;low;112;70;112;f;v;1;f;b;1018.0719999989378
90k2a#v;63;False;2;P = T2?;ST2_high_2;2;Same;high;112;82;82;f;v;1;f;b;883.07739999982
90k2a#v;64;False;2;P = T2?;STb_6;0;Same;None;132;132;132;f;v;1;f;v;1024.8754000003828
90k2a#v;65;False;2;P = T2?;ST1_low_5;1;Same;low;96;154;96;f;v;0;f;n;1672.8738999991037
90k2a#v;66;False;2;P = T2?;ST1_low_6;1;Same;low;154;96;154;f;v;1;j;n;2061.8668000006437
90k2a#v;67;False;2;P = T2?;STb_7;0;Same;None;154;154;154;f;v;1;f;v;397.92860000125074
90k2a#v;68;False;2;P = T1?;DT1_low_2;1;Different;low;132;82;154;f;v;0;f;b;2114.2179999988
90k2a#v;69;False;2;P = T2?;DT2_low_1;2;Different;low;82;132;154;f;v;0;f;v;1031.652400000894
90k2a#v;70;False;2;P = T2?;ST2_high_3;2;Same;high;70;96;96;f;v;1;f;v;932.7828000004956
90k2a#v;71;False;2;P = T1?;ST1_low_3;1;Same;low;70;112;70;f;v;1;f;v;848.1526999985363
90k2a#v;72;False;2;P = T2?;ST2_high_4;2;Same;high;96;70;70;f;v;1;f;v;1033.8223999988259
90k2a#v;73;False;2;P = T2?;ST1_low_6;1;Same;low;154;96;154;f;v;1;j;b;1907.9970999991929
90k2a#v;74;False;2;P = T1?;ST2_low_5;2;Same;low;96;154;154;f;v;1;j;b;1744.565099999818
90k2a#v;75;False;2;P = T2?;ST2_low_2;2;Same;low;132;82;82;f;v;1;f;v;1575.7627000002685
90k2a#v;76;False;2;P = T1?;STb_1;0;Same;None;60;60;60;f;v;1;f;v;566.076900000553
90k2a#v;77;False;2;P = T1?;ST2_high_3;2;Same;high;70;96;96;f;v;0;f;v;409.4511999992392
90k2a#v;78;False;2;P = T2?;STb_3;0;Same;None;82;82;82;f;v;1;f;v;1118.298200000936
90k2a#v;79;False;2;P = T1?;ST2_low_4;2;Same;low;112;70;70;f;v;0;f;v;383.8894000000437
90k2a#v;80;False;2;P = T2?;ST2_high_2;2;Same;high;112;82;82;f;v;1;f;v;789.894199999253
90k2a#v;81;False;2;P = T1?;ST2_high_3;2;Same;high;70;96;96;f;v;0;f;v;723.3759999999165
90k2a#v;82;False;2;P = T1?;ST2_high_4;2;Same;high;96;70;70;f;v;1;j;n;1427.9629000011482
90k2a#v;83;False;2;P = T1?;DT2_high_1;2;Different;high;82;112;132;f;v;1;j;b;1511.9632000005367
90k2a#v;84;False;2;P = T2?;ST2_low_3;2;Same;low;70;112;112;f;v;1;f;v;962.6334000004135
90k2a#v;85;False;2;P = T1?;ST2_high_6;2;Same;high;132;96;96;f;v;0;f;v;328.60860000073444
90k2a#v;86;False;2;P = T2?;STb_5;0;Same;None;112;112;112;f;v;1;f;v;468.45089999987977
90k2a#v;87;False;2;P = T1?;ST2_low_1;2;Same;low;82;132;132;f;v;0;f;v;542.3475999996299
90k2a#v;88;False;2;P = T2?;ST1_high_3;1;Same;high;70;96;70;f;v;0;f;v;375.6087999990996
90k2a#v;89;False;2;P = T2?;ST2_high_6;2;Same;high;132;96;96;f;v;1;f;v;758.9055999997072
90k2a#v;90;False;2;P = T1?;ST2_low_3;2;Same;low;70;112;112;f;v;1;j;b;1405.4517000004125
90k2a#v;91;False;2;P = T2?;DT2_high_2;2;Different;high;112;82;70;f;v;1;j;b;1147.0687000000908
90k2a#v;92;False;2;P = T1?;ST2_low_6;2;Same;low;154;96;96;f;v;1;j;b;1106.6194999984873
90k2a#v;93;False;2;P = T2?;DT1_high_4;1;Different;high;96;70;112;f;v;0;f;v;1110.4969000007259
90k2a#v;94;False;2;P = T2?;ST1_low_5;1;Same;low;96;154;96;f;v;1;j;v;2039.4231999998738
90k2a#v;95;False;2;P = T2?;ST2_high_2;2;Same;high;112;82;82;f;v;1;f;v;363.52009999973234
90k2a#v;96;False;2;P = T1?;STb_3;0;Same;None;82;82;82;f;v;1;f;b;1670.4848000008496
90k2a#v;97;False;2;P = T1?;ST1_high_1;1;Same;high;82;112;82;f;v;1;f;v;371.2806000003184
90k2a#v;98;False;2;P = T1?;ST2_high_5;2;Same;high;96;132;132;f;v;0;f;n;1274.6161000013672
90k2a#v;99;False;2;P = T2?;ST2_high_5;2;Same;high;96;132;132;f;v;1;f;v;816.7138999997405
90k2a#v;100;False;2;P = T1?;ST1_high_4;1;Same;high;96;70;96;f;v;0;j;n;4516.172499999811
90k2a#v;101;False;2;P = T2?;ST1_high_2;1;Same;high;112;82;112;f;v;0;f;v;336.23030000126164
90k2a#v;102;False;2;P = T2?;ST1_low_6;1;Same;low;154;96;154;f;v;1;j;b;1396.1838999985048
90k2a#v;103;False;2;P = T2?;ST1_high_4;1;Same;high;96;70;96;f;v;0;f;v;1023.035100000925
90k2a#v;104;False;2;P = T2?;ST2_low_4;2;Same;low;112;70;70;f;v;1;f;v;839.3861999993533
90k2a#v;105;False;2;P = T2?;ST1_low_4;1;Same;low;112;70;112;f;v;0;f;v;545.7244999997783
90k2a#v;106;False;2;P = T2?;ST2_high_3;2;Same;high;70;96;96;f;v;1;f;v;869.1198999986227
90k2a#v;107;False;2;P = T2?;ST1_low_1;1;Same;low;82;132;82;f;v;1;j;b;1159.3402000016795
90k2a#v;108;False;2;P = T2?;ST2_low_4;2;Same;low;112;70;70;f;v;1;f;v;1180.0808000007237
90k2a#v;109;False;2;P = T2?;ST2_low_4;2;Same;low;112;70;70;f;v;0;j;n;1277.2055999994336
90k2a#v;110;False;2;P = T1?;ST2_high_2;2;Same;high;112;82;82;f;v;1;j;n;1149.1853999996238
90k2a#v;111;False;2;P = T1?;ST2_low_4;2;Same;low;112;70;70;f;v;0;f;n;1485.3055999992648
90k2a#v;112;False;2;P = T1?;ST1_high_4;1;Same;high;96;70;96;f;v;1;f;v;831.3015999992786
90k2a#v;113;False;2;P = T2?;ST1_low_4;1;Same;low;112;70;112;f;v;0;f;v;538.4869000008621
90k2a#v;114;False;2;P = T1?;STb_8;0;Same;None;180;180;180;f;v;1;f;v;364.65529999986757
90k2a#v;115;False;2;P = T1?;ST2_low_5;2;Same;low;96;154;154;f;v;0;f;v;361.7675000004965
90k2a#v;116;False;2;P = T1?;DT1_low_5;1;Different;low;96;154;82;f;v;1;j;n;1505.4624999993393
90k2a#v;117;False;2;P = T2?;ST1_low_1;1;Same;low;82;132;82;f;v;1;j;b;1862.9213000003801
90k2a#v;118;False;2;P = T1?;DT2_low_5;2;Different;low;96;154;180;f;v;1;j;b;1176.7319999999017
90k2a#v;119;False;2;P = T2?;ST1_high_2;1;Same;high;112;82;112;f;v;1;j;n;1199.741800000993
90k2a#v;120;False;2;P = T1?;ST1_low_4;1;Same;low;112;70;112;f;v;0;j;n;1083.9826999999786
90k2a#v;121;False;2;P = T1?;ST1_high_4;1;Same;high;96;70;96;f;v;1;f;b;1091.0688999993
90k2a#v;122;False;2;P = T2?;ST2_low_6;2;Same;low;154;96;96;f;v;1;f;v;1262.3671000001195
90k2a#v;123;False;2;P = T1?;ST1_low_3;1;Same;low;70;112;70;f;v;1;f;b;1210.9620999999606
90k2a#v;124;False;2;P = T2?;ST1_high_6;1;Same;high;132;96;132;f;v;0;f;b;1569.2954000005557
90k2a#v;125;False;2;P = T2?;ST2_low_6;2;Same;low;154;96;96;f;v;1;f;v;979.8093999997946
90k2a#v;126;False;2;P = T1?;STb_6;0;Same;None;132;132;132;f;v;1;f;v;416.49429999961285
90k2a#v;127;False;2;P = T2?;ST2_low_3;2;Same;low;70;112;112;f;v;1;f;v;365.5068999996729
90k2a#v;128;False;2;P = T1?;ST1_high_6;1;Same;high;132;96;132;f;v;1;f;v;821.7912000000069
90k2a#v;129;False;2;P = T2?;ST2_low_5;2;Same;low;96;154;154;f;v;1;f;n;2054.966900001091
90k2a#v;130;False;2;P = T2?;ST1_high_2;1;Same;high;112;82;112;f;v;1;j;n;1394.5097000014357
90k2a#v;131;False;2;P = T1?;ST2_low_1;2;Same;low;82;132;132;f;v;1;j;b;1423.0963999998494
90k2a#v;132;False;2;P = T2?;ST1_low_3;1;Same;low;70;112;70;f;v;1;j;b;1810.9058999998524
90k2a#v;133;False;2;P = T2?;DT1_low_6;1;Different;low;154;96;180;f;v;1;j;v;1133.3559000013338
90k2a#v;134;False;2;P = T2?;ST1_high_4;1;Same;high;96;70;96;f;v;0;f;v;384.3027999992046
90k2a#v;135;False;2;P = T1?;ST1_low_5;1;Same;low;96;154;96;f;v;0;j;b;1063.4834000011324
90k2a#v;136;False;2;P = T2?;DT2_low_5;2;Different;low;96;154;180;f;v;0;f;v;1226.0184999995545
90k2a#v;137;False;2;P = T2?;ST1_low_5;1;Same;low;96;154;96;f;v;1;j;n;1539.8755999995046
90k2a#v;138;False;2;P = T1?;ST2_low_2;2;Same;low;132;82;82;f;v;1;j;n;2749.342399998568
90k2a#v;139;False;2;P = T2?;ST2_high_4;2;Same;high;96;70;70;f;v;1;f;v;1027.7597999993304
90k2a#v;140;False;2;P = T2?;ST1_low_1;1;Same;low;82;132;82;f;v;1;j;b;1091.313099999752
90k2a#v;141;False;2;P = T1?;ST1_high_2;1;Same;high;112;82;112;f;v;1;f;b;1329.2335999994975
90k2a#v;142;False;2;P = T1?;STb_7;0;Same;None;154;154;154;f;v;1;f;v;330.1590999999462
90k2a#v;143;False;2;P = T1?;ST2_low_6;2;Same;low;154;96;96;f;v;0;f;v;778.7955000003421
90k2a#v;144;False;2;P = T2?;ST2_low_1;2;Same;low;82;132;132;f;v;1;f;v;926.4750000002095
90k2a#v;145;False;2;P = T2?;ST2_high_5;2;Same;high;96;132;132;f;v;1;f;v;735.6575999983761
90k2a#v;146;False;2;P = T1?;ST1_low_2;1;Same;low;132;82;132;f;v;1;f;v;811.3976999993611
90k2a#v;147;False;2;P = T1?;ST1_high_3;1;Same;high;70;96;70;f;v;1;f;v;1883.5098999988986
90k2a#v;148;False;2;P = T2?;ST2_low_3;2;Same;low;70;112;112;f;v;1;f;v;962.6330999999482
90k2a#v;149;False;2;P = T2?;ST2_high_1;2;Same;high;82;112;112;f;v;1;f;v;948.0417000013404
90k2a#v;150;False;2;P = T1?;ST2_low_6;2;Same;low;154;96;96;f;v;0;f;v;317.93800000014016
90k2a#v;151;False;2;P = T1?;ST2_low_2;2;Same;low;132;82;82;f;v;0;f;n;2117.940699999963
90k2a#v;152;False;2;P = T1?;ST2_high_1;2;Same;high;82;112;112;f;v;0;f;n;1016.2017000002379
90k2a#v;153;False;2;P = T2?;ST1_high_1;1;Same;high;82;112;82;f;v;0;f;v;376.8435000001773
90k2a#v;154;False;2;P = T2?;ST1_high_4;1;Same;high;96;70;96;f;v;0;f;v;375.35679999928107
90k2a#v;155;False;2;P = T1?;ST1_high_5;1;Same;high;96;132;96;f;v;1;f;v;388.7942000001203
90k2a#v;156;False;2;P = T2?;ST1_high_5;1;Same;high;96;132;96;f;v;0;f;v;2551.248099998702
90k2a#v;157;False;2;P = T1?;ST1_high_1;1;Same;high;82;112;82;f;v;1;f;v;942.5076999996236
90k2a#v;158;False;2;P = T2?;ST2_high_3;2;Same;high;70;96;96;f;v;1;f;v;381.02900000012596
90k2a#v;159;False;2;P = T2?;ST1_low_4;1;Same;low;112;70;112;f;v;0;f;v;376.84750000153144
90k2a#v;160;False;2;P = T2?;ST1_high_1;1;Same;high;82;112;82;f;v;0;f;v;1066.759600000296
90k2a#v;161;False;2;P = T1?;ST2_low_2;2;Same;low;132;82;82;f;v;1;j;b;1174.4108000002598
90k2a#v;162;False;2;P = T2?;ST1_high_6;1;Same;high;132;96;132;f;v;1;j;b;1182.0047999990493
90k2a#v;163;False;2;P = T2?;ST2_low_2;2;Same;low;132;82;82;f;v;1;f;v;843.2247999990068
90k2a#v;164;False;2;P = T2?;ST1_high_3;1;Same;high;70;96;70;f;v;0;f;v;318.5658999991574
90k2a#v;165;False;2;P = T1?;ST1_low_3;1;Same;low;70;112;70;f;v;1;f;v;356.84849999961443
90k2a#v;166;False;2;P = T2?;ST1_high_5;1;Same;high;96;132;96;f;v;1;j;b;1004.0576999999757
90k2a#v;167;False;2;P = T2?;STb_1;0;Same;None;60;60;60;f;v;1;f;v;968.6366999994789
90k2a#v;168;False;2;P = T2?;ST2_high_1;2;Same;high;82;112;112;f;v;1;f;v;849.0237000005436
90k2a#v;169;False;2;P = T1?;ST2_low_3;2;Same;low;70;112;112;f;v;0;f;v;332.1374000006472
90k2a#v;170;False;2;P = T2?;ST2_high_4;2;Same;high;96;70;70;f;v;1;f;v;1662.345099999584
90k2a#v;171;False;2;P = T2?;ST2_high_6;2;Same;high;132;96;96;f;v;1;f;v;865.1620000000548
90k2a#v;172;False;2;P = T1?;ST2_high_2;2;Same;high;112;82;82;f;v;1;j;n;1550.2352999992581
90k2a#v;173;False;2;P = T1?;ST1_low_1;1;Same;low;82;132;82;f;v;1;f;v;864.6891999997024
90k2a#v;174;False;2;P = T1?;ST2_low_4;2;Same;low;112;70;70;f;v;1;j;n;1322.867099999712
90k2a#v;175;False;2;P = T1?;ST2_high_1;2;Same;high;82;112;112;f;v;1;j;n;1069.8962999995274
90k2a#v;176;False;2;P = T2?;ST2_low_5;2;Same;low;96;154;154;f;v;0;j;n;2873.1760999999096
