p_code;trial_nr;practice;block;question;condition;seqPos;Same_or_Diff;ITS;T1_hz;T2_hz;P_hz;yes_key;sure_key;correct;yes_no;rating;resp_time
71!3yzh;1;True;1;P != T1?;DT1_low_1;1;Different;low;82;132;70;f;v;0;j;v;2126.2929999938933
71!3yzh;2;True;1;P != T1?;ST2_high_1;2;Same;high;82;112;112;f;v;1;f;v;4158.37289999763
71!3yzh;3;True;1;P != T2?;ST1_high_4;1;Same;high;96;70;96;f;v;0;j;v;3100.775499988231
71!3yzh;4;True;1;P != T1?;ST1_low_1;1;Same;low;82;132;82;f;v;1;j;v;2025.7052999950247
71!3yzh;5;True;1;P != T2?;STb_8;0;Same;None;180;180;180;f;v;1;j;v;1640.4150999878766
71!3yzh;6;True;1;P != T2?;STb_6;0;Same;None;132;132;132;f;v;1;j;v;873.2275000074878
71!3yzh;7;True;1;P != T1?;ST2_low_4;2;Same;low;112;70;70;f;v;1;f;v;2481.2115999957314
71!3yzh;8;True;1;P != T1?;STb_8;0;Same;None;180;180;180;f;v;1;j;v;627.3097999946913
71!3yzh;9;True;1;P != T1?;ST1_high_2;1;Same;high;112;82;112;f;v;1;j;v;1496.389399995678
71!3yzh;10;True;1;P != T1?;STb_4;0;Same;None;96;96;96;f;v;0;f;v;3293.6375999997836
71!3yzh;11;True;1;P != T2?;DT1_low_1;1;Different;low;82;132;70;f;v;1;f;v;1406.291199993575
71!3yzh;12;True;1;P != T1?;DT2_high_4;2;Different;high;96;70;60;f;v;0;j;v;2388.1460999982664
71!3yzh;13;True;1;P != T2?;ST2_low_6;2;Same;low;154;96;96;f;v;1;j;v;2845.560200003092
71!3yzh;14;True;1;P != T2?;ST1_high_5;1;Same;high;96;132;96;f;v;1;f;v;2260.3076999948826
71!3yzh;15;True;1;P != T2?;ST2_low_6;2;Same;low;154;96;96;f;v;1;j;v;938.8503999944078
71!3yzh;16;True;1;P != T2?;DT1_high_2;1;Different;high;112;82;132;f;v;1;f;v;2869.1305999964243
p_code;trial_nr;practice;block;question;condition;seqPos;Same_or_Diff;ITS;T1_hz;T2_hz;P_hz;yes_key;sure_key;correct;yes_no;rating;resp_time
71!3yzh;1;False;1;P != T2?;ST1_high_3;1;Same;high;70;96;70;f;v;1;f;v;4884.852699993644
71!3yzh;2;False;1;P != T1?;ST2_low_6;2;Same;low;154;96;96;f;v;0;j;v;974.3037000007462
71!3yzh;3;False;1;P != T1?;ST2_high_2;2;Same;high;112;82;82;f;v;0;j;v;1456.3045000104466
71!3yzh;4;False;1;P != T2?;DT2_low_2;2;Different;low;132;82;70;f;v;1;f;v;1666.6905999882147
71!3yzh;5;False;1;P != T2?;STb_1;0;Same;None;60;60;60;f;v;1;j;v;790.1121000031708
71!3yzh;6;False;1;P != T1?;ST1_high_5;1;Same;high;96;132;96;f;v;0;f;v;1951.5612999966834
71!3yzh;7;False;1;P != T1?;ST1_low_5;1;Same;low;96;154;96;f;v;1;j;v;803.1326000054833
71!3yzh;8;False;1;P != T2?;ST2_high_4;2;Same;high;96;70;70;f;v;1;j;v;2574.9710999953095
71!3yzh;9;False;1;P != T1?;ST2_low_3;2;Same;low;70;112;112;f;v;0;j;v;2914.797199991881
71!3yzh;10;False;1;P != T1?;ST1_high_4;1;Same;high;96;70;96;f;v;1;j;v;2296.9010999950115
71!3yzh;11;False;1;P != T1?;ST1_low_4;1;Same;low;112;70;112;f;v;0;f;v;2920.1983000093605
71!3yzh;12;False;1;P != T2?;STb_8;0;Same;None;180;180;180;f;v;1;j;v;1048.4569999971427
71!3yzh;13;False;1;P != T2?;ST2_low_4;2;Same;low;112;70;70;f;v;1;j;v;2355.1568999973824
71!3yzh;14;False;1;P != T1?;ST2_high_1;2;Same;high;82;112;112;f;v;1;f;v;2732.304399993154
71!3yzh;15;False;1;P != T1?;ST1_low_6;1;Same;low;154;96;154;f;v;1;j;v;847.7990999963367
71!3yzh;16;False;1;P != T1?;ST2_high_2;2;Same;high;112;82;82;f;v;1;f;v;3991.054300000542
71!3yzh;17;False;1;P != T1?;ST1_low_3;1;Same;low;70;112;70;f;v;1;j;v;2737.89879999822
71!3yzh;18;False;1;P != T1?;ST1_high_5;1;Same;high;96;132;96;f;v;0;f;v;3607.841199991526
71!3yzh;19;False;1;P != T1?;ST2_low_6;2;Same;low;154;96;96;f;v;0;j;v;3705.773199995747
71!3yzh;20;False;1;P != T2?;ST2_high_5;2;Same;high;96;132;132;f;v;1;j;v;714.3535000068368
71!3yzh;21;False;1;P != T1?;ST2_high_3;2;Same;high;70;96;96;f;v;1;f;v;2056.6866000008304
71!3yzh;22;False;1;P != T1?;STb_7;0;Same;None;154;154;154;f;v;0;f;v;1193.5195999976713
71!3yzh;23;False;1;P != T2?;ST1_low_1;1;Same;low;82;132;82;f;v;1;f;v;2299.4537000049604
71!3yzh;24;False;1;P != T2?;ST1_high_5;1;Same;high;96;132;96;f;v;1;f;v;2824.3999000114854
71!3yzh;25;False;1;P != T2?;ST2_low_3;2;Same;low;70;112;112;f;v;1;j;v;2263.9912000013283
71!3yzh;26;False;1;P != T1?;STb_4;0;Same;None;96;96;96;f;v;0;f;v;5415.643300002557
71!3yzh;27;False;1;P != T2?;DT1_high_2;1;Different;high;112;82;132;f;v;1;f;v;1992.6313000032678
71!3yzh;28;False;1;P != T1?;DT2_high_2;2;Different;high;112;82;70;f;v;1;f;v;937.2972999990452
71!3yzh;29;False;1;P != T2?;ST1_low_6;1;Same;low;154;96;154;f;v;1;f;v;3854.8088999959873
71!3yzh;30;False;1;P != T1?;ST1_high_1;1;Same;high;82;112;82;f;v;1;j;v;1135.793299996294
71!3yzh;31;False;1;P != T2?;ST2_low_1;2;Same;low;82;132;132;f;v;1;j;v;2776.762099994812
71!3yzh;32;False;1;P != T2?;ST2_high_4;2;Same;high;96;70;70;f;v;1;j;v;750.5535999953281
71!3yzh;33;False;1;P != T1?;ST2_low_2;2;Same;low;132;82;82;f;v;1;f;v;1301.6709000075934
71!3yzh;34;False;1;P != T2?;ST2_low_6;2;Same;low;154;96;96;f;v;1;j;v;2354.6712000097614
71!3yzh;35;False;1;P != T2?;ST2_high_1;2;Same;high;82;112;112;f;v;0;f;v;2829.5976999943377
71!3yzh;36;False;1;P != T2?;ST2_low_5;2;Same;low;96;154;154;f;v;1;j;v;3077.649700004258
71!3yzh;37;False;1;P != T2?;ST2_high_2;2;Same;high;112;82;82;f;v;1;j;v;2282.776499996544
71!3yzh;38;False;1;P != T2?;ST1_high_3;1;Same;high;70;96;70;f;v;1;f;v;1902.405799992266
71!3yzh;39;False;1;P != T1?;ST1_high_2;1;Same;high;112;82;112;f;v;1;j;v;405.7598999934271
71!3yzh;40;False;1;P != T2?;ST2_low_5;2;Same;low;96;154;154;f;v;1;j;v;1551.4196000003722
71!3yzh;41;False;1;P != T2?;ST1_high_6;1;Same;high;132;96;132;f;v;1;f;v;980.0516999966931
71!3yzh;42;False;1;P != T2?;ST1_high_1;1;Same;high;82;112;82;f;v;1;f;v;5159.075400006259
71!3yzh;43;False;1;P != T1?;ST1_high_3;1;Same;high;70;96;70;f;v;1;j;v;2690.4043999966234
71!3yzh;44;False;1;P != T2?;ST1_high_4;1;Same;high;96;70;96;f;v;0;j;v;1601.608099997975
71!3yzh;45;False;1;P != T2?;ST1_high_6;1;Same;high;132;96;132;f;v;0;j;v;967.5669999996899
71!3yzh;46;False;1;P != T2?;STb_6;0;Same;None;132;132;132;f;v;1;j;v;224.93490000488237
71!3yzh;47;False;1;P != T1?;ST2_low_3;2;Same;low;70;112;112;f;v;1;f;v;1117.3332999896957
71!3yzh;48;False;1;P != T1?;ST2_high_4;2;Same;high;96;70;70;f;v;0;j;v;2238.805600005435
71!3yzh;49;False;1;P != T2?;DT1_low_1;1;Different;low;82;132;70;f;v;1;f;v;886.1035999871092
71!3yzh;50;False;1;P != T1?;ST1_high_5;1;Same;high;96;132;96;f;v;1;j;v;383.2057999970857
71!3yzh;51;False;1;P != T1?;ST2_high_6;2;Same;high;132;96;96;f;v;0;j;v;1934.8390999948606
71!3yzh;52;False;1;P != T1?;ST1_low_1;1;Same;low;82;132;82;f;v;1;j;v;1163.005599999451
71!3yzh;53;False;1;P != T1?;ST2_low_4;2;Same;low;112;70;70;f;v;1;f;v;1184.6350999985589
71!3yzh;54;False;1;P != T1?;ST2_high_4;2;Same;high;96;70;70;f;v;1;f;v;989.2860999971163
71!3yzh;55;False;1;P != T2?;ST2_low_4;2;Same;low;112;70;70;f;v;1;j;v;2144.3861999869114
71!3yzh;56;False;1;P != T1?;ST1_high_1;1;Same;high;82;112;82;f;v;1;j;v;1777.7716999989934
71!3yzh;57;False;1;P != T1?;ST1_low_6;1;Same;low;154;96;154;f;v;1;j;v;3112.363299995195
71!3yzh;58;False;1;P != T2?;STb_3;0;Same;None;82;82;82;f;v;1;j;v;387.53120000183117
71!3yzh;59;False;1;P != T2?;ST1_low_3;1;Same;low;70;112;70;f;v;1;f;v;1140.9148999955505
71!3yzh;60;False;1;P != T1?;ST1_low_3;1;Same;low;70;112;70;f;v;1;j;v;2332.942600012757
71!3yzh;61;False;1;P != T1?;ST1_high_6;1;Same;high;132;96;132;f;v;0;f;v;920.6363999983296
71!3yzh;62;False;1;P != T2?;STb_4;0;Same;None;96;96;96;f;v;0;f;v;2849.2937999981223
71!3yzh;63;False;1;P != T1?;ST2_low_2;2;Same;low;132;82;82;f;v;1;f;v;8313.596300009522
71!3yzh;64;False;1;P != T1?;ST2_high_5;2;Same;high;96;132;132;f;v;0;j;v;688.5691000061342
71!3yzh;65;False;1;P != T2?;ST1_high_2;1;Same;high;112;82;112;f;v;1;f;v;1194.1894999908982
71!3yzh;66;False;1;P != T2?;ST1_high_4;1;Same;high;96;70;96;f;v;1;f;v;3063.3812000014586
71!3yzh;67;False;1;P != T1?;ST1_low_4;1;Same;low;112;70;112;f;v;1;j;v;1085.8816999971168
71!3yzh;68;False;1;P != T1?;ST2_low_5;2;Same;low;96;154;154;f;v;1;f;v;3263.6246000038227
71!3yzh;69;False;1;P != T1?;DT1_high_3;1;Different;high;70;96;60;f;v;0;j;v;3072.5917000090703
71!3yzh;70;False;1;P != T1?;ST2_low_2;2;Same;low;132;82;82;f;v;1;f;v;2540.9012000018265
71!3yzh;71;False;1;P != T1?;DT1_low_2;1;Different;low;132;82;154;f;v;0;j;v;6254.177099996014
71!3yzh;72;False;1;P != T2?;DT2_low_3;2;Different;low;70;112;132;f;v;0;j;v;2719.0308999997796
71!3yzh;73;False;1;P != T2?;ST2_low_6;2;Same;low;154;96;96;f;v;0;f;v;2197.117200004868
71!3yzh;74;False;1;P != T1?;ST2_high_3;2;Same;high;70;96;96;f;v;0;j;v;1892.3618999979226
71!3yzh;75;False;1;P != T1?;ST2_low_1;2;Same;low;82;132;132;f;v;0;j;v;1290.5495000013616
71!3yzh;76;False;1;P != T2?;ST1_high_3;1;Same;high;70;96;70;f;v;1;f;v;1700.0216000014916
71!3yzh;77;False;1;P != T1?;ST1_high_6;1;Same;high;132;96;132;f;v;1;j;v;976.9507000019075
71!3yzh;78;False;1;P != T2?;ST1_high_1;1;Same;high;82;112;82;f;v;1;f;v;1114.0222999965772
71!3yzh;79;False;1;P != T2?;ST2_high_2;2;Same;high;112;82;82;f;v;1;j;v;800.4771000123583
71!3yzh;80;False;1;P != T1?;ST2_low_1;2;Same;low;82;132;132;f;v;1;f;v;889.5918999915011
71!3yzh;81;False;1;P != T1?;ST1_low_2;1;Same;low;132;82;132;f;v;1;j;v;1867.640600001323
71!3yzh;82;False;1;P != T2?;ST2_low_4;2;Same;low;112;70;70;f;v;1;j;v;1986.3699000125052
71!3yzh;83;False;1;P != T1?;ST2_low_4;2;Same;low;112;70;70;f;v;1;f;v;2756.747200008249
71!3yzh;84;False;1;P != T1?;ST2_high_1;2;Same;high;82;112;112;f;v;0;j;v;1602.5611999939429
71!3yzh;85;False;1;P != T2?;ST2_high_6;2;Same;high;132;96;96;f;v;1;j;v;371.6334999917308
71!3yzh;86;False;1;P != T2?;DT1_low_6;1;Different;low;154;96;180;f;v;0;j;v;829.045300008147
71!3yzh;87;False;1;P != T1?;DT1_low_6;1;Different;low;154;96;180;f;v;1;f;v;899.8439999995753
71!3yzh;88;False;1;P != T2?;ST2_low_5;2;Same;low;96;154;154;f;v;1;j;v;690.8411999902455
71!3yzh;89;False;1;P != T1?;ST2_low_5;2;Same;low;96;154;154;f;v;1;f;v;2955.4398999898694
71!3yzh;90;False;1;P != T1?;ST2_high_5;2;Same;high;96;132;132;f;v;0;j;v;3495.8895000017947
71!3yzh;91;False;1;P != T1?;ST2_high_6;2;Same;high;132;96;96;f;v;0;j;v;2376.8932999955723
71!3yzh;92;False;1;P != T2?;ST1_low_5;1;Same;low;96;154;96;f;v;1;f;v;1332.495700000436
71!3yzh;93;False;1;P != T2?;ST1_low_2;1;Same;low;132;82;132;f;v;0;j;v;3659.2156999977306
71!3yzh;94;False;1;P != T2?;ST2_low_3;2;Same;low;70;112;112;f;v;1;j;v;856.4210000040475
71!3yzh;95;False;1;P != T1?;ST1_low_1;1;Same;low;82;132;82;f;v;1;j;v;1355.3790000005392
71!3yzh;96;False;1;P != T2?;ST1_low_6;1;Same;low;154;96;154;f;v;1;f;v;1175.633699996979
71!3yzh;97;False;1;P != T2?;ST2_low_2;2;Same;low;132;82;82;f;v;1;j;v;1690.978400001768
71!3yzh;98;False;1;P != T1?;STb_6;0;Same;None;132;132;132;f;v;0;f;v;1266.7949000024237
71!3yzh;99;False;1;P != T2?;ST1_low_1;1;Same;low;82;132;82;f;v;1;f;v;1897.5671999942278
71!3yzh;100;False;1;P != T2?;ST2_high_4;2;Same;high;96;70;70;f;v;1;j;v;1180.8022000041092
71!3yzh;101;False;1;P != T1?;ST1_low_1;1;Same;low;82;132;82;f;v;1;j;v;4620.404800007236
71!3yzh;102;False;1;P != T2?;DT1_high_4;1;Different;high;96;70;112;f;v;1;f;v;1689.723799994681
71!3yzh;103;False;1;P != T2?;ST2_low_3;2;Same;low;70;112;112;f;v;1;j;v;1728.2999000017298
71!3yzh;104;False;1;P != T1?;ST1_low_2;1;Same;low;132;82;132;f;v;1;j;v;1472.0503999997163
71!3yzh;105;False;1;P != T2?;DT2_high_5;2;Different;high;96;132;154;f;v;0;j;v;1896.6805000090972
71!3yzh;106;False;1;P != T2?;ST1_low_4;1;Same;low;112;70;112;f;v;1;f;v;1221.8517000001157
71!3yzh;107;False;1;P != T2?;ST1_low_3;1;Same;low;70;112;70;f;v;1;f;v;1034.9072999961209
71!3yzh;108;False;1;P != T1?;ST2_low_5;2;Same;low;96;154;154;f;v;1;f;v;1077.7999999991152
71!3yzh;109;False;1;P != T1?;ST2_low_6;2;Same;low;154;96;96;f;v;1;f;v;3052.7304999995977
71!3yzh;110;False;1;P != T1?;DT1_high_5;1;Different;high;96;132;82;f;v;0;j;v;2886.2150000059046
71!3yzh;111;False;1;P != T1?;ST1_high_1;1;Same;high;82;112;82;f;v;1;j;v;1227.818400002434
71!3yzh;112;False;1;P != T1?;ST1_high_2;1;Same;high;112;82;112;f;v;1;j;v;3042.4217999971006
71!3yzh;113;False;1;P != T2?;ST1_low_5;1;Same;low;96;154;96;f;v;1;f;v;2596.623699995689
71!3yzh;114;False;1;P != T2?;ST1_high_2;1;Same;high;112;82;112;f;v;0;j;v;9371.950399989146
71!3yzh;115;False;1;P != T1?;ST2_high_6;2;Same;high;132;96;96;f;v;1;f;v;1704.6659000043292
71!3yzh;116;False;1;P != T2?;ST2_low_1;2;Same;low;82;132;132;f;v;1;j;v;1150.4986000072677
71!3yzh;117;False;1;P != T2?;DT1_low_2;1;Different;low;132;82;154;f;v;1;f;v;13663.527800003067
71!3yzh;118;False;1;P != T2?;ST2_low_2;2;Same;low;132;82;82;f;v;1;j;v;1229.2476000002353
71!3yzh;119;False;1;P != T1?;ST2_low_4;2;Same;low;112;70;70;f;v;1;f;v;6750.3374999942025
71!3yzh;120;False;1;P != T1?;ST1_high_2;1;Same;high;112;82;112;f;v;1;j;v;2108.309299990651
71!3yzh;121;False;1;P != T2?;ST2_low_1;2;Same;low;82;132;132;f;v;0;f;v;5020.0120999943465
71!3yzh;122;False;1;P != T1?;ST1_low_4;1;Same;low;112;70;112;f;v;1;j;v;1429.6756999974605
71!3yzh;123;False;1;P != T2?;ST1_low_3;1;Same;low;70;112;70;f;v;1;f;v;1053.8326000096276
71!3yzh;124;False;1;P != T2?;ST2_high_2;2;Same;high;112;82;82;f;v;1;j;v;378.46300000092015
71!3yzh;125;False;1;P != T2?;ST1_high_2;1;Same;high;112;82;112;f;v;0;j;v;350.5142999929376
71!3yzh;126;False;1;P != T1?;ST1_low_3;1;Same;low;70;112;70;f;v;1;j;v;1837.8146999893943
71!3yzh;127;False;1;P != T2?;ST1_high_4;1;Same;high;96;70;96;f;v;0;j;v;3377.435099988361
71!3yzh;128;False;1;P != T2?;ST2_high_6;2;Same;high;132;96;96;f;v;1;j;v;1199.7031999926548
71!3yzh;129;False;1;P != T1?;ST1_low_5;1;Same;low;96;154;96;f;v;1;j;v;806.9314000022132
71!3yzh;130;False;1;P != T2?;ST2_high_6;2;Same;high;132;96;96;f;v;1;j;v;1986.4999999990687
71!3yzh;131;False;1;P != T1?;ST1_low_6;1;Same;low;154;96;154;f;v;0;f;v;1503.432099998463
71!3yzh;132;False;1;P != T2?;ST2_low_2;2;Same;low;132;82;82;f;v;1;j;v;1848.6025000020163
71!3yzh;133;False;1;P != T1?;ST1_high_3;1;Same;high;70;96;70;f;v;1;j;v;1353.2375999930082
71!3yzh;134;False;1;P != T2?;ST1_low_4;1;Same;low;112;70;112;f;v;1;f;v;2085.2548999973806
71!3yzh;135;False;1;P != T2?;ST2_high_3;2;Same;high;70;96;96;f;v;0;f;v;3999.93849999737
71!3yzh;136;False;1;P != T1?;ST2_high_1;2;Same;high;82;112;112;f;v;1;f;v;1741.4710000011837
71!3yzh;137;False;1;P != T2?;ST1_low_4;1;Same;low;112;70;112;f;v;1;f;v;1044.1258999926504
71!3yzh;138;False;1;P != T1?;ST2_high_5;2;Same;high;96;132;132;f;v;0;j;v;390.7432999985758
71!3yzh;139;False;1;P != T1?;ST1_high_3;1;Same;high;70;96;70;f;v;1;j;v;863.7851000094088
71!3yzh;140;False;1;P != T2?;ST1_low_5;1;Same;low;96;154;96;f;v;1;f;v;4372.004200005904
71!3yzh;141;False;1;P != T2?;ST1_low_1;1;Same;low;82;132;82;f;v;1;f;v;955.4206000029808
71!3yzh;142;False;1;P != T1?;STb_5;0;Same;None;112;112;112;f;v;0;f;v;1751.0699999984354
71!3yzh;143;False;1;P != T2?;ST2_low_6;2;Same;low;154;96;96;f;v;0;f;v;2661.1164000059944
71!3yzh;144;False;1;P != T2?;ST2_high_1;2;Same;high;82;112;112;f;v;1;j;v;2673.922100002528
71!3yzh;145;False;1;P != T2?;ST2_high_5;2;Same;high;96;132;132;f;v;1;j;v;5904.693300006329
71!3yzh;146;False;1;P != T1?;ST2_high_2;2;Same;high;112;82;82;f;v;1;f;v;1471.0201999987476
71!3yzh;147;False;1;P != T1?;STb_8;0;Same;None;180;180;180;f;v;0;f;v;1074.0824000095017
71!3yzh;148;False;1;P != T2?;ST1_low_6;1;Same;low;154;96;154;f;v;1;f;v;3215.3678000031505
71!3yzh;149;False;1;P != T1?;ST1_high_6;1;Same;high;132;96;132;f;v;1;j;v;1338.7568000034662
71!3yzh;150;False;1;P != T1?;STb_1;0;Same;None;60;60;60;f;v;1;j;v;329.2734999995446
71!3yzh;151;False;1;P != T2?;ST1_high_5;1;Same;high;96;132;96;f;v;0;j;v;374.2671999934828
71!3yzh;152;False;1;P != T1?;ST2_low_3;2;Same;low;70;112;112;f;v;0;j;v;122.93919999501668
71!3yzh;153;False;1;P != T2?;STb_2;0;Same;None;70;70;70;f;v;1;j;v;501.0728999914136
71!3yzh;154;False;1;P != T2?;ST2_high_5;2;Same;high;96;132;132;f;v;1;j;v;567.1603999944637
71!3yzh;155;False;1;P != T1?;ST1_low_5;1;Same;low;96;154;96;f;v;1;j;v;1776.7099000047892
71!3yzh;156;False;1;P != T2?;ST1_high_1;1;Same;high;82;112;82;f;v;1;f;v;1475.0503999966895
71!3yzh;157;False;1;P != T1?;ST1_high_4;1;Same;high;96;70;96;f;v;1;j;v;306.9810999877518
71!3yzh;158;False;1;P != T2?;ST2_high_1;2;Same;high;82;112;112;f;v;1;j;v;351.12479999952484
71!3yzh;159;False;1;P != T1?;DT2_high_4;2;Different;high;96;70;60;f;v;0;j;v;1413.5432000039145
71!3yzh;160;False;1;P != T2?;ST2_high_3;2;Same;high;70;96;96;f;v;1;j;v;1012.4999999970896
71!3yzh;161;False;1;P != T2?;STb_5;0;Same;None;112;112;112;f;v;1;j;v;284.83450000931043
71!3yzh;162;False;1;P != T1?;ST2_high_3;2;Same;high;70;96;96;f;v;0;j;v;300.9659999952419
71!3yzh;163;False;1;P != T1?;ST2_high_4;2;Same;high;96;70;70;f;v;0;j;v;341.5359999926295
71!3yzh;164;False;1;P != T1?;DT2_low_5;2;Different;low;96;154;180;f;v;0;j;v;677.7577000029851
71!3yzh;165;False;1;P != T2?;ST1_high_5;1;Same;high;96;132;96;f;v;1;f;v;2588.018499998725
71!3yzh;166;False;1;P != T2?;ST1_low_2;1;Same;low;132;82;132;f;v;1;f;v;599.5800999953644
71!3yzh;167;False;1;P != T2?;ST2_high_3;2;Same;high;70;96;96;f;v;0;f;v;3510.534400003962
71!3yzh;168;False;1;P != T1?;ST1_low_2;1;Same;low;132;82;132;f;v;1;j;v;1118.1464999972377
71!3yzh;169;False;1;P != T2?;STb_7;0;Same;None;154;154;154;f;v;1;j;v;292.80840000137687
71!3yzh;170;False;1;P != T1?;STb_2;0;Same;None;70;70;70;f;v;1;j;v;299.07660000026226
71!3yzh;171;False;1;P != T2?;ST1_low_2;1;Same;low;132;82;132;f;v;0;j;v;291.1443000048166
71!3yzh;172;False;1;P != T2?;ST1_high_6;1;Same;high;132;96;132;f;v;0;j;v;225.07790000236128
71!3yzh;173;False;1;P != T1?;ST1_high_4;1;Same;high;96;70;96;f;v;1;j;v;811.2361999956192
71!3yzh;174;False;1;P != T1?;ST2_low_1;2;Same;low;82;132;132;f;v;1;f;v;839.0911000024062
71!3yzh;175;False;1;P != T1?;STb_3;0;Same;None;82;82;82;f;v;1;j;v;278.8827000040328
71!3yzh;176;False;1;P != T1?;DT2_high_6;2;Different;high;132;96;82;f;v;0;j;v;282.41220000199974
71!3yzh;1;True;2;P = T2?;DT2_high_3;2;Different;high;70;96;112;f;v;1;j;v;3322.121499993955
71!3yzh;2;True;2;P = T1?;STb_6;0;Same;None;132;132;132;f;v;0;j;v;1540.8083999936935
71!3yzh;3;True;2;P = T1?;STb_4;0;Same;None;96;96;96;f;v;1;f;v;315.29839998984244
71!3yzh;4;True;2;P = T1?;ST2_high_2;2;Same;high;112;82;82;f;v;1;j;v;2670.649299994693
71!3yzh;5;True;2;P = T2?;STb_5;0;Same;None;112;112;112;f;v;1;f;v;398.26560000074096
71!3yzh;6;True;2;P = T1?;ST1_high_6;1;Same;high;132;96;132;f;v;1;f;v;4775.7338999945205
71!3yzh;7;True;2;P = T2?;STb_6;0;Same;None;132;132;132;f;v;1;f;v;288.91200000362005
71!3yzh;8;True;2;P = T2?;ST2_high_3;2;Same;high;70;96;96;f;v;1;f;v;391.0226000007242
71!3yzh;9;True;2;P = T1?;DT2_low_5;2;Different;low;96;154;180;f;v;1;j;v;1151.6202000057092
71!3yzh;10;True;2;P = T2?;ST1_low_2;1;Same;low;132;82;132;f;v;1;j;v;503.9474000077462
71!3yzh;11;True;2;P = T1?;ST1_high_4;1;Same;high;96;70;96;f;v;1;f;v;973.1789999932516
71!3yzh;12;True;2;P = T2?;ST1_low_2;1;Same;low;132;82;132;f;v;1;j;v;640.5305000080261
71!3yzh;13;True;2;P = T2?;ST2_high_1;2;Same;high;82;112;112;f;v;1;f;v;411.38480001245625
71!3yzh;14;True;2;P = T1?;ST2_low_2;2;Same;low;132;82;82;f;v;1;j;v;634.9446999956854
71!3yzh;15;True;2;P = T2?;DT2_high_4;2;Different;high;96;70;60;f;v;0;f;v;391.43639999383595
71!3yzh;16;True;2;P = T1?;DT2_high_1;2;Different;high;82;112;132;f;v;1;j;v;513.0152999918209
71!3yzh;1;False;2;P = T2?;ST1_low_3;1;Same;low;70;112;70;f;v;1;j;v;2281.1423999955878
71!3yzh;2;False;2;P = T2?;STb_4;0;Same;None;96;96;96;f;v;1;f;v;410.2213000005577
71!3yzh;3;False;2;P = T1?;ST1_high_5;1;Same;high;96;132;96;f;v;0;j;v;511.78210000216495
71!3yzh;4;False;2;P = T2?;ST2_low_5;2;Same;low;96;154;154;f;v;1;f;v;500.70099999720696
71!3yzh;5;False;2;P = T1?;ST1_high_1;1;Same;high;82;112;82;f;v;1;f;v;531.7448999994667
71!3yzh;6;False;2;P = T1?;ST2_low_5;2;Same;low;96;154;154;f;v;1;j;v;517.0328999956837
71!3yzh;7;False;2;P = T1?;ST1_low_5;1;Same;low;96;154;96;f;v;1;f;v;591.9075999991037
71!3yzh;8;False;2;P = T2?;ST1_high_1;1;Same;high;82;112;82;f;v;1;j;v;1078.7257999909343
71!3yzh;9;False;2;P = T2?;ST2_low_2;2;Same;low;132;82;82;f;v;1;f;v;689.0239999920595
71!3yzh;10;False;2;P = T2?;ST2_low_6;2;Same;low;154;96;96;f;v;1;f;v;1077.931300009368
71!3yzh;11;False;2;P = T1?;ST2_low_1;2;Same;low;82;132;132;f;v;1;j;v;5173.522999990382
71!3yzh;12;False;2;P = T2?;ST2_low_1;2;Same;low;82;132;132;f;v;1;f;v;521.6899000079138
71!3yzh;13;False;2;P = T2?;ST2_high_2;2;Same;high;112;82;82;f;v;1;f;v;303.07719999109395
71!3yzh;14;False;2;P = T1?;ST2_low_1;2;Same;low;82;132;132;f;v;0;f;v;608.8922000053572
71!3yzh;15;False;2;P = T1?;ST2_high_3;2;Same;high;70;96;96;f;v;1;j;v;491.9456999923568
71!3yzh;16;False;2;P = T1?;ST1_high_3;1;Same;high;70;96;70;f;v;1;f;v;888.0840000056196
71!3yzh;17;False;2;P = T2?;ST1_high_5;1;Same;high;96;132;96;f;v;1;j;v;1066.188199998578
71!3yzh;18;False;2;P = T1?;ST2_high_4;2;Same;high;96;70;70;f;v;1;j;v;672.0298000000184
71!3yzh;19;False;2;P = T1?;ST2_high_2;2;Same;high;112;82;82;f;v;1;j;v;1838.9666000002762
71!3yzh;20;False;2;P = T2?;ST2_high_1;2;Same;high;82;112;112;f;v;1;f;v;408.33129998645745
71!3yzh;21;False;2;P = T1?;ST1_low_3;1;Same;low;70;112;70;f;v;1;f;v;2057.469699997455
71!3yzh;22;False;2;P = T1?;DT1_high_5;1;Different;high;96;132;82;f;v;0;f;v;700.2315999998245
71!3yzh;23;False;2;P = T2?;DT1_high_4;1;Different;high;96;70;112;f;v;1;j;v;713.5807000013301
71!3yzh;24;False;2;P = T2?;ST1_high_5;1;Same;high;96;132;96;f;v;0;f;v;563.8550000003306
71!3yzh;25;False;2;P = T2?;ST1_high_6;1;Same;high;132;96;132;f;v;0;f;v;307.5198000005912
71!3yzh;26;False;2;P = T2?;ST2_high_4;2;Same;high;96;70;70;f;v;1;f;v;1039.4170000072336
71!3yzh;27;False;2;P = T2?;DT1_high_3;1;Different;high;70;96;60;f;v;1;j;v;834.472000002279
71!3yzh;28;False;2;P = T1?;ST2_low_1;2;Same;low;82;132;132;f;v;1;j;v;767.9171999916434
71!3yzh;29;False;2;P = T2?;ST1_low_3;1;Same;low;70;112;70;f;v;1;j;v;1603.7547000014456
71!3yzh;30;False;2;P = T1?;ST1_high_5;1;Same;high;96;132;96;f;v;1;f;v;1218.677299999399
71!3yzh;31;False;2;P = T1?;DT1_high_2;1;Different;high;112;82;132;f;v;0;f;v;513.3658999984618
71!3yzh;32;False;2;P = T1?;ST2_high_4;2;Same;high;96;70;70;f;v;1;j;v;528.662999990047
71!3yzh;33;False;2;P = T2?;ST2_high_2;2;Same;high;112;82;82;f;v;1;f;v;572.7326000051107
71!3yzh;34;False;2;P = T2?;ST2_low_6;2;Same;low;154;96;96;f;v;1;f;v;1492.2384999954375
71!3yzh;35;False;2;P = T1?;ST1_low_5;1;Same;low;96;154;96;f;v;1;f;v;478.32880000350997
71!3yzh;36;False;2;P = T2?;ST2_low_1;2;Same;low;82;132;132;f;v;1;f;v;535.1083000132348
71!3yzh;37;False;2;P = T1?;ST2_low_2;2;Same;low;132;82;82;f;v;1;j;v;489.9989999976242
71!3yzh;38;False;2;P = T1?;ST2_low_3;2;Same;low;70;112;112;f;v;1;j;v;521.1664999951608
71!3yzh;39;False;2;P = T2?;ST2_low_2;2;Same;low;132;82;82;f;v;1;f;v;402.06739999121055
71!3yzh;40;False;2;P = T1?;ST1_high_4;1;Same;high;96;70;96;f;v;0;j;v;577.8450999932829
71!3yzh;41;False;2;P = T2?;ST2_low_5;2;Same;low;96;154;154;f;v;1;f;v;397.5422000075923
71!3yzh;42;False;2;P = T2?;ST1_low_5;1;Same;low;96;154;96;f;v;0;f;v;675.7177000108641
71!3yzh;43;False;2;P = T1?;ST2_high_5;2;Same;high;96;132;132;f;v;0;f;v;564.0694000030635
71!3yzh;44;False;2;P = T2?;ST2_low_4;2;Same;low;112;70;70;f;v;1;f;v;1006.7772000038531
71!3yzh;45;False;2;P = T2?;ST2_high_1;2;Same;high;82;112;112;f;v;1;f;v;436.9206999981543
71!3yzh;46;False;2;P = T1?;ST2_low_5;2;Same;low;96;154;154;f;v;1;j;v;554.729600000428
71!3yzh;47;False;2;P = T2?;ST1_high_3;1;Same;high;70;96;70;f;v;1;j;v;575.2615999954287
71!3yzh;48;False;2;P = T1?;ST1_low_2;1;Same;low;132;82;132;f;v;0;j;v;255.91150000400376
71!3yzh;49;False;2;P = T1?;ST1_low_4;1;Same;low;112;70;112;f;v;1;f;v;546.9008999934886
71!3yzh;50;False;2;P = T2?;ST2_high_6;2;Same;high;132;96;96;f;v;1;f;v;658.5272000083933
71!3yzh;51;False;2;P = T1?;ST1_high_6;1;Same;high;132;96;132;f;v;1;f;v;465.1844999898458
71!3yzh;52;False;2;P = T2?;ST2_high_4;2;Same;high;96;70;70;f;v;1;f;v;713.318000009167
71!3yzh;53;False;2;P = T2?;ST1_low_3;1;Same;low;70;112;70;f;v;1;j;v;932.8771000000415
71!3yzh;54;False;2;P = T2?;ST2_high_6;2;Same;high;132;96;96;f;v;0;j;v;3950.8650000061607
71!3yzh;55;False;2;P = T1?;ST2_low_2;2;Same;low;132;82;82;f;v;0;f;v;303.81779999879654
71!3yzh;56;False;2;P = T2?;ST2_low_4;2;Same;low;112;70;70;f;v;1;f;v;684.799299997394
71!3yzh;57;False;2;P = T2?;ST1_high_6;1;Same;high;132;96;132;f;v;0;f;v;295.3291000012541
71!3yzh;58;False;2;P = T1?;ST1_high_6;1;Same;high;132;96;132;f;v;1;f;v;342.66460000071675
71!3yzh;59;False;2;P = T1?;ST2_low_2;2;Same;low;132;82;82;f;v;1;j;v;7767.444400000386
71!3yzh;60;False;2;P = T2?;STb_3;0;Same;None;82;82;82;f;v;1;f;v;480.29540000425186
71!3yzh;61;False;2;P = T2?;ST1_low_2;1;Same;low;132;82;132;f;v;0;f;v;849.7007999976631
71!3yzh;62;False;2;P = T1?;ST2_high_1;2;Same;high;82;112;112;f;v;1;j;v;1186.2076000106754
71!3yzh;63;False;2;P = T1?;ST2_low_6;2;Same;low;154;96;96;f;v;0;f;v;328.88799998909235
71!3yzh;64;False;2;P = T1?;ST1_low_3;1;Same;low;70;112;70;f;v;1;f;v;410.749599992414
71!3yzh;65;False;2;P = T1?;ST1_high_2;1;Same;high;112;82;112;f;v;1;f;v;1038.702400008333
71!3yzh;66;False;2;P = T1?;ST2_high_1;2;Same;high;82;112;112;f;v;0;f;v;910.7686000061221
71!3yzh;67;False;2;P = T1?;ST1_high_4;1;Same;high;96;70;96;f;v;1;f;v;1453.0670999956783
71!3yzh;68;False;2;P = T1?;ST2_high_5;2;Same;high;96;132;132;f;v;1;j;v;2320.4112999956124
71!3yzh;69;False;2;P = T1?;ST2_low_4;2;Same;low;112;70;70;f;v;0;f;v;1154.3727999960538
71!3yzh;70;False;2;P = T2?;ST2_high_2;2;Same;high;112;82;82;f;v;1;f;v;373.5351999930572
71!3yzh;71;False;2;P = T2?;ST2_high_5;2;Same;high;96;132;132;f;v;1;f;v;458.2959000108531
71!3yzh;72;False;2;P = T2?;ST2_low_3;2;Same;low;70;112;112;f;v;1;f;v;405.2685000060592
71!3yzh;73;False;2;P = T2?;ST1_low_6;1;Same;low;154;96;154;f;v;0;f;v;443.3516999997664
71!3yzh;74;False;2;P = T2?;ST2_low_1;2;Same;low;82;132;132;f;v;1;f;v;549.3053999962285
71!3yzh;75;False;2;P = T2?;ST1_high_2;1;Same;high;112;82;112;f;v;0;f;v;314.33380000817124
71!3yzh;76;False;2;P = T1?;ST1_low_6;1;Same;low;154;96;154;f;v;1;f;v;347.7344999992056
71!3yzh;77;False;2;P = T2?;ST1_low_6;1;Same;low;154;96;154;f;v;0;f;v;404.6237000002293
71!3yzh;78;False;2;P = T1?;ST2_high_3;2;Same;high;70;96;96;f;v;1;j;v;424.7274999943329
71!3yzh;79;False;2;P = T2?;ST2_low_3;2;Same;low;70;112;112;f;v;0;j;v;779.6394000033615
71!3yzh;80;False;2;P = T1?;DT2_high_2;2;Different;high;112;82;70;f;v;0;f;v;480.1846000045771
71!3yzh;81;False;2;P = T1?;STb_6;0;Same;None;132;132;132;f;v;1;f;v;313.395599994692
71!3yzh;82;False;2;P = T2?;STb_6;0;Same;None;132;132;132;f;v;1;f;v;396.09249999921303
71!3yzh;83;False;2;P = T2?;ST2_low_6;2;Same;low;154;96;96;f;v;1;f;v;414.88189999654423
71!3yzh;84;False;2;P = T2?;ST1_low_4;1;Same;low;112;70;112;f;v;1;j;v;733.0498999945121
71!3yzh;85;False;2;P = T2?;DT1_low_2;1;Different;low;132;82;154;f;v;1;j;v;489.26039999059867
71!3yzh;86;False;2;P = T1?;STb_7;0;Same;None;154;154;154;f;v;0;j;v;489.0661000099499
71!3yzh;87;False;2;P = T1?;ST1_high_4;1;Same;high;96;70;96;f;v;1;f;v;2609.425900009228
71!3yzh;88;False;2;P = T1?;DT1_high_1;1;Different;high;82;112;70;f;v;0;f;v;576.7939000070328
71!3yzh;89;False;2;P = T2?;STb_2;0;Same;None;70;70;70;f;v;1;f;v;368.2732000015676
71!3yzh;90;False;2;P = T1?;ST1_high_2;1;Same;high;112;82;112;f;v;1;f;v;924.5102999993833
71!3yzh;91;False;2;P = T1?;ST1_high_1;1;Same;high;82;112;82;f;v;1;f;v;419.2497000040021
71!3yzh;92;False;2;P = T2?;ST1_high_5;1;Same;high;96;132;96;f;v;1;j;v;647.1260999969672
71!3yzh;93;False;2;P = T2?;ST1_high_6;1;Same;high;132;96;132;f;v;1;j;v;821.8671999929938
71!3yzh;94;False;2;P = T2?;ST1_high_1;1;Same;high;82;112;82;f;v;1;j;v;539.177099999506
71!3yzh;95;False;2;P = T1?;ST1_low_4;1;Same;low;112;70;112;f;v;1;f;v;2376.000299991574
71!3yzh;96;False;2;P = T1?;ST2_low_6;2;Same;low;154;96;96;f;v;1;j;v;492.45710000104737
71!3yzh;97;False;2;P = T2?;ST1_low_1;1;Same;low;82;132;82;f;v;1;j;v;3182.7458999905502
71!3yzh;98;False;2;P = T1?;ST1_low_1;1;Same;low;82;132;82;f;v;1;f;v;403.2844000030309
71!3yzh;99;False;2;P = T2?;ST1_low_1;1;Same;low;82;132;82;f;v;1;j;v;2107.548100000713
71!3yzh;100;False;2;P = T2?;DT2_high_1;2;Different;high;82;112;132;f;v;0;f;v;423.7457999988692
71!3yzh;101;False;2;P = T1?;ST2_high_3;2;Same;high;70;96;96;f;v;1;j;v;1634.0516999916872
71!3yzh;102;False;2;P = T1?;ST1_low_1;1;Same;low;82;132;82;f;v;1;f;v;441.0937000066042
71!3yzh;103;False;2;P = T1?;DT1_high_4;1;Different;high;96;70;112;f;v;0;f;v;567.7914999978384
71!3yzh;104;False;2;P = T1?;ST2_high_2;2;Same;high;112;82;82;f;v;1;j;v;463.17160000035074
71!3yzh;105;False;2;P = T2?;ST1_high_2;1;Same;high;112;82;112;f;v;1;j;v;2079.8094000056153
71!3yzh;106;False;2;P = T2?;ST2_high_3;2;Same;high;70;96;96;f;v;1;f;v;4135.974399992847
71!3yzh;107;False;2;P = T2?;ST2_high_3;2;Same;high;70;96;96;f;v;1;f;v;683.7982000142802
71!3yzh;108;False;2;P = T2?;ST1_high_4;1;Same;high;96;70;96;f;v;0;f;v;508.95479999599047
71!3yzh;109;False;2;P = T1?;ST2_low_3;2;Same;low;70;112;112;f;v;1;j;v;1638.4936999966158
71!3yzh;110;False;2;P = T1?;STb_4;0;Same;None;96;96;96;f;v;1;f;v;251.60860001051333
71!3yzh;111;False;2;P = T1?;ST1_low_5;1;Same;low;96;154;96;f;v;1;f;v;362.83080000430346
71!3yzh;112;False;2;P = T1?;ST2_low_4;2;Same;low;112;70;70;f;v;1;j;v;575.6969000067329
71!3yzh;113;False;2;P = T2?;ST1_low_4;1;Same;low;112;70;112;f;v;0;f;v;1607.813399998122
71!3yzh;114;False;2;P = T1?;ST1_low_6;1;Same;low;154;96;154;f;v;1;f;v;354.3560000107391
71!3yzh;115;False;2;P = T2?;ST2_high_5;2;Same;high;96;132;132;f;v;1;f;v;212.3429000057513
71!3yzh;116;False;2;P = T2?;ST1_low_5;1;Same;low;96;154;96;f;v;0;f;v;382.59049999760464
71!3yzh;117;False;2;P = T1?;ST1_high_6;1;Same;high;132;96;132;f;v;1;f;v;204.4787000049837
71!3yzh;118;False;2;P = T2?;DT2_high_4;2;Different;high;96;70;60;f;v;0;f;v;489.2608999944059
71!3yzh;119;False;2;P = T1?;ST2_high_4;2;Same;high;96;70;70;f;v;1;j;v;367.81929999415297
71!3yzh;120;False;2;P = T2?;ST1_high_2;1;Same;high;112;82;112;f;v;1;j;v;755.4767999972682
71!3yzh;121;False;2;P = T1?;ST2_low_5;2;Same;low;96;154;154;f;v;1;j;v;400.25320000131615
71!3yzh;122;False;2;P = T2?;ST1_high_3;1;Same;high;70;96;70;f;v;1;j;v;490.13380000542384
71!3yzh;123;False;2;P = T2?;ST1_high_1;1;Same;high;82;112;82;f;v;1;j;v;509.089999992284
71!3yzh;124;False;2;P = T2?;ST2_low_3;2;Same;low;70;112;112;f;v;1;f;v;390.2494999929331
71!3yzh;125;False;2;P = T2?;ST1_high_4;1;Same;high;96;70;96;f;v;1;j;v;470.43899999698624
71!3yzh;126;False;2;P = T1?;STb_1;0;Same;None;60;60;60;f;v;0;j;v;406.4936999930069
71!3yzh;127;False;2;P = T1?;ST1_high_2;1;Same;high;112;82;112;f;v;0;j;v;513.6886000109371
71!3yzh;128;False;2;P = T1?;ST1_low_2;1;Same;low;132;82;132;f;v;1;f;v;285.5756999924779
71!3yzh;129;False;2;P = T1?;ST2_high_6;2;Same;high;132;96;96;f;v;0;f;v;70.19909999507945
71!3yzh;130;False;2;P = T2?;ST1_high_3;1;Same;high;70;96;70;f;v;1;j;v;859.5227000041632
71!3yzh;131;False;2;P = T2?;ST2_low_2;2;Same;low;132;82;82;f;v;0;j;v;712.8255999996327
71!3yzh;132;False;2;P = T1?;STb_2;0;Same;None;70;70;70;f;v;1;f;v;299.43360001198016
71!3yzh;133;False;2;P = T1?;ST1_low_2;1;Same;low;132;82;132;f;v;1;f;v;319.41949999600183
71!3yzh;134;False;2;P = T1?;ST1_high_5;1;Same;high;96;132;96;f;v;1;f;v;396.63069999369327
71!3yzh;135;False;2;P = T1?;ST2_high_6;2;Same;high;132;96;96;f;v;0;f;v;258.1059000076493
71!3yzh;136;False;2;P = T1?;DT2_low_2;2;Different;low;132;82;70;f;v;1;j;v;418.77849999582395
71!3yzh;137;False;2;P = T1?;ST2_high_2;2;Same;high;112;82;82;f;v;1;j;v;456.8245999980718
71!3yzh;138;False;2;P = T2?;STb_5;0;Same;None;112;112;112;f;v;1;f;v;399.566699998104
71!3yzh;139;False;2;P = T1?;ST1_low_4;1;Same;low;112;70;112;f;v;1;f;v;354.1211999981897
71!3yzh;140;False;2;P = T1?;STb_8;0;Same;None;180;180;180;f;v;1;f;v;319.097999992664
71!3yzh;141;False;2;P = T1?;ST1_low_3;1;Same;low;70;112;70;f;v;1;f;v;424.59309998957906
71!3yzh;142;False;2;P = T1?;DT2_low_6;2;Different;low;154;96;82;f;v;1;j;v;486.98410000361037
71!3yzh;143;False;2;P = T2?;DT2_high_2;2;Different;high;112;82;70;f;v;0;f;v;3036.133100002189
71!3yzh;144;False;2;P = T2?;ST1_low_1;1;Same;low;82;132;82;f;v;0;f;v;793.1485000008252
71!3yzh;145;False;2;P = T1?;ST2_low_3;2;Same;low;70;112;112;f;v;0;f;v;14023.579000000609
71!3yzh;146;False;2;P = T2?;ST2_high_4;2;Same;high;96;70;70;f;v;1;f;v;6813.546799996402
71!3yzh;147;False;2;P = T1?;ST1_high_1;1;Same;high;82;112;82;f;v;1;f;v;771.7298000061419
71!3yzh;148;False;2;P = T1?;ST2_high_6;2;Same;high;132;96;96;f;v;1;j;v;462.7007999952184
71!3yzh;149;False;2;P = T2?;ST1_low_2;1;Same;low;132;82;132;f;v;1;j;v;2305.635100012296
71!3yzh;150;False;2;P = T2?;ST2_high_3;2;Same;high;70;96;96;f;v;1;f;v;405.0324999989243
71!3yzh;151;False;2;P = T1?;DT2_low_3;2;Different;low;70;112;132;f;v;1;j;v;468.2177000067895
71!3yzh;152;False;2;P = T2?;ST2_high_1;2;Same;high;82;112;112;f;v;1;f;v;255.71099999069702
71!3yzh;153;False;2;P = T2?;DT1_high_1;1;Different;high;82;112;70;f;v;0;f;v;857.7171000069939
71!3yzh;154;False;2;P = T1?;ST2_high_1;2;Same;high;82;112;112;f;v;1;j;v;2042.9438000137452
71!3yzh;155;False;2;P = T1?;STb_5;0;Same;None;112;112;112;f;v;0;j;v;1741.1142000055406
71!3yzh;156;False;2;P = T1?;ST1_low_6;1;Same;low;154;96;154;f;v;1;f;v;778.5093000129564
71!3yzh;157;False;2;P = T2?;STb_8;0;Same;None;180;180;180;f;v;0;j;v;548.6990000063088
71!3yzh;158;False;2;P = T2?;ST2_high_5;2;Same;high;96;132;132;f;v;1;f;v;415.2258999965852
71!3yzh;159;False;2;P = T1?;ST2_low_4;2;Same;low;112;70;70;f;v;1;j;v;503.083699994022
71!3yzh;160;False;2;P = T1?;ST1_high_3;1;Same;high;70;96;70;f;v;0;j;v;772.5511000026017
71!3yzh;161;False;2;P = T2?;ST1_low_6;1;Same;low;154;96;154;f;v;1;j;v;1132.1708999894327
71!3yzh;162;False;2;P = T1?;ST2_low_6;2;Same;low;154;96;96;f;v;0;f;v;264.6879999956582
71!3yzh;163;False;2;P = T2?;ST1_low_2;1;Same;low;132;82;132;f;v;0;f;v;305.4171999974642
71!3yzh;164;False;2;P = T1?;ST2_high_5;2;Same;high;96;132;132;f;v;0;f;v;91.44889999879524
71!3yzh;165;False;2;P = T1?;STb_3;0;Same;None;82;82;82;f;v;1;f;v;733.1562000035774
71!3yzh;166;False;2;P = T1?;ST1_low_1;1;Same;low;82;132;82;f;v;1;f;v;481.7655999941053
71!3yzh;167;False;2;P = T1?;ST1_high_3;1;Same;high;70;96;70;f;v;1;f;v;496.00469999131747
71!3yzh;168;False;2;P = T2?;ST1_low_5;1;Same;low;96;154;96;f;v;1;j;v;783.3660000032978
71!3yzh;169;False;2;P = T2?;ST2_low_4;2;Same;low;112;70;70;f;v;1;f;v;828.3388999989256
71!3yzh;170;False;2;P = T2?;ST1_low_4;1;Same;low;112;70;112;f;v;1;j;v;1065.3796999977203
71!3yzh;171;False;2;P = T2?;STb_1;0;Same;None;60;60;60;f;v;1;f;v;563.2426000083797
71!3yzh;172;False;2;P = T2?;ST1_high_4;1;Same;high;96;70;96;f;v;1;j;v;450.4261999973096
71!3yzh;173;False;2;P = T2?;STb_7;0;Same;None;154;154;154;f;v;0;j;v;572.0230000006268
71!3yzh;174;False;2;P = T2?;ST2_low_5;2;Same;low;96;154;154;f;v;0;j;v;676.0480000084499
71!3yzh;175;False;2;P = T2?;DT2_low_2;2;Different;low;132;82;70;f;v;1;j;v;443.4303000016371
71!3yzh;176;False;2;P = T2?;ST2_high_6;2;Same;high;132;96;96;f;v;1;f;v;489.37139999179635
