p_code;trial_nr;practice;block;question;condition;seqPos;Same_or_Diff;ITS;T1_hz;T2_hz;P_hz;yes_key;sure_key;correct;yes_no;rating;resp_time
907uda#;1;True;1;P != T1?;DT1_high_4;1;Different;high;96;70;112;f;v;1;f;v;6472.160299999814
907uda#;2;True;1;P != T2?;ST1_high_4;1;Same;high;96;70;96;f;v;1;f;v;3897.841099999823
907uda#;3;True;1;P != T1?;ST2_low_1;2;Same;low;82;132;132;f;v;1;f;v;4078.5031999998864
907uda#;4;True;1;P != T1?;STb_4;0;Same;None;96;96;96;f;v;1;j;b;2118.7266000001728
907uda#;5;True;1;P != T2?;ST2_low_1;2;Same;low;82;132;132;f;v;0;f;b;3260.723400000188
907uda#;6;True;1;P != T2?;STb_5;0;Same;None;112;112;112;f;v;1;j;v;2010.2164999998422
907uda#;7;True;1;P != T2?;DT1_high_4;1;Different;high;96;70;112;f;v;1;f;v;930.0874000000476
907uda#;8;True;1;P != T1?;ST1_low_5;1;Same;low;96;154;96;f;v;1;j;v;1526.9663999997647
907uda#;9;True;1;P != T2?;ST1_low_6;1;Same;low;154;96;154;f;v;1;f;v;1513.7298999998166
907uda#;10;True;1;P != T1?;ST2_high_3;2;Same;high;70;96;96;f;v;1;f;v;968.3827000003475
907uda#;11;True;1;P != T2?;STb_6;0;Same;None;132;132;132;f;v;1;j;v;2952.590500000042
907uda#;12;True;1;P != T1?;STb_5;0;Same;None;112;112;112;f;v;1;j;v;1208.0320999998548
907uda#;13;True;1;P != T2?;ST2_high_6;2;Same;high;132;96;96;f;v;0;f;v;993.854199999987
907uda#;14;True;1;P != T2?;DT2_low_3;2;Different;low;70;112;132;f;v;1;f;b;1017.5914999999804
907uda#;15;True;1;P != T1?;DT2_low_6;2;Different;low;154;96;82;f;v;1;f;v;1675.036800000271
907uda#;16;True;1;P != T1?;ST1_high_4;1;Same;high;96;70;96;f;v;0;f;b;1510.133499999938
p_code;trial_nr;practice;block;question;condition;seqPos;Same_or_Diff;ITS;T1_hz;T2_hz;P_hz;yes_key;sure_key;correct;yes_no;rating;resp_time
907uda#;1;False;1;P != T1?;ST2_high_5;2;Same;high;96;132;132;f;v;0;j;b;1632.4313999998594
907uda#;2;False;1;P != T1?;ST2_high_4;2;Same;high;96;70;70;f;v;1;f;v;2128.163400000176
907uda#;3;False;1;P != T1?;ST2_high_2;2;Same;high;112;82;82;f;v;1;f;n;3020.2549000000545
907uda#;4;False;1;P != T1?;ST1_high_2;1;Same;high;112;82;112;f;v;1;j;b;706.2201999997342
907uda#;5;False;1;P != T2?;ST2_low_5;2;Same;low;96;154;154;f;v;1;j;v;1176.263100000142
907uda#;6;False;1;P != T2?;STb_3;0;Same;None;82;82;82;f;v;1;j;v;1231.288399999812
907uda#;7;False;1;P != T2?;ST2_low_6;2;Same;low;154;96;96;f;v;1;j;v;1727.266100000179
907uda#;8;False;1;P != T2?;ST2_high_5;2;Same;high;96;132;132;f;v;1;j;b;1946.0643000002165
907uda#;9;False;1;P != T1?;ST2_high_4;2;Same;high;96;70;70;f;v;1;f;v;1041.2218000001303
907uda#;10;False;1;P != T1?;ST2_high_1;2;Same;high;82;112;112;f;v;1;f;v;1051.7993999997088
907uda#;11;False;1;P != T2?;ST2_low_4;2;Same;low;112;70;70;f;v;1;j;v;1301.0418000003483
907uda#;12;False;1;P != T2?;ST1_high_3;1;Same;high;70;96;70;f;v;1;f;v;4674.4535999996515
907uda#;13;False;1;P != T2?;ST2_high_6;2;Same;high;132;96;96;f;v;1;j;v;993.8474000000497
907uda#;14;False;1;P != T2?;DT1_high_6;1;Different;high;132;96;154;f;v;1;f;v;1974.1791999999805
907uda#;15;False;1;P != T2?;ST2_high_4;2;Same;high;96;70;70;f;v;1;j;v;2045.2956999997696
907uda#;16;False;1;P != T2?;ST2_low_3;2;Same;low;70;112;112;f;v;0;f;v;1594.1671999999016
907uda#;17;False;1;P != T1?;ST1_high_3;1;Same;high;70;96;70;f;v;0;f;b;1340.5230999997002
907uda#;18;False;1;P != T2?;DT1_low_4;1;Different;low;112;70;132;f;v;1;f;v;1923.8343000001805
907uda#;19;False;1;P != T2?;ST1_low_5;1;Same;low;96;154;96;f;v;1;f;v;1530.4540000001907
907uda#;20;False;1;P != T1?;DT2_low_2;2;Different;low;132;82;70;f;v;1;f;b;2070.9403999999267
907uda#;21;False;1;P != T2?;ST2_low_5;2;Same;low;96;154;154;f;v;0;f;v;1448.428199999853
907uda#;22;False;1;P != T2?;ST1_low_6;1;Same;low;154;96;154;f;v;1;f;b;753.2138999999916
907uda#;23;False;1;P != T2?;ST2_high_4;2;Same;high;96;70;70;f;v;1;j;b;1036.1633000002257
907uda#;24;False;1;P != T1?;ST1_low_2;1;Same;low;132;82;132;f;v;0;f;v;1089.4084999999905
907uda#;25;False;1;P != T1?;ST2_low_4;2;Same;low;112;70;70;f;v;1;f;v;1022.4854000002779
907uda#;26;False;1;P != T2?;ST1_high_3;1;Same;high;70;96;70;f;v;1;f;v;1480.8616000000256
907uda#;27;False;1;P != T1?;ST1_low_6;1;Same;low;154;96;154;f;v;1;j;n;1546.4162000002943
907uda#;28;False;1;P != T1?;ST1_high_3;1;Same;high;70;96;70;f;v;1;j;b;1247.4059999999554
907uda#;29;False;1;P != T2?;ST1_high_2;1;Same;high;112;82;112;f;v;1;f;b;1845.0179999999818
907uda#;30;False;1;P != T1?;ST2_low_3;2;Same;low;70;112;112;f;v;1;f;v;1098.5392999996293
907uda#;31;False;1;P != T1?;ST1_high_5;1;Same;high;96;132;96;f;v;0;f;v;2202.244099999916
907uda#;32;False;1;P != T1?;ST2_low_6;2;Same;low;154;96;96;f;v;1;f;v;1318.768799999816
907uda#;33;False;1;P != T1?;ST1_high_1;1;Same;high;82;112;82;f;v;1;j;n;2191.5263999999297
907uda#;34;False;1;P != T2?;ST1_low_6;1;Same;low;154;96;154;f;v;1;f;v;1127.3660000001655
907uda#;35;False;1;P != T1?;STb_3;0;Same;None;82;82;82;f;v;1;j;v;1589.564800000062
907uda#;36;False;1;P != T2?;ST2_low_4;2;Same;low;112;70;70;f;v;1;j;v;1111.8898999998237
907uda#;37;False;1;P != T2?;ST2_low_3;2;Same;low;70;112;112;f;v;1;j;n;5082.397399999991
907uda#;38;False;1;P != T2?;ST1_high_5;1;Same;high;96;132;96;f;v;1;f;v;1110.5007999999543
907uda#;39;False;1;P != T2?;STb_4;0;Same;None;96;96;96;f;v;1;j;v;740.7522999997127
907uda#;40;False;1;P != T1?;ST1_high_6;1;Same;high;132;96;132;f;v;0;f;b;598.4330000001137
907uda#;41;False;1;P != T1?;ST2_high_6;2;Same;high;132;96;96;f;v;0;j;n;1735.305000000153
907uda#;42;False;1;P != T2?;ST2_low_2;2;Same;low;132;82;82;f;v;1;j;b;1466.3264000000709
907uda#;43;False;1;P != T2?;ST1_high_5;1;Same;high;96;132;96;f;v;1;f;v;1455.0829999998314
907uda#;44;False;1;P != T2?;ST1_high_4;1;Same;high;96;70;96;f;v;0;j;v;3127.9395999999906
907uda#;45;False;1;P != T2?;ST2_high_2;2;Same;high;112;82;82;f;v;1;j;v;1254.4308999999885
907uda#;46;False;1;P != T1?;ST1_low_6;1;Same;low;154;96;154;f;v;1;j;n;2648.5264000002644
907uda#;47;False;1;P != T1?;ST2_low_4;2;Same;low;112;70;70;f;v;1;f;v;1981.7024999997557
907uda#;48;False;1;P != T1?;ST1_low_1;1;Same;low;82;132;82;f;v;1;j;v;1275.9416000003512
907uda#;49;False;1;P != T1?;ST2_low_6;2;Same;low;154;96;96;f;v;1;f;v;952.9892000000473
907uda#;50;False;1;P != T1?;DT2_high_3;2;Different;high;70;96;112;f;v;1;f;n;883.2546000003276
907uda#;51;False;1;P != T2?;ST1_low_1;1;Same;low;82;132;82;f;v;1;f;v;849.8073999999178
907uda#;52;False;1;P != T2?;ST2_low_2;2;Same;low;132;82;82;f;v;1;j;v;1528.057600000011
907uda#;53;False;1;P != T2?;DT1_high_2;1;Different;high;112;82;132;f;v;1;f;v;970.202099999824
907uda#;54;False;1;P != T2?;ST2_high_5;2;Same;high;96;132;132;f;v;1;j;v;1014.0019000000393
907uda#;55;False;1;P != T1?;ST1_low_4;1;Same;low;112;70;112;f;v;1;j;n;1013.8093999999
907uda#;56;False;1;P != T2?;ST1_high_6;1;Same;high;132;96;132;f;v;1;f;n;1673.2614000002286
907uda#;57;False;1;P != T1?;ST2_low_1;2;Same;low;82;132;132;f;v;0;j;n;2726.315599999907
907uda#;58;False;1;P != T1?;ST1_high_1;1;Same;high;82;112;82;f;v;1;j;n;1861.8917999997393
907uda#;59;False;1;P != T2?;ST2_high_5;2;Same;high;96;132;132;f;v;1;j;n;1152.1997999998348
907uda#;60;False;1;P != T1?;ST1_low_2;1;Same;low;132;82;132;f;v;1;j;v;1183.0724999999802
907uda#;61;False;1;P != T1?;STb_1;0;Same;None;60;60;60;f;v;1;j;v;1296.751200000017
907uda#;62;False;1;P != T1?;ST1_high_2;1;Same;high;112;82;112;f;v;0;f;n;2944.02510000009
907uda#;63;False;1;P != T2?;ST1_low_3;1;Same;low;70;112;70;f;v;1;f;v;900.0173999997969
907uda#;64;False;1;P != T1?;ST2_low_5;2;Same;low;96;154;154;f;v;0;j;n;2763.145699999768
907uda#;65;False;1;P != T1?;ST1_high_5;1;Same;high;96;132;96;f;v;1;j;n;1066.531599999962
907uda#;66;False;1;P != T2?;ST2_low_2;2;Same;low;132;82;82;f;v;1;j;v;1942.7596000000449
907uda#;67;False;1;P != T1?;STb_6;0;Same;None;132;132;132;f;v;1;j;n;4608.287100000325
907uda#;68;False;1;P != T2?;DT2_high_6;2;Different;high;132;96;82;f;v;1;f;v;1265.7071999997243
907uda#;69;False;1;P != T1?;ST2_low_1;2;Same;low;82;132;132;f;v;1;f;v;848.2905000000756
907uda#;70;False;1;P != T2?;ST1_high_5;1;Same;high;96;132;96;f;v;0;j;v;695.5078999999387
907uda#;71;False;1;P != T1?;DT2_low_4;2;Different;low;112;70;60;f;v;1;f;v;1323.6643999998705
907uda#;72;False;1;P != T1?;DT1_high_4;1;Different;high;96;70;112;f;v;0;j;v;890.7799999997223
907uda#;73;False;1;P != T2?;ST2_high_3;2;Same;high;70;96;96;f;v;1;j;v;2801.984900000207
907uda#;74;False;1;P != T2?;ST1_high_3;1;Same;high;70;96;70;f;v;1;f;v;847.0966999998382
907uda#;75;False;1;P != T2?;DT2_low_2;2;Different;low;132;82;70;f;v;0;j;v;705.5972000002839
907uda#;76;False;1;P != T1?;ST2_low_6;2;Same;low;154;96;96;f;v;0;j;v;747.2338999996282
907uda#;77;False;1;P != T1?;ST2_high_6;2;Same;high;132;96;96;f;v;0;j;v;2287.8391999997802
907uda#;78;False;1;P != T2?;ST1_low_4;1;Same;low;112;70;112;f;v;1;f;v;1158.1200999999055
907uda#;79;False;1;P != T1?;ST1_high_5;1;Same;high;96;132;96;f;v;1;j;v;897.1305000000029
907uda#;80;False;1;P != T1?;STb_7;0;Same;None;154;154;154;f;v;1;j;v;933.0267999998796
907uda#;81;False;1;P != T1?;ST2_low_3;2;Same;low;70;112;112;f;v;1;f;v;1066.268399999899
907uda#;82;False;1;P != T1?;ST1_low_2;1;Same;low;132;82;132;f;v;1;j;v;1277.9309000002286
907uda#;83;False;1;P != T2?;DT2_low_3;2;Different;low;70;112;132;f;v;0;j;v;937.9776999999194
907uda#;84;False;1;P != T2?;ST2_high_3;2;Same;high;70;96;96;f;v;1;j;v;1968.2086000002528
907uda#;85;False;1;P != T1?;STb_8;0;Same;None;180;180;180;f;v;0;f;v;759.2279000000417
907uda#;86;False;1;P != T2?;ST2_high_3;2;Same;high;70;96;96;f;v;0;f;v;907.9607000003307
907uda#;87;False;1;P != T2?;ST1_low_2;1;Same;low;132;82;132;f;v;1;f;v;1196.6631999998754
907uda#;88;False;1;P != T1?;ST1_high_2;1;Same;high;112;82;112;f;v;0;f;n;1619.1719999997076
907uda#;89;False;1;P != T2?;STb_5;0;Same;None;112;112;112;f;v;1;j;n;764.5444000004318
907uda#;90;False;1;P != T2?;ST2_high_6;2;Same;high;132;96;96;f;v;1;j;n;1811.305899999752
907uda#;91;False;1;P != T2?;ST1_high_1;1;Same;high;82;112;82;f;v;1;f;v;1017.1909999999116
907uda#;92;False;1;P != T2?;STb_2;0;Same;None;70;70;70;f;v;1;j;v;1784.6001999996588
907uda#;93;False;1;P != T1?;DT2_low_1;2;Different;low;82;132;154;f;v;1;f;v;1270.3333999997994
907uda#;94;False;1;P != T1?;ST1_low_3;1;Same;low;70;112;70;f;v;1;j;v;1041.4623000001484
907uda#;95;False;1;P != T2?;ST2_low_1;2;Same;low;82;132;132;f;v;0;f;n;2281.7864999997255
907uda#;96;False;1;P != T1?;ST1_low_5;1;Same;low;96;154;96;f;v;1;j;n;1549.1995000002134
907uda#;97;False;1;P != T1?;DT1_low_1;1;Different;low;82;132;70;f;v;1;f;n;3383.4218000001783
907uda#;98;False;1;P != T1?;ST2_low_1;2;Same;low;82;132;132;f;v;1;f;v;2982.0386999999755
907uda#;99;False;1;P != T2?;STb_8;0;Same;None;180;180;180;f;v;0;f;b;1665.0549000000865
907uda#;100;False;1;P != T1?;ST2_high_3;2;Same;high;70;96;96;f;v;0;j;n;2788.1224000002476
907uda#;101;False;1;P != T1?;ST1_low_5;1;Same;low;96;154;96;f;v;0;f;n;1550.865000000158
907uda#;102;False;1;P != T2?;ST2_low_3;2;Same;low;70;112;112;f;v;0;f;b;2115.8590000000004
907uda#;103;False;1;P != T1?;DT1_high_3;1;Different;high;70;96;60;f;v;0;j;n;3338.639999999941
907uda#;104;False;1;P != T1?;ST2_high_1;2;Same;high;82;112;112;f;v;0;j;v;1695.3304999997272
907uda#;105;False;1;P != T2?;ST2_high_1;2;Same;high;82;112;112;f;v;0;f;v;1278.1909999998788
907uda#;106;False;1;P != T2?;ST1_low_6;1;Same;low;154;96;154;f;v;1;f;v;711.152100000163
907uda#;107;False;1;P != T2?;STb_6;0;Same;None;132;132;132;f;v;1;j;v;1090.107900000021
907uda#;108;False;1;P != T2?;ST1_low_1;1;Same;low;82;132;82;f;v;1;f;v;721.3383000002977
907uda#;109;False;1;P != T2?;ST2_high_6;2;Same;high;132;96;96;f;v;0;f;v;4049.3164999998044
907uda#;110;False;1;P != T1?;STb_2;0;Same;None;70;70;70;f;v;1;j;v;854.4025999999576
907uda#;111;False;1;P != T2?;ST1_high_2;1;Same;high;112;82;112;f;v;1;f;v;994.2802000000484
907uda#;112;False;1;P != T2?;DT1_low_3;1;Different;low;70;112;60;f;v;1;f;v;743.1651000001693
907uda#;113;False;1;P != T1?;ST2_high_5;2;Same;high;96;132;132;f;v;1;f;v;773.0893000002652
907uda#;114;False;1;P != T1?;ST2_high_2;2;Same;high;112;82;82;f;v;1;f;n;2453.188599999976
907uda#;115;False;1;P != T2?;ST1_low_3;1;Same;low;70;112;70;f;v;1;f;v;869.5752000003267
907uda#;116;False;1;P != T1?;ST1_low_4;1;Same;low;112;70;112;f;v;1;j;v;915.7816999995703
907uda#;117;False;1;P != T2?;ST2_high_2;2;Same;high;112;82;82;f;v;1;j;v;1095.3131999995094
907uda#;118;False;1;P != T2?;ST2_low_6;2;Same;low;154;96;96;f;v;1;j;v;891.1809999999605
907uda#;119;False;1;P != T2?;ST2_low_5;2;Same;low;96;154;154;f;v;1;j;v;918.7482999996064
907uda#;120;False;1;P != T2?;ST1_low_2;1;Same;low;132;82;132;f;v;1;f;v;2689.4069999998464
907uda#;121;False;1;P != T1?;ST2_low_3;2;Same;low;70;112;112;f;v;1;f;v;1149.4430000002467
907uda#;122;False;1;P != T1?;ST2_high_6;2;Same;high;132;96;96;f;v;0;j;n;2824.0939999996044
907uda#;123;False;1;P != T2?;DT1_low_1;1;Different;low;82;132;70;f;v;1;f;v;700.7527000005211
907uda#;124;False;1;P != T2?;ST2_high_2;2;Same;high;112;82;82;f;v;0;f;v;809.8399000000427
907uda#;125;False;1;P != T2?;ST2_low_1;2;Same;low;82;132;132;f;v;1;j;v;1430.0374999993437
907uda#;126;False;1;P != T1?;ST2_high_2;2;Same;high;112;82;82;f;v;0;j;v;968.7822999994751
907uda#;127;False;1;P != T1?;ST2_low_2;2;Same;low;132;82;82;f;v;1;f;v;957.6059000000896
907uda#;128;False;1;P != T1?;ST1_high_6;1;Same;high;132;96;132;f;v;1;j;v;1487.007700000504
907uda#;129;False;1;P != T1?;ST1_high_6;1;Same;high;132;96;132;f;v;1;j;v;931.557700000667
907uda#;130;False;1;P != T2?;ST1_low_4;1;Same;low;112;70;112;f;v;1;f;v;863.9460000003965
907uda#;131;False;1;P != T2?;ST1_low_2;1;Same;low;132;82;132;f;v;1;f;v;1267.7984000001743
907uda#;132;False;1;P != T2?;ST1_high_4;1;Same;high;96;70;96;f;v;1;f;v;819.7196999999505
907uda#;133;False;1;P != T1?;ST1_low_3;1;Same;low;70;112;70;f;v;1;j;v;1157.006899999942
907uda#;134;False;1;P != T1?;ST2_low_5;2;Same;low;96;154;154;f;v;1;f;v;900.6664999997156
907uda#;135;False;1;P != T2?;ST1_low_5;1;Same;low;96;154;96;f;v;1;f;v;957.6561000003494
907uda#;136;False;1;P != T2?;ST1_high_4;1;Same;high;96;70;96;f;v;1;f;v;3504.9058999993576
907uda#;137;False;1;P != T1?;ST2_low_5;2;Same;low;96;154;154;f;v;1;f;v;797.2795000005135
907uda#;138;False;1;P != T2?;ST2_low_6;2;Same;low;154;96;96;f;v;1;j;v;1858.4704000004422
907uda#;139;False;1;P != T1?;ST2_high_5;2;Same;high;96;132;132;f;v;0;j;n;2729.0693000004467
907uda#;140;False;1;P != T2?;ST1_high_2;1;Same;high;112;82;112;f;v;1;f;n;1154.8901000005571
907uda#;141;False;1;P != T1?;ST1_low_4;1;Same;low;112;70;112;f;v;1;j;n;1059.285300000738
907uda#;142;False;1;P != T1?;ST2_high_3;2;Same;high;70;96;96;f;v;1;f;v;809.5781000001807
907uda#;143;False;1;P != T2?;ST2_high_1;2;Same;high;82;112;112;f;v;0;f;v;1246.6223999999784
907uda#;144;False;1;P != T1?;ST1_high_4;1;Same;high;96;70;96;f;v;1;j;n;5806.9805000004635
907uda#;145;False;1;P != T2?;ST1_high_1;1;Same;high;82;112;82;f;v;1;f;n;3067.7668999996968
907uda#;146;False;1;P != T2?;ST1_high_6;1;Same;high;132;96;132;f;v;1;f;v;707.155000000057
907uda#;147;False;1;P != T1?;ST2_low_2;2;Same;low;132;82;82;f;v;1;f;v;626.643999999942
907uda#;148;False;1;P != T1?;ST1_low_1;1;Same;low;82;132;82;f;v;1;j;n;1775.340099999994
907uda#;149;False;1;P != T2?;ST1_low_5;1;Same;low;96;154;96;f;v;1;f;v;919.7321999999986
907uda#;150;False;1;P != T1?;ST1_high_1;1;Same;high;82;112;82;f;v;1;j;v;908.2073999998101
907uda#;151;False;1;P != T1?;ST1_low_6;1;Same;low;154;96;154;f;v;1;j;n;1723.1203000001187
907uda#;152;False;1;P != T2?;ST1_low_1;1;Same;low;82;132;82;f;v;1;f;v;2018.537599999945
907uda#;153;False;1;P != T1?;ST1_high_4;1;Same;high;96;70;96;f;v;0;f;n;2398.7745000003997
907uda#;154;False;1;P != T1?;ST2_low_2;2;Same;low;132;82;82;f;v;1;f;v;1201.6515999994226
907uda#;155;False;1;P != T1?;ST1_high_3;1;Same;high;70;96;70;f;v;1;j;v;1178.72830000033
907uda#;156;False;1;P != T2?;ST1_low_3;1;Same;low;70;112;70;f;v;1;f;v;1702.100500000597
907uda#;157;False;1;P != T1?;ST1_low_5;1;Same;low;96;154;96;f;v;1;j;v;1178.416799999468
907uda#;158;False;1;P != T1?;STb_4;0;Same;None;96;96;96;f;v;1;j;v;1021.3800000001356
907uda#;159;False;1;P != T2?;STb_7;0;Same;None;154;154;154;f;v;1;j;v;739.7414999995817
907uda#;160;False;1;P != T2?;ST2_low_4;2;Same;low;112;70;70;f;v;1;j;v;2625.6530000000566
907uda#;161;False;1;P != T1?;DT1_high_2;1;Different;high;112;82;132;f;v;0;j;v;996.843799999624
907uda#;162;False;1;P != T2?;ST2_high_1;2;Same;high;82;112;112;f;v;1;j;v;869.0847000007125
907uda#;163;False;1;P != T1?;ST2_high_4;2;Same;high;96;70;70;f;v;1;f;v;771.5142000006381
907uda#;164;False;1;P != T1?;ST2_high_3;2;Same;high;70;96;96;f;v;0;j;n;1354.4670999999653
907uda#;165;False;1;P != T2?;STb_1;0;Same;None;60;60;60;f;v;1;j;v;1549.5170999993206
907uda#;166;False;1;P != T1?;ST1_high_4;1;Same;high;96;70;96;f;v;1;j;n;2712.609799999882
907uda#;167;False;1;P != T1?;ST2_low_4;2;Same;low;112;70;70;f;v;1;f;n;1417.9174999999304
907uda#;168;False;1;P != T2?;ST1_high_6;1;Same;high;132;96;132;f;v;1;f;v;641.7636000005587
907uda#;169;False;1;P != T2?;ST2_high_4;2;Same;high;96;70;70;f;v;1;j;b;1050.2661999998963
907uda#;170;False;1;P != T1?;ST1_low_1;1;Same;low;82;132;82;f;v;0;f;n;2173.5338000007687
907uda#;171;False;1;P != T1?;ST1_low_3;1;Same;low;70;112;70;f;v;1;j;v;1035.8701999994082
907uda#;172;False;1;P != T1?;ST2_high_1;2;Same;high;82;112;112;f;v;1;f;n;3191.5947999996206
907uda#;173;False;1;P != T2?;ST2_low_1;2;Same;low;82;132;132;f;v;0;f;n;2067.064799999571
907uda#;174;False;1;P != T2?;ST1_high_1;1;Same;high;82;112;82;f;v;0;j;n;747.0791999994617
907uda#;175;False;1;P != T1?;STb_5;0;Same;None;112;112;112;f;v;0;f;n;2719.151199999942
907uda#;176;False;1;P != T2?;ST1_low_4;1;Same;low;112;70;112;f;v;1;f;v;551.5402999999424
907uda#;1;True;2;P = T2?;ST1_high_2;1;Same;high;112;82;112;f;v;1;j;v;1879.1105999998763
907uda#;2;True;2;P = T2?;DT1_high_4;1;Different;high;96;70;112;f;v;1;j;v;1128.1920000001264
907uda#;3;True;2;P = T2?;STb_3;0;Same;None;82;82;82;f;v;0;j;v;1348.225900000216
907uda#;4;True;2;P = T1?;STb_8;0;Same;None;180;180;180;f;v;1;f;v;665.0368000000526
907uda#;5;True;2;P = T1?;ST1_high_6;1;Same;high;132;96;132;f;v;1;f;v;742.5059999995938
907uda#;6;True;2;P = T1?;ST1_low_6;1;Same;low;154;96;154;f;v;0;j;v;1183.564099999785
907uda#;7;True;2;P = T2?;STb_2;0;Same;None;70;70;70;f;v;1;f;v;293.337099999917
907uda#;8;True;2;P = T2?;ST2_low_6;2;Same;low;154;96;96;f;v;0;j;v;622.3165000001245
907uda#;9;True;2;P = T1?;ST2_low_5;2;Same;low;96;154;154;f;v;1;j;v;825.2662999993845
907uda#;10;True;2;P = T1?;ST2_low_6;2;Same;low;154;96;96;f;v;1;j;v;810.6479000007312
907uda#;11;True;2;P = T1?;DT2_high_6;2;Different;high;132;96;82;f;v;1;j;v;495.5104000000574
907uda#;12;True;2;P = T2?;ST1_high_4;1;Same;high;96;70;96;f;v;1;j;v;1936.8150000000242
907uda#;13;True;2;P = T1?;DT2_low_6;2;Different;low;154;96;82;f;v;1;j;v;1360.920399999486
907uda#;14;True;2;P = T2?;DT2_low_2;2;Different;low;132;82;70;f;v;0;f;v;517.4998000002233
907uda#;15;True;2;P = T2?;ST2_high_1;2;Same;high;82;112;112;f;v;1;f;v;731.3899999999194
907uda#;16;True;2;P = T1?;STb_5;0;Same;None;112;112;112;f;v;0;j;v;1372.0707000002221
907uda#;1;False;2;P = T2?;ST2_low_2;2;Same;low;132;82;82;f;v;1;f;v;712.6125999993747
907uda#;2;False;2;P = T2?;ST2_low_6;2;Same;low;154;96;96;f;v;0;j;v;1052.6515999999901
907uda#;3;False;2;P = T1?;ST1_high_1;1;Same;high;82;112;82;f;v;1;f;v;766.4310999998634
907uda#;4;False;2;P = T1?;ST2_low_5;2;Same;low;96;154;154;f;v;0;f;n;1814.4154999999955
907uda#;5;False;2;P = T2?;DT2_low_2;2;Different;low;132;82;70;f;v;0;f;n;1384.6364000000904
907uda#;6;False;2;P = T2?;ST2_low_3;2;Same;low;70;112;112;f;v;1;f;v;998.1637000000774
907uda#;7;False;2;P = T1?;ST1_high_4;1;Same;high;96;70;96;f;v;1;f;v;693.7285000003612
907uda#;8;False;2;P = T2?;STb_1;0;Same;None;60;60;60;f;v;1;f;v;342.9135000005772
907uda#;9;False;2;P = T1?;ST1_high_4;1;Same;high;96;70;96;f;v;0;j;v;724.3616000005204
907uda#;10;False;2;P = T2?;ST2_high_1;2;Same;high;82;112;112;f;v;1;f;v;985.564799999338
907uda#;11;False;2;P = T2?;ST2_high_6;2;Same;high;132;96;96;f;v;0;j;v;1361.9941999995717
907uda#;12;False;2;P = T1?;ST2_high_3;2;Same;high;70;96;96;f;v;0;f;v;1149.6807000003173
907uda#;13;False;2;P = T2?;ST1_high_4;1;Same;high;96;70;96;f;v;1;j;v;4546.834300000228
907uda#;14;False;2;P = T1?;ST1_low_6;1;Same;low;154;96;154;f;v;0;j;v;858.1229999999778
907uda#;15;False;2;P = T2?;ST1_low_2;1;Same;low;132;82;132;f;v;1;j;v;1585.9730000001946
907uda#;16;False;2;P = T1?;ST1_high_6;1;Same;high;132;96;132;f;v;1;f;n;1080.1799000000756
907uda#;17;False;2;P = T1?;DT2_high_5;2;Different;high;96;132;154;f;v;1;j;v;1190.2954999995927
907uda#;18;False;2;P = T2?;DT2_high_2;2;Different;high;112;82;70;f;v;1;j;v;1252.0632000005207
907uda#;19;False;2;P = T2?;ST2_low_6;2;Same;low;154;96;96;f;v;1;f;v;513.4636999991926
907uda#;20;False;2;P = T2?;ST1_low_5;1;Same;low;96;154;96;f;v;1;j;v;1094.4360000003144
907uda#;21;False;2;P = T1?;ST1_high_2;1;Same;high;112;82;112;f;v;0;j;b;1834.4974000001457
907uda#;22;False;2;P = T1?;ST1_high_5;1;Same;high;96;132;96;f;v;1;f;b;510.81800000065414
907uda#;23;False;2;P = T2?;ST1_low_2;1;Same;low;132;82;132;f;v;1;j;v;2135.480599999937
907uda#;24;False;2;P = T2?;ST1_low_6;1;Same;low;154;96;154;f;v;1;j;v;926.1059000000387
907uda#;25;False;2;P = T1?;ST1_low_2;1;Same;low;132;82;132;f;v;0;j;v;1122.517699999662
907uda#;26;False;2;P = T1?;ST2_high_2;2;Same;high;112;82;82;f;v;0;f;v;936.2551000003805
907uda#;27;False;2;P = T2?;ST2_high_5;2;Same;high;96;132;132;f;v;0;j;b;727.6664000000892
907uda#;28;False;2;P = T1?;ST1_high_3;1;Same;high;70;96;70;f;v;1;f;v;496.8068999996831
907uda#;29;False;2;P = T1?;STb_5;0;Same;None;112;112;112;f;v;0;j;b;931.6684999994322
907uda#;30;False;2;P = T2?;STb_8;0;Same;None;180;180;180;f;v;1;f;v;678.328899999542
907uda#;31;False;2;P = T2?;STb_2;0;Same;None;70;70;70;f;v;1;f;v;440.6894000003376
907uda#;32;False;2;P = T1?;ST2_high_5;2;Same;high;96;132;132;f;v;1;j;v;915.3477999998358
907uda#;33;False;2;P = T1?;ST2_low_4;2;Same;low;112;70;70;f;v;0;f;b;893.8782999994146
907uda#;34;False;2;P = T1?;ST2_high_3;2;Same;high;70;96;96;f;v;1;j;b;1191.4617000002181
907uda#;35;False;2;P = T1?;ST1_low_3;1;Same;low;70;112;70;f;v;1;f;v;481.934899999942
907uda#;36;False;2;P = T2?;ST1_high_1;1;Same;high;82;112;82;f;v;1;j;b;1646.9881000002715
907uda#;37;False;2;P = T2?;ST1_low_6;1;Same;low;154;96;154;f;v;1;j;v;1161.4158000002135
907uda#;38;False;2;P = T2?;ST2_high_3;2;Same;high;70;96;96;f;v;0;j;v;756.5621000003375
907uda#;39;False;2;P = T2?;DT1_low_6;1;Different;low;154;96;180;f;v;0;f;n;861.2983000002714
907uda#;40;False;2;P = T1?;STb_7;0;Same;None;154;154;154;f;v;1;f;b;472.4740000001475
907uda#;41;False;2;P = T2?;ST1_low_3;1;Same;low;70;112;70;f;v;1;j;v;1034.9560999993628
907uda#;42;False;2;P = T2?;ST2_high_4;2;Same;high;96;70;70;f;v;1;f;v;1251.7072000000553
907uda#;43;False;2;P = T1?;ST1_low_2;1;Same;low;132;82;132;f;v;1;f;v;558.2188999997015
907uda#;44;False;2;P = T1?;ST1_high_1;1;Same;high;82;112;82;f;v;1;f;b;715.8041000002413
907uda#;45;False;2;P = T2?;ST1_high_3;1;Same;high;70;96;70;f;v;1;j;v;1232.4404999999388
907uda#;46;False;2;P = T2?;ST1_low_5;1;Same;low;96;154;96;f;v;1;j;v;5321.32189999993
907uda#;47;False;2;P = T2?;ST2_low_6;2;Same;low;154;96;96;f;v;1;f;v;737.9115000003367
907uda#;48;False;2;P = T1?;ST1_low_6;1;Same;low;154;96;154;f;v;0;j;n;1211.6138999999748
907uda#;49;False;2;P = T2?;DT1_high_1;1;Different;high;82;112;70;f;v;1;j;v;1449.6460000000297
907uda#;50;False;2;P = T2?;ST1_high_2;1;Same;high;112;82;112;f;v;1;j;n;2437.3763000003237
907uda#;51;False;2;P = T1?;DT2_high_1;2;Different;high;82;112;132;f;v;0;f;v;382.20709999950486
907uda#;52;False;2;P = T2?;ST1_high_5;1;Same;high;96;132;96;f;v;1;j;b;807.8655999997864
907uda#;53;False;2;P = T1?;ST1_low_2;1;Same;low;132;82;132;f;v;1;f;b;1254.075599999851
907uda#;54;False;2;P = T2?;ST1_low_3;1;Same;low;70;112;70;f;v;1;j;b;3400.0164000008226
907uda#;55;False;2;P = T2?;ST1_high_1;1;Same;high;82;112;82;f;v;1;j;n;1994.040099999438
907uda#;56;False;2;P = T2?;ST1_low_5;1;Same;low;96;154;96;f;v;1;j;v;880.316099999618
907uda#;57;False;2;P = T2?;ST1_high_6;1;Same;high;132;96;132;f;v;1;j;v;1195.0551999998424
907uda#;58;False;2;P = T2?;ST1_high_1;1;Same;high;82;112;82;f;v;1;j;v;870.0742000000901
907uda#;59;False;2;P = T2?;STb_4;0;Same;None;96;96;96;f;v;1;f;v;649.1458000000421
907uda#;60;False;2;P = T1?;ST1_high_1;1;Same;high;82;112;82;f;v;1;f;v;797.5942999992185
907uda#;61;False;2;P = T2?;ST1_low_3;1;Same;low;70;112;70;f;v;1;j;v;817.3136000004888
907uda#;62;False;2;P = T1?;ST1_low_1;1;Same;low;82;132;82;f;v;1;f;v;540.487000000212
907uda#;63;False;2;P = T1?;ST1_low_4;1;Same;low;112;70;112;f;v;1;f;b;2337.9994000006263
907uda#;64;False;2;P = T2?;ST1_high_5;1;Same;high;96;132;96;f;v;1;j;v;968.6891999999716
907uda#;65;False;2;P = T1?;ST2_low_5;2;Same;low;96;154;154;f;v;1;j;v;817.9331999999704
907uda#;66;False;2;P = T1?;ST2_low_3;2;Same;low;70;112;112;f;v;1;j;v;561.2490999992588
907uda#;67;False;2;P = T1?;ST2_low_4;2;Same;low;112;70;70;f;v;1;j;v;667.8237999994963
907uda#;68;False;2;P = T2?;ST1_low_6;1;Same;low;154;96;154;f;v;1;j;v;1138.8612999999168
907uda#;69;False;2;P = T2?;ST1_low_1;1;Same;low;82;132;82;f;v;1;j;v;1197.9958000001716
907uda#;70;False;2;P = T2?;ST1_low_1;1;Same;low;82;132;82;f;v;1;j;v;855.68560000047
907uda#;71;False;2;P = T1?;STb_3;0;Same;None;82;82;82;f;v;1;f;v;1348.9540999999008
907uda#;72;False;2;P = T2?;ST2_high_5;2;Same;high;96;132;132;f;v;0;j;v;858.2247000003917
907uda#;73;False;2;P = T1?;STb_2;0;Same;None;70;70;70;f;v;1;f;v;1198.3362000000852
907uda#;74;False;2;P = T2?;ST2_low_5;2;Same;low;96;154;154;f;v;1;f;v;579.50400000027
907uda#;75;False;2;P = T1?;ST1_high_5;1;Same;high;96;132;96;f;v;1;f;v;480.36689999935334
907uda#;76;False;2;P = T1?;ST1_high_3;1;Same;high;70;96;70;f;v;1;f;v;664.7057000000132
907uda#;77;False;2;P = T1?;ST1_high_3;1;Same;high;70;96;70;f;v;0;j;b;778.9503000003606
907uda#;78;False;2;P = T2?;ST2_low_2;2;Same;low;132;82;82;f;v;0;j;v;986.4997999993648
907uda#;79;False;2;P = T1?;DT1_high_1;1;Different;high;82;112;70;f;v;1;j;v;766.8916000002355
907uda#;80;False;2;P = T2?;ST2_low_3;2;Same;low;70;112;112;f;v;0;j;v;981.0244999998758
907uda#;81;False;2;P = T2?;ST2_high_6;2;Same;high;132;96;96;f;v;1;f;v;519.8222999997597
907uda#;82;False;2;P = T1?;ST2_high_2;2;Same;high;112;82;82;f;v;0;f;v;1401.8004999998084
907uda#;83;False;2;P = T1?;ST2_low_2;2;Same;low;132;82;82;f;v;1;j;n;1828.2742999999755
907uda#;84;False;2;P = T2?;ST2_low_1;2;Same;low;82;132;132;f;v;0;j;n;1043.2412999998633
907uda#;85;False;2;P = T2?;ST2_high_3;2;Same;high;70;96;96;f;v;1;f;v;807.6006000001144
907uda#;86;False;2;P = T2?;ST2_high_2;2;Same;high;112;82;82;f;v;1;f;v;482.46910000034404
907uda#;87;False;2;P = T2?;ST1_high_3;1;Same;high;70;96;70;f;v;0;f;b;1448.2852000001003
907uda#;88;False;2;P = T2?;ST1_high_4;1;Same;high;96;70;96;f;v;0;f;v;380.09300000067014
907uda#;89;False;2;P = T1?;ST2_high_5;2;Same;high;96;132;132;f;v;1;j;n;1263.7832000000344
907uda#;90;False;2;P = T2?;ST2_low_2;2;Same;low;132;82;82;f;v;0;j;v;806.8303000000014
907uda#;91;False;2;P = T1?;ST1_low_5;1;Same;low;96;154;96;f;v;0;j;n;1204.6575999993365
907uda#;92;False;2;P = T2?;ST1_low_2;1;Same;low;132;82;132;f;v;1;j;n;1030.0356999996438
907uda#;93;False;2;P = T2?;DT2_low_5;2;Different;low;96;154;180;f;v;0;f;v;652.1596000002319
907uda#;94;False;2;P = T1?;ST2_low_4;2;Same;low;112;70;70;f;v;1;j;n;1746.2023999996745
907uda#;95;False;2;P = T1?;ST1_low_3;1;Same;low;70;112;70;f;v;1;f;v;467.0876000000135
907uda#;96;False;2;P = T2?;ST2_high_2;2;Same;high;112;82;82;f;v;1;f;b;890.7074999997349
907uda#;97;False;2;P = T1?;ST2_high_6;2;Same;high;132;96;96;f;v;1;j;n;850.6404999998267
907uda#;98;False;2;P = T2?;DT1_low_5;1;Different;low;96;154;82;f;v;1;j;n;2510.635999999977
907uda#;99;False;2;P = T1?;ST2_high_1;2;Same;high;82;112;112;f;v;1;j;v;800.9541000001263
907uda#;100;False;2;P = T2?;STb_3;0;Same;None;82;82;82;f;v;1;f;b;600.4125999997996
907uda#;101;False;2;P = T2?;ST1_high_2;1;Same;high;112;82;112;f;v;1;j;v;1021.4799999994284
907uda#;102;False;2;P = T1?;ST2_high_2;2;Same;high;112;82;82;f;v;0;f;n;5204.503199999635
907uda#;103;False;2;P = T1?;STb_1;0;Same;None;60;60;60;f;v;1;f;b;574.5444000003772
907uda#;104;False;2;P = T2?;ST2_high_1;2;Same;high;82;112;112;f;v;1;f;v;611.3776000001963
907uda#;105;False;2;P = T2?;ST1_low_1;1;Same;low;82;132;82;f;v;0;f;b;664.5288999998229
907uda#;106;False;2;P = T1?;DT2_high_6;2;Different;high;132;96;82;f;v;1;j;n;764.8428000002241
907uda#;107;False;2;P = T1?;ST2_low_3;2;Same;low;70;112;112;f;v;1;j;b;619.1275999999561
907uda#;108;False;2;P = T1?;DT2_low_4;2;Different;low;112;70;60;f;v;1;j;b;915.3294999996433
907uda#;109;False;2;P = T2?;ST2_low_4;2;Same;low;112;70;70;f;v;0;j;b;1345.1094999991255
907uda#;110;False;2;P = T2?;ST1_low_4;1;Same;low;112;70;112;f;v;1;j;b;848.1375000001208
907uda#;111;False;2;P = T1?;ST2_low_5;2;Same;low;96;154;154;f;v;1;j;b;789.3186000001151
907uda#;112;False;2;P = T1?;ST1_low_1;1;Same;low;82;132;82;f;v;0;j;v;1685.0786999993943
907uda#;113;False;2;P = T2?;ST1_high_6;1;Same;high;132;96;132;f;v;1;j;n;1312.6070999996955
907uda#;114;False;2;P = T2?;DT2_high_5;2;Different;high;96;132;154;f;v;1;j;b;1389.373699999851
907uda#;115;False;2;P = T1?;ST1_low_5;1;Same;low;96;154;96;f;v;1;f;b;558.4210999995776
907uda#;116;False;2;P = T2?;ST1_high_5;1;Same;high;96;132;96;f;v;1;j;b;1037.6390999999785
907uda#;117;False;2;P = T2?;ST1_high_6;1;Same;high;132;96;132;f;v;1;j;b;1410.2639000002455
907uda#;118;False;2;P = T1?;ST1_low_4;1;Same;low;112;70;112;f;v;0;j;n;801.6517999994903
907uda#;119;False;2;P = T1?;ST1_low_6;1;Same;low;154;96;154;f;v;1;f;n;1952.1130000002813
907uda#;120;False;2;P = T1?;ST1_low_1;1;Same;low;82;132;82;f;v;1;f;v;513.1031999999323
907uda#;121;False;2;P = T2?;ST2_high_2;2;Same;high;112;82;82;f;v;1;f;n;891.7971999999281
907uda#;122;False;2;P = T2?;STb_6;0;Same;None;132;132;132;f;v;1;f;v;544.4324000000051
907uda#;123;False;2;P = T1?;STb_6;0;Same;None;132;132;132;f;v;1;f;v;482.67290000057983
907uda#;124;False;2;P = T2?;ST2_high_4;2;Same;high;96;70;70;f;v;1;f;n;1068.2549999992261
907uda#;125;False;2;P = T1?;DT2_low_5;2;Different;low;96;154;180;f;v;1;j;b;1039.2377999996825
907uda#;126;False;2;P = T2?;ST2_low_5;2;Same;low;96;154;154;f;v;0;j;b;1372.5483999996868
907uda#;127;False;2;P = T1?;ST1_high_5;1;Same;high;96;132;96;f;v;1;f;v;974.5118999999249
907uda#;128;False;2;P = T1?;ST2_high_1;2;Same;high;82;112;112;f;v;0;f;v;1373.3480000000782
907uda#;129;False;2;P = T1?;ST1_high_2;1;Same;high;112;82;112;f;v;1;f;v;563.284200000453
907uda#;130;False;2;P = T2?;ST2_low_1;2;Same;low;82;132;132;f;v;1;f;v;547.9311999997662
907uda#;131;False;2;P = T1?;DT2_high_2;2;Different;high;112;82;70;f;v;1;j;v;660.592799999904
907uda#;132;False;2;P = T1?;STb_4;0;Same;None;96;96;96;f;v;1;f;v;527.8329000002486
907uda#;133;False;2;P = T2?;ST2_high_4;2;Same;high;96;70;70;f;v;1;f;v;539.2686999994112
907uda#;134;False;2;P = T1?;ST1_low_4;1;Same;low;112;70;112;f;v;0;j;v;1544.560100000126
907uda#;135;False;2;P = T1?;ST2_high_1;2;Same;high;82;112;112;f;v;0;f;n;963.431799999853
907uda#;136;False;2;P = T2?;ST2_high_5;2;Same;high;96;132;132;f;v;1;f;b;653.8381999998819
907uda#;137;False;2;P = T1?;ST2_low_1;2;Same;low;82;132;132;f;v;1;j;v;855.3491000002396
907uda#;138;False;2;P = T2?;STb_5;0;Same;None;112;112;112;f;v;1;f;v;301.12670000016806
907uda#;139;False;2;P = T2?;ST2_low_4;2;Same;low;112;70;70;f;v;1;f;v;660.88899999977
907uda#;140;False;2;P = T1?;ST2_low_6;2;Same;low;154;96;96;f;v;0;f;n;1287.0953999999983
907uda#;141;False;2;P = T1?;ST2_low_3;2;Same;low;70;112;112;f;v;1;j;n;2112.7153999996153
907uda#;142;False;2;P = T2?;ST1_low_4;1;Same;low;112;70;112;f;v;1;j;v;950.5326999997123
907uda#;143;False;2;P = T1?;ST2_high_4;2;Same;high;96;70;70;f;v;1;j;n;1775.5859999997483
907uda#;144;False;2;P = T2?;ST2_low_1;2;Same;low;82;132;132;f;v;1;f;v;542.5347000000329
907uda#;145;False;2;P = T2?;ST1_low_4;1;Same;low;112;70;112;f;v;1;j;v;875.7492000004277
907uda#;146;False;2;P = T1?;ST1_high_6;1;Same;high;132;96;132;f;v;1;f;n;1287.930100000267
907uda#;147;False;2;P = T2?;ST2_high_3;2;Same;high;70;96;96;f;v;1;f;b;1265.8247999997911
907uda#;148;False;2;P = T1?;ST2_low_1;2;Same;low;82;132;132;f;v;0;f;n;1732.7207999996972
907uda#;149;False;2;P = T1?;ST2_low_2;2;Same;low;132;82;82;f;v;1;j;v;644.6347999999489
907uda#;150;False;2;P = T2?;ST2_high_6;2;Same;high;132;96;96;f;v;0;j;b;1456.7179000005126
907uda#;151;False;2;P = T1?;ST2_low_1;2;Same;low;82;132;132;f;v;1;j;n;1233.6458999998285
907uda#;152;False;2;P = T2?;ST2_low_3;2;Same;low;70;112;112;f;v;1;f;n;1215.6543999999485
907uda#;153;False;2;P = T2?;STb_7;0;Same;None;154;154;154;f;v;1;f;v;442.56399999994755
907uda#;154;False;2;P = T1?;ST2_high_6;2;Same;high;132;96;96;f;v;1;j;v;711.5954999999303
907uda#;155;False;2;P = T2?;ST1_high_4;1;Same;high;96;70;96;f;v;1;j;v;1418.677700000444
907uda#;156;False;2;P = T1?;ST2_high_4;2;Same;high;96;70;70;f;v;1;j;b;691.5120000003299
907uda#;157;False;2;P = T1?;ST1_high_2;1;Same;high;112;82;112;f;v;1;f;n;745.1294000002235
907uda#;158;False;2;P = T1?;ST1_high_4;1;Same;high;96;70;96;f;v;0;j;n;1259.9169000004622
907uda#;159;False;2;P = T1?;ST1_low_5;1;Same;low;96;154;96;f;v;1;f;v;523.118500000237
907uda#;160;False;2;P = T1?;ST2_high_3;2;Same;high;70;96;96;f;v;0;f;v;444.43820000014966
907uda#;161;False;2;P = T1?;ST2_high_6;2;Same;high;132;96;96;f;v;0;f;n;1122.381499999392
907uda#;162;False;2;P = T2?;ST1_high_2;1;Same;high;112;82;112;f;v;1;j;b;866.465000000062
907uda#;163;False;2;P = T1?;ST2_low_6;2;Same;low;154;96;96;f;v;1;j;b;775.4388000003019
907uda#;164;False;2;P = T1?;STb_8;0;Same;None;180;180;180;f;v;1;f;v;337.8348999995069
907uda#;165;False;2;P = T2?;ST1_high_3;1;Same;high;70;96;70;f;v;1;j;b;650.9929999992892
907uda#;166;False;2;P = T1?;ST2_low_2;2;Same;low;132;82;82;f;v;1;j;b;718.2478999993691
907uda#;167;False;2;P = T1?;DT1_low_3;1;Different;low;70;112;60;f;v;0;f;b;755.1135000003342
907uda#;168;False;2;P = T1?;ST1_high_6;1;Same;high;132;96;132;f;v;0;j;n;1221.6455000007045
907uda#;169;False;2;P = T2?;ST2_low_4;2;Same;low;112;70;70;f;v;0;j;b;1280.9102999999595
907uda#;170;False;2;P = T1?;ST2_high_4;2;Same;high;96;70;70;f;v;1;j;b;655.7671000000482
907uda#;171;False;2;P = T2?;DT1_high_3;1;Different;high;70;96;60;f;v;1;j;b;1053.6285999996835
907uda#;172;False;2;P = T1?;ST1_low_3;1;Same;low;70;112;70;f;v;0;j;b;934.1402000000016
907uda#;173;False;2;P = T2?;ST2_low_5;2;Same;low;96;154;154;f;v;1;f;b;1216.0551999995732
907uda#;174;False;2;P = T1?;ST2_high_5;2;Same;high;96;132;132;f;v;1;j;b;884.4460000000254
907uda#;175;False;2;P = T1?;ST2_low_6;2;Same;low;154;96;96;f;v;0;f;n;739.4115000006423
907uda#;176;False;2;P = T2?;ST2_high_1;2;Same;high;82;112;112;f;v;1;f;b;780.1006999998208
