p_code;trial_nr;practice;block;question;condition;seqPos;Same_or_Diff;ITS;T1_hz;T2_hz;P_hz;yes_key;sure_key;correct;yes_no;rating;resp_time
f392!us;1;True;1;P = T2?;STb_3;0;Same;None;82;82;82;j;v;1;j;n;1093.8401999999883
f392!us;2;True;1;P = T1?;ST2_low_5;2;Same;low;96;154;154;j;v;1;f;n;1795.3799000000004
f392!us;3;True;1;P = T2?;ST1_low_2;1;Same;low;132;82;132;j;v;1;f;b;1554.4582999999648
f392!us;4;True;1;P = T2?;STb_6;0;Same;None;132;132;132;j;v;0;f;n;1451.2789999999995
f392!us;5;True;1;P = T1?;ST1_high_6;1;Same;high;132;96;132;j;v;1;j;b;1003.3540000000016
f392!us;6;True;1;P = T2?;ST2_low_6;2;Same;low;154;96;96;j;v;1;j;n;904.6733000000131
f392!us;7;True;1;P = T1?;DT2_high_3;2;Different;high;70;96;112;j;v;0;j;n;1217.3220000000242
f392!us;8;True;1;P = T1?;DT2_low_3;2;Different;low;70;112;132;j;v;1;f;b;1311.915699999986
f392!us;9;True;1;P = T2?;ST1_high_6;1;Same;high;132;96;132;j;v;1;f;n;2087.000899999964
f392!us;10;True;1;P = T1?;STb_6;0;Same;None;132;132;132;j;v;1;j;v;882.6823999999647
f392!us;11;True;1;P = T1?;ST1_low_1;1;Same;low;82;132;82;j;v;1;j;n;1101.408699999979
f392!us;12;True;1;P = T1?;STb_5;0;Same;None;112;112;112;j;v;1;j;n;1713.4781999999973
f392!us;13;True;1;P = T1?;ST2_low_4;2;Same;low;112;70;70;j;v;1;f;b;1153.2785999999646
f392!us;14;True;1;P = T2?;ST2_low_6;2;Same;low;154;96;96;j;v;1;j;b;1042.0503999999937
f392!us;15;True;1;P = T2?;DT1_low_6;1;Different;low;154;96;180;j;v;1;f;b;1789.7920999999997
f392!us;16;True;1;P = T2?;DT2_low_6;2;Different;low;154;96;82;j;v;0;j;b;936.5278999999873
p_code;trial_nr;practice;block;question;condition;seqPos;Same_or_Diff;ITS;T1_hz;T2_hz;P_hz;yes_key;sure_key;correct;yes_no;rating;resp_time
f392!us;1;False;1;P = T1?;ST2_low_2;2;Same;low;132;82;82;j;v;1;f;v;929.6906999999806
f392!us;2;False;1;P = T1?;STb_2;0;Same;None;70;70;70;j;v;1;j;b;1303.2638000000247
f392!us;3;False;1;P = T2?;ST2_low_5;2;Same;low;96;154;154;j;v;1;j;b;1016.0582999999974
f392!us;4;False;1;P = T1?;ST2_low_2;2;Same;low;132;82;82;j;v;1;f;b;1119.7717000000011
f392!us;5;False;1;P = T1?;ST1_low_3;1;Same;low;70;112;70;j;v;1;j;v;964.4430999999827
f392!us;6;False;1;P = T1?;STb_7;0;Same;None;154;154;154;j;v;1;j;b;1147.9950000000372
f392!us;7;False;1;P = T1?;ST1_high_3;1;Same;high;70;96;70;j;v;0;f;n;2240.6771999999364
f392!us;8;False;1;P = T2?;ST2_high_5;2;Same;high;96;132;132;j;v;1;j;b;1227.1917000000485
f392!us;9;False;1;P = T2?;STb_8;0;Same;None;180;180;180;j;v;1;j;b;806.2686999999187
f392!us;10;False;1;P = T1?;ST1_high_4;1;Same;high;96;70;96;j;v;0;f;n;1483.9335000000347
f392!us;11;False;1;P = T2?;DT2_low_5;2;Different;low;96;154;180;j;v;0;j;b;2277.3905999999897
f392!us;12;False;1;P = T2?;ST1_high_5;1;Same;high;96;132;96;j;v;1;f;n;1330.563100000063
f392!us;13;False;1;P = T2?;ST2_high_5;2;Same;high;96;132;132;j;v;1;j;b;900.9459000000106
f392!us;14;False;1;P = T1?;ST1_low_1;1;Same;low;82;132;82;j;v;1;j;n;1027.6561999999103
f392!us;15;False;1;P = T2?;ST2_low_4;2;Same;low;112;70;70;j;v;1;j;b;924.7471999999561
f392!us;16;False;1;P = T1?;ST2_high_1;2;Same;high;82;112;112;j;v;1;f;n;1538.737400000059
f392!us;17;False;1;P = T1?;DT2_low_3;2;Different;low;70;112;132;j;v;1;f;n;1217.194999999947
f392!us;18;False;1;P = T1?;DT1_low_2;1;Different;low;132;82;154;j;v;0;j;b;901.9990000000462
f392!us;19;False;1;P = T1?;ST2_high_6;2;Same;high;132;96;96;j;v;1;f;n;1176.128399999925
f392!us;20;False;1;P = T2?;STb_1;0;Same;None;60;60;60;j;v;1;j;v;762.050600000066
f392!us;21;False;1;P = T2?;ST2_low_2;2;Same;low;132;82;82;j;v;1;j;v;1280.7864999999765
f392!us;22;False;1;P = T1?;ST2_low_3;2;Same;low;70;112;112;j;v;1;f;b;1344.227700000033
f392!us;23;False;1;P = T1?;ST1_low_2;1;Same;low;132;82;132;j;v;1;j;b;1201.775899999916
f392!us;24;False;1;P = T1?;ST2_low_1;2;Same;low;82;132;132;j;v;1;f;v;1006.9371999999248
f392!us;25;False;1;P = T2?;DT2_high_1;2;Different;high;82;112;132;j;v;0;j;b;999.970400000052
f392!us;26;False;1;P = T1?;ST2_high_2;2;Same;high;112;82;82;j;v;1;f;n;1174.2718000000423
f392!us;27;False;1;P = T2?;ST1_low_1;1;Same;low;82;132;82;j;v;1;f;b;1410.073699999998
f392!us;28;False;1;P = T2?;ST2_low_5;2;Same;low;96;154;154;j;v;1;j;v;1110.9833000000435
f392!us;29;False;1;P = T1?;ST1_high_1;1;Same;high;82;112;82;j;v;1;j;b;1122.8209000000788
f392!us;30;False;1;P = T2?;ST1_low_3;1;Same;low;70;112;70;j;v;1;f;n;2626.290700000027
f392!us;31;False;1;P = T1?;ST1_high_6;1;Same;high;132;96;132;j;v;0;f;n;3406.6702000000078
f392!us;32;False;1;P = T2?;ST1_low_4;1;Same;low;112;70;112;j;v;1;f;b;1131.6278999998985
f392!us;33;False;1;P = T2?;ST2_low_2;2;Same;low;132;82;82;j;v;1;j;b;1714.2817999999806
f392!us;34;False;1;P = T1?;ST2_low_3;2;Same;low;70;112;112;j;v;1;f;n;1297.1110000000863
f392!us;35;False;1;P = T1?;ST2_low_6;2;Same;low;154;96;96;j;v;0;j;b;1652.509699999996
f392!us;36;False;1;P = T2?;ST1_high_5;1;Same;high;96;132;96;j;v;0;j;b;1996.0485999999946
f392!us;37;False;1;P = T2?;ST1_low_2;1;Same;low;132;82;132;j;v;1;f;b;1062.8126000000293
f392!us;38;False;1;P = T1?;ST1_low_1;1;Same;low;82;132;82;j;v;1;j;b;1007.2099000000208
f392!us;39;False;1;P = T2?;ST1_low_5;1;Same;low;96;154;96;j;v;1;f;n;1370.0426000000334
f392!us;40;False;1;P = T2?;ST2_high_6;2;Same;high;132;96;96;j;v;1;j;b;989.8685999999088
f392!us;41;False;1;P = T1?;ST1_high_5;1;Same;high;96;132;96;j;v;0;f;n;2126.1226000000306
f392!us;42;False;1;P = T1?;ST2_low_4;2;Same;low;112;70;70;j;v;0;j;n;3123.4519999999293
f392!us;43;False;1;P = T1?;STb_5;0;Same;None;112;112;112;j;v;1;j;b;1316.030699999942
f392!us;44;False;1;P = T2?;ST1_low_5;1;Same;low;96;154;96;j;v;1;f;n;1989.2193999999108
f392!us;45;False;1;P = T2?;ST2_high_5;2;Same;high;96;132;132;j;v;1;j;b;1170.1557000000093
f392!us;46;False;1;P = T1?;ST1_high_2;1;Same;high;112;82;112;j;v;0;f;n;1215.9338000000162
f392!us;47;False;1;P = T1?;ST1_high_4;1;Same;high;96;70;96;j;v;0;f;n;1209.9911999999904
f392!us;48;False;1;P = T1?;ST2_high_3;2;Same;high;70;96;96;j;v;0;j;v;887.8817999999455
f392!us;49;False;1;P = T1?;DT2_low_1;2;Different;low;82;132;154;j;v;1;f;n;1401.7781000000014
f392!us;50;False;1;P = T1?;ST2_low_1;2;Same;low;82;132;132;j;v;1;f;b;1005.2961000000096
f392!us;51;False;1;P = T2?;ST2_high_2;2;Same;high;112;82;82;j;v;1;j;v;1915.6127999999626
f392!us;52;False;1;P = T2?;ST1_low_1;1;Same;low;82;132;82;j;v;1;f;b;1388.9463000000433
f392!us;53;False;1;P = T2?;ST2_low_2;2;Same;low;132;82;82;j;v;1;j;b;1486.4843000000292
f392!us;54;False;1;P = T1?;ST1_low_4;1;Same;low;112;70;112;j;v;0;f;n;1662.9762999999684
f392!us;55;False;1;P = T2?;ST2_low_3;2;Same;low;70;112;112;j;v;1;j;b;1372.0251000000871
f392!us;56;False;1;P = T2?;ST2_low_6;2;Same;low;154;96;96;j;v;1;j;b;1177.4434999999812
f392!us;57;False;1;P = T1?;ST1_high_4;1;Same;high;96;70;96;j;v;0;f;n;1684.9733999999899
f392!us;58;False;1;P = T2?;STb_6;0;Same;None;132;132;132;j;v;1;j;v;953.987199999915
f392!us;59;False;1;P = T1?;ST1_high_6;1;Same;high;132;96;132;j;v;1;j;b;952.475800000002
f392!us;60;False;1;P = T1?;DT1_high_3;1;Different;high;70;96;60;j;v;0;j;n;910.7625999999982
f392!us;61;False;1;P = T2?;ST2_low_6;2;Same;low;154;96;96;j;v;1;j;b;1089.5651999999245
f392!us;62;False;1;P = T2?;ST2_low_6;2;Same;low;154;96;96;j;v;1;j;b;900.6094000000076
f392!us;63;False;1;P = T2?;STb_3;0;Same;None;82;82;82;j;v;1;j;b;1096.8557999999575
f392!us;64;False;1;P = T1?;ST2_low_5;2;Same;low;96;154;154;j;v;1;f;b;1155.532199999925
f392!us;65;False;1;P = T2?;ST1_low_3;1;Same;low;70;112;70;j;v;1;f;n;3066.6003999999703
f392!us;66;False;1;P = T2?;ST1_high_2;1;Same;high;112;82;112;j;v;0;j;b;856.5650999998979
f392!us;67;False;1;P = T2?;ST1_high_1;1;Same;high;82;112;82;j;v;0;j;b;951.9107999999505
f392!us;68;False;1;P = T2?;ST1_high_3;1;Same;high;70;96;70;j;v;0;j;b;839.8317999999563
f392!us;69;False;1;P = T2?;ST2_high_3;2;Same;high;70;96;96;j;v;1;j;b;959.8313999999846
f392!us;70;False;1;P = T2?;ST1_low_6;1;Same;low;154;96;154;j;v;0;j;n;3175.1408000000083
f392!us;71;False;1;P = T2?;ST1_low_3;1;Same;low;70;112;70;j;v;1;f;n;1196.9540000000052
f392!us;72;False;1;P = T2?;ST1_low_6;1;Same;low;154;96;154;j;v;1;f;b;1051.8988000001173
f392!us;73;False;1;P = T2?;ST2_high_4;2;Same;high;96;70;70;j;v;1;j;v;938.7076000000434
f392!us;74;False;1;P = T1?;ST2_high_5;2;Same;high;96;132;132;j;v;1;f;n;1379.1309000000638
f392!us;75;False;1;P = T1?;ST2_high_3;2;Same;high;70;96;96;j;v;0;j;b;950.2085000001443
f392!us;76;False;1;P = T2?;ST2_low_5;2;Same;low;96;154;154;j;v;1;j;b;791.101099999878
f392!us;77;False;1;P = T2?;ST1_high_4;1;Same;high;96;70;96;j;v;0;j;b;896.1062000000766
f392!us;78;False;1;P = T1?;ST1_low_5;1;Same;low;96;154;96;j;v;1;j;n;940.0849999999537
f392!us;79;False;1;P = T1?;ST2_low_5;2;Same;low;96;154;154;j;v;0;j;n;1261.7486999999983
f392!us;80;False;1;P = T2?;DT1_high_1;1;Different;high;82;112;70;j;v;1;f;n;1286.3489999999729
f392!us;81;False;1;P = T2?;ST1_high_3;1;Same;high;70;96;70;j;v;0;j;b;908.0966000001354
f392!us;82;False;1;P = T1?;STb_6;0;Same;None;132;132;132;j;v;1;j;b;827.1349000001464
f392!us;83;False;1;P = T1?;ST1_high_5;1;Same;high;96;132;96;j;v;1;j;n;939.2116000001351
f392!us;84;False;1;P = T1?;STb_3;0;Same;None;82;82;82;j;v;1;j;b;809.7152000000278
f392!us;85;False;1;P = T1?;ST2_high_3;2;Same;high;70;96;96;j;v;0;j;b;796.1497999999665
f392!us;86;False;1;P = T2?;ST1_high_6;1;Same;high;132;96;132;j;v;0;j;b;906.1931999999615
f392!us;87;False;1;P = T2?;DT2_low_4;2;Different;low;112;70;60;j;v;0;j;n;961.2876999999571
f392!us;88;False;1;P = T2?;ST1_high_3;1;Same;high;70;96;70;j;v;1;f;b;1497.0111000000088
f392!us;89;False;1;P = T2?;ST2_high_4;2;Same;high;96;70;70;j;v;1;j;b;1250.2447999997912
f392!us;90;False;1;P = T2?;ST2_high_1;2;Same;high;82;112;112;j;v;1;j;b;943.3109000001423
f392!us;91;False;1;P = T2?;DT1_low_5;1;Different;low;96;154;82;j;v;1;f;b;1160.4433999998491
f392!us;92;False;1;P = T2?;ST1_high_1;1;Same;high;82;112;82;j;v;0;j;n;1370.2139999998053
f392!us;93;False;1;P = T1?;ST2_low_4;2;Same;low;112;70;70;j;v;1;f;n;2541.975000000093
f392!us;94;False;1;P = T1?;ST1_high_1;1;Same;high;82;112;82;j;v;1;j;n;1205.6680999999116
f392!us;95;False;1;P = T1?;ST2_low_6;2;Same;low;154;96;96;j;v;1;f;b;1016.5320000000975
f392!us;96;False;1;P = T2?;ST1_high_2;1;Same;high;112;82;112;j;v;0;j;n;761.0561999999845
f392!us;97;False;1;P = T1?;ST2_high_1;2;Same;high;82;112;112;j;v;0;j;n;1676.1917999999696
f392!us;98;False;1;P = T1?;DT2_low_5;2;Different;low;96;154;180;j;v;1;f;b;1074.110699999892
f392!us;99;False;1;P = T2?;ST1_low_5;1;Same;low;96;154;96;j;v;1;f;b;1209.4563000000562
f392!us;100;False;1;P = T2?;ST2_low_1;2;Same;low;82;132;132;j;v;1;j;n;914.202400000022
f392!us;101;False;1;P = T2?;ST2_high_2;2;Same;high;112;82;82;j;v;1;j;b;1280.4272000000765
f392!us;102;False;1;P = T1?;ST2_high_6;2;Same;high;132;96;96;j;v;1;f;n;1180.1060000000234
f392!us;103;False;1;P = T1?;ST1_low_4;1;Same;low;112;70;112;j;v;1;j;b;968.0331000001843
f392!us;104;False;1;P = T2?;ST2_high_1;2;Same;high;82;112;112;j;v;1;j;n;902.9562000000624
f392!us;105;False;1;P = T1?;DT1_high_2;1;Different;high;112;82;132;j;v;0;j;b;909.0965000000324
f392!us;106;False;1;P = T1?;STb_8;0;Same;None;180;180;180;j;v;1;j;b;990.8131999998204
f392!us;107;False;1;P = T1?;ST1_low_3;1;Same;low;70;112;70;j;v;1;j;b;851.4926000000287
f392!us;108;False;1;P = T2?;ST2_high_3;2;Same;high;70;96;96;j;v;1;j;n;1059.7964999999476
f392!us;109;False;1;P = T1?;ST2_high_1;2;Same;high;82;112;112;j;v;1;f;n;1662.4596999999994
f392!us;110;False;1;P = T1?;ST1_low_6;1;Same;low;154;96;154;j;v;1;j;n;4539.625600000136
f392!us;111;False;1;P = T2?;ST1_high_4;1;Same;high;96;70;96;j;v;0;j;b;887.3349000000417
f392!us;112;False;1;P = T2?;ST2_low_3;2;Same;low;70;112;112;j;v;1;j;b;883.0614000000878
f392!us;113;False;1;P = T2?;ST2_low_4;2;Same;low;112;70;70;j;v;1;j;v;985.7383000000937
f392!us;114;False;1;P = T1?;ST2_low_4;2;Same;low;112;70;70;j;v;1;f;n;2422.2072000000026
f392!us;115;False;1;P = T2?;ST1_low_6;1;Same;low;154;96;154;j;v;0;j;n;1900.0135999999657
f392!us;116;False;1;P = T1?;STb_4;0;Same;None;96;96;96;j;v;1;j;v;855.1763000000392
f392!us;117;False;1;P = T1?;ST2_low_6;2;Same;low;154;96;96;j;v;0;j;v;921.6946999999891
f392!us;118;False;1;P = T1?;DT1_high_6;1;Different;high;132;96;154;j;v;0;j;n;936.2356000001455
f392!us;119;False;1;P = T2?;STb_2;0;Same;None;70;70;70;j;v;0;f;n;3159.8599000001286
f392!us;120;False;1;P = T1?;ST2_low_1;2;Same;low;82;132;132;j;v;1;f;n;1809.922400000005
f392!us;121;False;1;P = T1?;ST1_low_5;1;Same;low;96;154;96;j;v;0;f;n;1912.1895000000677
f392!us;122;False;1;P = T1?;ST1_low_6;1;Same;low;154;96;154;j;v;1;j;b;1037.4546999998984
f392!us;123;False;1;P = T2?;DT2_high_6;2;Different;high;132;96;82;j;v;0;j;b;914.8740999999063
f392!us;124;False;1;P = T1?;ST2_high_6;2;Same;high;132;96;96;j;v;0;j;b;960.1040000000012
f392!us;125;False;1;P = T2?;DT1_high_3;1;Different;high;70;96;60;j;v;1;f;n;1415.0919000001068
f392!us;126;False;1;P = T2?;ST1_low_2;1;Same;low;132;82;132;j;v;1;f;b;1430.136100000027
f392!us;127;False;1;P = T2?;STb_7;0;Same;None;154;154;154;j;v;1;j;n;948.141699999951
f392!us;128;False;1;P = T2?;ST2_high_6;2;Same;high;132;96;96;j;v;1;j;b;907.5587000002088
f392!us;129;False;1;P = T2?;ST2_high_1;2;Same;high;82;112;112;j;v;1;j;b;834.3308000000889
f392!us;130;False;1;P = T2?;ST1_high_6;1;Same;high;132;96;132;j;v;0;j;n;1123.8614999999754
f392!us;131;False;1;P = T1?;ST2_high_4;2;Same;high;96;70;70;j;v;0;j;n;935.419599999932
f392!us;132;False;1;P = T1?;ST2_high_4;2;Same;high;96;70;70;j;v;1;f;b;1983.06249999996
f392!us;133;False;1;P = T2?;STb_4;0;Same;None;96;96;96;j;v;1;j;v;845.6105000000207
f392!us;134;False;1;P = T1?;STb_1;0;Same;None;60;60;60;j;v;1;j;b;881.7298999999821
f392!us;135;False;1;P = T1?;ST1_low_2;1;Same;low;132;82;132;j;v;1;j;b;948.7417999998797
f392!us;136;False;1;P = T2?;ST1_low_4;1;Same;low;112;70;112;j;v;0;j;n;932.6302999998006
f392!us;137;False;1;P = T1?;ST1_high_6;1;Same;high;132;96;132;j;v;0;f;n;1376.6132999999172
f392!us;138;False;1;P = T2?;ST2_high_3;2;Same;high;70;96;96;j;v;1;j;n;1155.83810000021
f392!us;139;False;1;P = T2?;DT2_high_5;2;Different;high;96;132;154;j;v;1;f;n;1452.0780000000286
f392!us;140;False;1;P = T1?;ST2_high_5;2;Same;high;96;132;132;j;v;0;j;b;894.9106000000029
f392!us;141;False;1;P = T2?;ST1_low_1;1;Same;low;82;132;82;j;v;1;f;n;1524.9235000001136
f392!us;142;False;1;P = T1?;ST2_low_5;2;Same;low;96;154;154;j;v;0;j;b;1309.7741000001406
f392!us;143;False;1;P = T2?;ST2_low_4;2;Same;low;112;70;70;j;v;1;j;n;1039.4865000000664
f392!us;144;False;1;P = T1?;ST1_high_3;1;Same;high;70;96;70;j;v;1;j;b;1391.2889000000632
f392!us;145;False;1;P = T2?;ST1_low_4;1;Same;low;112;70;112;j;v;0;j;n;988.3757999998579
f392!us;146;False;1;P = T1?;ST2_high_2;2;Same;high;112;82;82;j;v;1;f;n;1207.6042999999572
f392!us;147;False;1;P = T1?;ST1_high_5;1;Same;high;96;132;96;j;v;0;f;n;1446.7638000000989
f392!us;148;False;1;P = T1?;ST1_low_6;1;Same;low;154;96;154;j;v;1;j;b;789.7427000000334
f392!us;149;False;1;P = T2?;ST1_high_4;1;Same;high;96;70;96;j;v;0;j;b;949.6480999998766
f392!us;150;False;1;P = T1?;ST2_high_2;2;Same;high;112;82;82;j;v;0;j;n;1074.5221999998193
f392!us;151;False;1;P = T2?;ST2_high_6;2;Same;high;132;96;96;j;v;1;j;b;1013.3694999999534
f392!us;152;False;1;P = T2?;ST2_high_4;2;Same;high;96;70;70;j;v;1;j;b;1106.9940000002134
f392!us;153;False;1;P = T1?;DT1_high_1;1;Different;high;82;112;70;j;v;0;j;n;1113.0855999999767
f392!us;154;False;1;P = T1?;ST1_low_5;1;Same;low;96;154;96;j;v;1;j;n;1102.2789000001012
f392!us;155;False;1;P = T1?;ST1_low_1;1;Same;low;82;132;82;j;v;1;j;b;887.9084999998668
f392!us;156;False;1;P = T2?;ST1_high_1;1;Same;high;82;112;82;j;v;1;f;n;2149.124699999902
f392!us;157;False;1;P = T1?;ST1_high_2;1;Same;high;112;82;112;j;v;1;j;n;837.6992999999402
f392!us;158;False;1;P = T1?;ST2_high_5;2;Same;high;96;132;132;j;v;0;j;n;1986.1680000001343
f392!us;159;False;1;P = T1?;ST1_low_4;1;Same;low;112;70;112;j;v;1;j;b;999.7932000001128
f392!us;160;False;1;P = T2?;ST2_low_3;2;Same;low;70;112;112;j;v;0;f;n;1561.9704000000638
f392!us;161;False;1;P = T2?;STb_5;0;Same;None;112;112;112;j;v;1;j;n;1432.661199999984
f392!us;162;False;1;P = T1?;ST2_high_4;2;Same;high;96;70;70;j;v;1;f;n;1337.8147999999328
f392!us;163;False;1;P = T2?;ST2_low_1;2;Same;low;82;132;132;j;v;1;j;b;939.4172999998318
f392!us;164;False;1;P = T2?;ST1_low_2;1;Same;low;132;82;132;j;v;1;f;b;1130.8202999998684
f392!us;165;False;1;P = T2?;ST1_high_2;1;Same;high;112;82;112;j;v;1;f;n;2291.2838999998257
f392!us;166;False;1;P = T1?;ST1_high_1;1;Same;high;82;112;82;j;v;1;j;b;916.195099999868
f392!us;167;False;1;P = T1?;ST2_low_3;2;Same;low;70;112;112;j;v;0;j;n;1741.1587999999938
f392!us;168;False;1;P = T1?;ST1_high_2;1;Same;high;112;82;112;j;v;1;j;b;831.8457000000308
f392!us;169;False;1;P = T2?;ST1_high_6;1;Same;high;132;96;132;j;v;0;j;b;1090.2295999999296
f392!us;170;False;1;P = T1?;ST1_low_2;1;Same;low;132;82;132;j;v;1;j;v;771.0998000000018
f392!us;171;False;1;P = T2?;ST1_high_5;1;Same;high;96;132;96;j;v;1;f;n;1393.513299999995
f392!us;172;False;1;P = T1?;ST1_low_3;1;Same;low;70;112;70;j;v;1;j;n;934.8832999999104
f392!us;173;False;1;P = T1?;ST2_low_2;2;Same;low;132;82;82;j;v;1;f;n;1581.6243000001577
f392!us;174;False;1;P = T2?;ST2_high_2;2;Same;high;112;82;82;j;v;1;j;n;1144.9840000000222
f392!us;175;False;1;P = T1?;ST1_high_3;1;Same;high;70;96;70;j;v;1;j;v;960.4417999998986
f392!us;176;False;1;P = T2?;ST2_low_1;2;Same;low;82;132;132;j;v;1;j;b;956.2180999998873
f392!us;1;True;2;P != T1?;STb_5;0;Same;None;112;112;112;j;v;1;f;v;1530.0810000001093
f392!us;2;True;2;P != T2?;DT2_low_1;2;Different;low;82;132;154;j;v;0;f;n;1802.152599999772
f392!us;3;True;2;P != T1?;ST1_high_3;1;Same;high;70;96;70;j;v;1;f;b;1674.841000000015
f392!us;4;True;2;P != T2?;ST2_low_2;2;Same;low;132;82;82;j;v;1;f;n;2623.161600000003
f392!us;5;True;2;P != T1?;DT2_low_6;2;Different;low;154;96;82;j;v;1;j;b;2201.475500000015
f392!us;6;True;2;P != T1?;ST2_high_6;2;Same;high;132;96;96;j;v;1;j;b;1984.793499999796
f392!us;7;True;2;P != T1?;STb_2;0;Same;None;70;70;70;j;v;0;j;n;3498.1222999999773
f392!us;8;True;2;P != T2?;STb_3;0;Same;None;82;82;82;j;v;1;f;b;942.6904000001741
f392!us;9;True;2;P != T1?;ST2_low_6;2;Same;low;154;96;96;j;v;1;j;b;1240.7631999999467
f392!us;10;True;2;P != T1?;ST1_low_6;1;Same;low;154;96;154;j;v;1;f;n;1980.7463000001917
f392!us;11;True;2;P != T2?;DT1_low_3;1;Different;low;70;112;60;j;v;1;j;n;2874.4940000001407
f392!us;12;True;2;P != T2?;ST1_high_6;1;Same;high;132;96;132;j;v;1;j;n;1063.5772999999062
f392!us;13;True;2;P != T1?;DT1_low_5;1;Different;low;96;154;82;j;v;0;f;b;1088.4807000002183
f392!us;14;True;2;P != T2?;STb_2;0;Same;None;70;70;70;j;v;1;f;b;2510.2592999996887
f392!us;15;True;2;P != T2?;ST1_high_2;1;Same;high;112;82;112;j;v;0;f;n;1896.7854000002262
f392!us;16;True;2;P != T2?;ST2_high_2;2;Same;high;112;82;82;j;v;1;f;n;1163.1821000000855
f392!us;1;False;2;P != T2?;ST1_high_2;1;Same;high;112;82;112;j;v;0;f;b;979.5653000001039
f392!us;2;False;2;P != T1?;ST2_high_6;2;Same;high;132;96;96;j;v;1;j;n;1201.8513999996685
f392!us;3;False;2;P != T2?;ST2_low_2;2;Same;low;132;82;82;j;v;1;f;v;1276.9561000000067
f392!us;4;False;2;P != T1?;ST1_high_3;1;Same;high;70;96;70;j;v;1;f;b;1468.2388999999603
f392!us;5;False;2;P != T2?;ST1_high_1;1;Same;high;82;112;82;j;v;1;j;n;2641.7688000001363
f392!us;6;False;2;P != T2?;ST1_low_6;1;Same;low;154;96;154;j;v;1;j;b;1289.3733000000793
f392!us;7;False;2;P != T2?;ST2_low_1;2;Same;low;82;132;132;j;v;1;f;n;6022.0767999999225
f392!us;8;False;2;P != T2?;ST1_low_5;1;Same;low;96;154;96;j;v;0;f;n;1577.7826000003188
f392!us;9;False;2;P != T2?;ST2_high_5;2;Same;high;96;132;132;j;v;1;f;b;1455.5557000003319
f392!us;10;False;2;P != T1?;ST2_low_2;2;Same;low;132;82;82;j;v;0;f;n;2323.1501000000208
f392!us;11;False;2;P != T1?;STb_7;0;Same;None;154;154;154;j;v;1;f;n;2081.582199999957
f392!us;12;False;2;P != T1?;ST1_high_5;1;Same;high;96;132;96;j;v;1;f;b;1671.7516999997315
f392!us;13;False;2;P != T2?;ST2_high_5;2;Same;high;96;132;132;j;v;1;f;b;1524.4035999999141
f392!us;14;False;2;P != T2?;ST2_low_1;2;Same;low;82;132;132;j;v;1;f;v;1470.4529000000548
f392!us;15;False;2;P != T1?;ST2_high_3;2;Same;high;70;96;96;j;v;1;j;n;2256.0631999999714
f392!us;16;False;2;P != T2?;ST2_low_2;2;Same;low;132;82;82;j;v;1;f;b;1440.6920999999784
f392!us;17;False;2;P != T1?;ST1_high_6;1;Same;high;132;96;132;j;v;1;f;n;3488.9780000003157
f392!us;18;False;2;P != T1?;ST2_low_4;2;Same;low;112;70;70;j;v;1;j;b;1151.553800000329
f392!us;19;False;2;P != T1?;ST1_low_4;1;Same;low;112;70;112;j;v;0;j;n;3168.462399999953
f392!us;20;False;2;P != T1?;ST2_low_2;2;Same;low;132;82;82;j;v;1;j;b;2067.742400000043
f392!us;21;False;2;P != T1?;ST2_high_4;2;Same;high;96;70;70;j;v;1;j;n;1807.3057999999946
f392!us;22;False;2;P != T1?;STb_4;0;Same;None;96;96;96;j;v;1;f;b;2050.2293999998074
f392!us;23;False;2;P != T1?;ST2_high_2;2;Same;high;112;82;82;j;v;0;f;n;1618.8781999999264
f392!us;24;False;2;P != T2?;ST1_low_4;1;Same;low;112;70;112;j;v;0;f;b;1072.7394000000459
f392!us;25;False;2;P != T2?;ST1_low_6;1;Same;low;154;96;154;j;v;1;j;b;1545.3041999999186
f392!us;26;False;2;P != T1?;ST2_low_4;2;Same;low;112;70;70;j;v;1;j;n;1829.3196999998145
f392!us;27;False;2;P != T2?;STb_4;0;Same;None;96;96;96;j;v;1;f;b;1296.448699999928
f392!us;28;False;2;P != T1?;ST1_low_1;1;Same;low;82;132;82;j;v;1;f;b;1195.9416999998211
f392!us;29;False;2;P != T2?;ST1_high_6;1;Same;high;132;96;132;j;v;0;f;b;1324.2619000002378
f392!us;30;False;2;P != T1?;ST2_high_2;2;Same;high;112;82;82;j;v;1;j;b;1517.4111999999695
f392!us;31;False;2;P != T1?;ST1_high_2;1;Same;high;112;82;112;j;v;1;f;n;1967.0261999999639
f392!us;32;False;2;P != T1?;ST1_high_4;1;Same;high;96;70;96;j;v;1;f;n;2028.696200000013
f392!us;33;False;2;P != T2?;ST2_low_6;2;Same;low;154;96;96;j;v;1;f;b;1177.8438999999707
f392!us;34;False;2;P != T1?;ST1_low_5;1;Same;low;96;154;96;j;v;1;f;n;3715.683799999624
f392!us;35;False;2;P != T2?;ST2_low_3;2;Same;low;70;112;112;j;v;1;f;n;1296.5892000001986
f392!us;36;False;2;P != T2?;ST1_low_1;1;Same;low;82;132;82;j;v;1;j;b;1705.6987000000845
f392!us;37;False;2;P != T1?;ST1_high_5;1;Same;high;96;132;96;j;v;0;j;n;1443.0576999998266
f392!us;38;False;2;P != T1?;ST1_high_3;1;Same;high;70;96;70;j;v;1;f;b;1172.735300000113
f392!us;39;False;2;P != T2?;ST2_low_5;2;Same;low;96;154;154;j;v;1;f;n;1221.7934000000241
f392!us;40;False;2;P != T2?;ST2_high_5;2;Same;high;96;132;132;j;v;1;f;b;1115.6588000003467
f392!us;41;False;2;P != T2?;ST2_high_4;2;Same;high;96;70;70;j;v;1;f;b;1324.9607999996442
f392!us;42;False;2;P != T2?;ST2_high_2;2;Same;high;112;82;82;j;v;1;f;v;1015.297300000384
f392!us;43;False;2;P != T1?;ST1_low_1;1;Same;low;82;132;82;j;v;1;f;b;1200.8515000002262
f392!us;44;False;2;P != T1?;ST2_high_4;2;Same;high;96;70;70;j;v;1;j;n;6390.348599999925
f392!us;45;False;2;P != T2?;DT2_low_4;2;Different;low;112;70;60;j;v;0;f;b;1091.6652999999314
f392!us;46;False;2;P != T2?;ST2_high_4;2;Same;high;96;70;70;j;v;1;f;b;1369.6975000002567
f392!us;47;False;2;P != T1?;ST1_high_1;1;Same;high;82;112;82;j;v;0;j;n;1588.7635999997656
f392!us;48;False;2;P != T1?;ST1_high_4;1;Same;high;96;70;96;j;v;1;f;n;1136.9095999998535
f392!us;49;False;2;P != T1?;DT2_high_3;2;Different;high;70;96;112;j;v;1;j;n;2571.5963999996347
f392!us;50;False;2;P != T2?;ST1_low_4;1;Same;low;112;70;112;j;v;1;j;n;2869.7528999996393
f392!us;51;False;2;P != T1?;ST1_low_6;1;Same;low;154;96;154;j;v;1;f;v;870.4834999998639
f392!us;52;False;2;P != T2?;ST2_high_2;2;Same;high;112;82;82;j;v;1;f;b;1166.3272999999208
f392!us;53;False;2;P != T1?;ST1_low_3;1;Same;low;70;112;70;j;v;1;f;b;1008.8872000001174
f392!us;54;False;2;P != T1?;ST1_low_2;1;Same;low;132;82;132;j;v;0;j;n;914.6405999999843
f392!us;55;False;2;P != T2?;ST2_high_3;2;Same;high;70;96;96;j;v;1;f;n;2751.3472999999067
f392!us;56;False;2;P != T1?;ST1_high_2;1;Same;high;112;82;112;j;v;1;f;n;1007.9372000000149
f392!us;57;False;2;P != T1?;ST1_low_6;1;Same;low;154;96;154;j;v;1;f;b;1294.7752999998556
f392!us;58;False;2;P != T2?;ST2_low_4;2;Same;low;112;70;70;j;v;1;f;n;3192.9841999999553
f392!us;59;False;2;P != T2?;ST2_low_1;2;Same;low;82;132;132;j;v;1;f;n;1579.8733999999968
f392!us;60;False;2;P != T2?;ST2_low_5;2;Same;low;96;154;154;j;v;1;f;n;1519.9063999998543
f392!us;61;False;2;P != T1?;ST1_low_3;1;Same;low;70;112;70;j;v;1;f;n;1188.2652999997845
f392!us;62;False;2;P != T1?;STb_3;0;Same;None;82;82;82;j;v;1;f;n;1676.6649999999572
f392!us;63;False;2;P != T2?;ST1_high_3;1;Same;high;70;96;70;j;v;0;f;b;1038.4181000003991
f392!us;64;False;2;P != T2?;ST2_high_6;2;Same;high;132;96;96;j;v;1;f;n;1531.8863000002239
f392!us;65;False;2;P != T1?;ST2_low_6;2;Same;low;154;96;96;j;v;0;f;n;1280.4611000001387
f392!us;66;False;2;P != T2?;ST2_high_1;2;Same;high;82;112;112;j;v;1;f;n;2509.493300000031
f392!us;67;False;2;P != T2?;ST2_low_3;2;Same;low;70;112;112;j;v;0;j;n;5400.578799999948
f392!us;68;False;2;P != T2?;DT1_low_2;1;Different;low;132;82;154;j;v;1;j;n;1530.5609000001823
f392!us;69;False;2;P != T1?;ST2_high_2;2;Same;high;112;82;82;j;v;1;j;n;1006.5021999998862
f392!us;70;False;2;P != T1?;ST2_high_6;2;Same;high;132;96;96;j;v;0;f;b;1368.5581999998249
f392!us;71;False;2;P != T2?;ST1_high_1;1;Same;high;82;112;82;j;v;0;f;b;826.1201999998775
f392!us;72;False;2;P != T2?;ST1_low_2;1;Same;low;132;82;132;j;v;0;f;n;934.5452999996269
f392!us;73;False;2;P != T1?;ST1_high_1;1;Same;high;82;112;82;j;v;1;f;b;948.8539999997556
f392!us;74;False;2;P != T1?;ST2_low_3;2;Same;low;70;112;112;j;v;0;f;n;1557.973100000254
f392!us;75;False;2;P != T2?;ST1_high_6;1;Same;high;132;96;132;j;v;0;f;n;4740.1599999998325
f392!us;76;False;2;P != T2?;STb_8;0;Same;None;180;180;180;j;v;1;f;v;1267.1597000003203
f392!us;77;False;2;P != T2?;DT1_high_2;1;Different;high;112;82;132;j;v;1;j;n;4971.504200000254
f392!us;78;False;2;P != T1?;ST2_low_2;2;Same;low;132;82;82;j;v;1;j;n;1599.9833000000763
f392!us;79;False;2;P != T2?;ST1_low_4;1;Same;low;112;70;112;j;v;0;f;b;1164.0612000001056
f392!us;80;False;2;P != T1?;ST1_low_1;1;Same;low;82;132;82;j;v;1;f;v;1169.7134000000915
f392!us;81;False;2;P != T1?;STb_6;0;Same;None;132;132;132;j;v;1;f;b;1189.455199999884
f392!us;82;False;2;P != T1?;ST2_low_6;2;Same;low;154;96;96;j;v;1;j;n;2179.7659000003478
f392!us;83;False;2;P != T1?;ST2_high_5;2;Same;high;96;132;132;j;v;0;f;n;1055.5097000001297
f392!us;84;False;2;P != T2?;STb_7;0;Same;None;154;154;154;j;v;1;f;v;1381.568999999672
f392!us;85;False;2;P != T1?;ST1_high_2;1;Same;high;112;82;112;j;v;1;f;n;1507.462200000191
f392!us;86;False;2;P != T2?;ST2_low_3;2;Same;low;70;112;112;j;v;1;f;n;3501.5071000002536
f392!us;87;False;2;P != T1?;ST1_high_6;1;Same;high;132;96;132;j;v;1;f;n;1565.8806999999797
f392!us;88;False;2;P != T1?;ST2_high_3;2;Same;high;70;96;96;j;v;0;f;b;1350.7524999999987
f392!us;89;False;2;P != T2?;ST2_high_1;2;Same;high;82;112;112;j;v;1;f;n;1296.8393999999535
f392!us;90;False;2;P != T2?;DT1_low_1;1;Different;low;82;132;70;j;v;1;j;n;999.4145000000572
f392!us;91;False;2;P != T2?;ST2_low_5;2;Same;low;96;154;154;j;v;1;f;b;2567.612899999858
f392!us;92;False;2;P != T2?;ST1_high_4;1;Same;high;96;70;96;j;v;0;f;v;1267.698499999824
f392!us;93;False;2;P != T1?;ST2_high_5;2;Same;high;96;132;132;j;v;0;f;n;3968.6593999999786
f392!us;94;False;2;P != T1?;ST1_high_1;1;Same;high;82;112;82;j;v;1;f;v;1687.5826000000416
f392!us;95;False;2;P != T1?;ST1_high_3;1;Same;high;70;96;70;j;v;1;f;b;860.0274999998874
f392!us;96;False;2;P != T1?;ST2_low_6;2;Same;low;154;96;96;j;v;1;j;v;854.8424000000523
f392!us;97;False;2;P != T1?;ST1_low_6;1;Same;low;154;96;154;j;v;1;f;n;1771.361699999943
f392!us;98;False;2;P != T1?;ST2_low_5;2;Same;low;96;154;154;j;v;1;j;n;1795.158000000356
f392!us;99;False;2;P != T2?;ST1_high_4;1;Same;high;96;70;96;j;v;0;f;n;1320.6983000000037
f392!us;100;False;2;P != T2?;ST1_low_6;1;Same;low;154;96;154;j;v;0;f;n;1684.9035000000185
f392!us;101;False;2;P != T1?;ST2_low_5;2;Same;low;96;154;154;j;v;1;j;b;1130.6760999996186
f392!us;102;False;2;P != T2?;DT2_high_5;2;Different;high;96;132;154;j;v;0;f;n;1022.1732999998494
f392!us;103;False;2;P != T2?;ST2_low_4;2;Same;low;112;70;70;j;v;1;f;b;1378.7578999999823
f392!us;104;False;2;P != T1?;ST2_high_3;2;Same;high;70;96;96;j;v;1;j;n;1712.601199999881
f392!us;105;False;2;P != T1?;ST2_low_4;2;Same;low;112;70;70;j;v;1;j;n;1433.4899999998925
f392!us;106;False;2;P != T1?;ST2_low_5;2;Same;low;96;154;154;j;v;1;j;b;1243.3089999999538
f392!us;107;False;2;P != T2?;ST1_high_1;1;Same;high;82;112;82;j;v;0;f;b;1338.475600000038
f392!us;108;False;2;P != T1?;DT2_high_1;2;Different;high;82;112;132;j;v;1;j;n;3745.513099999698
f392!us;109;False;2;P != T1?;ST2_high_4;2;Same;high;96;70;70;j;v;1;j;n;878.5897000002478
f392!us;110;False;2;P != T2?;STb_6;0;Same;None;132;132;132;j;v;1;f;b;1368.0045999999493
f392!us;111;False;2;P != T2?;ST2_high_3;2;Same;high;70;96;96;j;v;1;f;n;1206.9673999999395
f392!us;112;False;2;P != T2?;ST2_low_6;2;Same;low;154;96;96;j;v;1;f;n;1449.1547000002356
f392!us;113;False;2;P != T1?;DT2_high_5;2;Different;high;96;132;154;j;v;0;f;n;1426.6563999999562
f392!us;114;False;2;P != T1?;DT2_high_4;2;Different;high;96;70;60;j;v;1;j;n;903.6122999996223
f392!us;115;False;2;P != T2?;ST2_low_2;2;Same;low;132;82;82;j;v;1;f;b;1287.2219999999288
f392!us;116;False;2;P != T1?;ST2_low_3;2;Same;low;70;112;112;j;v;1;j;n;1475.9988999999223
f392!us;117;False;2;P != T2?;ST2_high_2;2;Same;high;112;82;82;j;v;1;f;n;1152.115099999719
f392!us;118;False;2;P != T2?;DT2_low_1;2;Different;low;82;132;154;j;v;0;f;n;1690.7837000003383
f392!us;119;False;2;P != T2?;STb_3;0;Same;None;82;82;82;j;v;1;f;b;1047.6979000000028
f392!us;120;False;2;P != T1?;ST2_high_1;2;Same;high;82;112;112;j;v;0;f;b;240.25269999992815
f392!us;121;False;2;P != T2?;ST1_high_3;1;Same;high;70;96;70;j;v;0;f;n;1657.9911000003449
f392!us;122;False;2;P != T2?;ST2_low_4;2;Same;low;112;70;70;j;v;1;f;b;693.9692000000832
f392!us;123;False;2;P != T1?;ST2_low_1;2;Same;low;82;132;132;j;v;1;j;b;1098.2208000000355
f392!us;124;False;2;P != T1?;DT1_low_5;1;Different;low;96;154;82;j;v;0;f;b;1196.830399999726
f392!us;125;False;2;P != T1?;ST1_low_4;1;Same;low;112;70;112;j;v;1;f;n;1316.0523999999896
f392!us;126;False;2;P != T1?;STb_1;0;Same;None;60;60;60;j;v;1;f;n;1338.7997999998333
f392!us;127;False;2;P != T2?;ST2_high_6;2;Same;high;132;96;96;j;v;1;f;v;976.3490000000274
f392!us;128;False;2;P != T2?;ST1_high_3;1;Same;high;70;96;70;j;v;0;f;b;820.022599999902
f392!us;129;False;2;P != T1?;ST1_high_5;1;Same;high;96;132;96;j;v;1;f;n;697.6761999999326
f392!us;130;False;2;P != T1?;ST1_high_6;1;Same;high;132;96;132;j;v;1;f;n;1149.1148999998586
f392!us;131;False;2;P != T1?;ST1_low_3;1;Same;low;70;112;70;j;v;1;f;n;1025.6350999998176
f392!us;132;False;2;P != T1?;DT2_low_2;2;Different;low;132;82;70;j;v;1;j;n;2411.0986000000594
f392!us;133;False;2;P != T2?;ST1_low_3;1;Same;low;70;112;70;j;v;1;j;n;1754.6323000001394
f392!us;134;False;2;P != T1?;STb_2;0;Same;None;70;70;70;j;v;1;f;n;1100.8081999998467
f392!us;135;False;2;P != T2?;ST1_high_6;1;Same;high;132;96;132;j;v;1;j;n;1489.2125999999735
f392!us;136;False;2;P != T1?;ST1_low_2;1;Same;low;132;82;132;j;v;1;f;b;1084.562399999868
f392!us;137;False;2;P != T1?;ST2_low_1;2;Same;low;82;132;132;j;v;0;f;b;703.5633000000416
f392!us;138;False;2;P != T1?;ST1_low_2;1;Same;low;132;82;132;j;v;0;j;n;917.6287999998749
f392!us;139;False;2;P != T2?;ST1_low_1;1;Same;low;82;132;82;j;v;0;f;n;2355.342599999858
f392!us;140;False;2;P != T2?;ST1_high_5;1;Same;high;96;132;96;j;v;0;f;n;1706.149699999969
f392!us;141;False;2;P != T2?;ST1_high_2;1;Same;high;112;82;112;j;v;0;f;n;1115.4599999999846
f392!us;142;False;2;P != T1?;ST2_low_3;2;Same;low;70;112;112;j;v;1;j;n;1528.6345999998048
f392!us;143;False;2;P != T2?;ST1_high_5;1;Same;high;96;132;96;j;v;1;j;n;1181.4094999999725
f392!us;144;False;2;P != T2?;ST1_high_5;1;Same;high;96;132;96;j;v;0;f;n;1495.1756000000387
f392!us;145;False;2;P != T2?;ST1_low_3;1;Same;low;70;112;70;j;v;0;f;n;2473.0608999998367
f392!us;146;False;2;P != T1?;ST2_high_5;2;Same;high;96;132;132;j;v;1;j;b;1066.737600000124
f392!us;147;False;2;P != T2?;ST1_low_2;1;Same;low;132;82;132;j;v;0;f;n;1140.356000000338
f392!us;148;False;2;P != T2?;ST1_low_2;1;Same;low;132;82;132;j;v;1;j;n;1188.9037999999346
f392!us;149;False;2;P != T1?;ST1_high_4;1;Same;high;96;70;96;j;v;1;f;b;1140.1999000004253
f392!us;150;False;2;P != T2?;DT2_high_2;2;Different;high;112;82;70;j;v;0;f;n;954.1656999999759
f392!us;151;False;2;P != T1?;ST2_high_1;2;Same;high;82;112;112;j;v;0;f;n;1039.3337999998948
f392!us;152;False;2;P != T2?;ST1_low_1;1;Same;low;82;132;82;j;v;0;f;n;3987.1495999996114
f392!us;153;False;2;P != T2?;ST2_high_6;2;Same;high;132;96;96;j;v;1;f;n;17023.2818999998
f392!us;154;False;2;P != T1?;STb_5;0;Same;None;112;112;112;j;v;0;j;n;1154.646099999809
f392!us;155;False;2;P != T2?;ST2_high_3;2;Same;high;70;96;96;j;v;1;f;n;1232.5730999996267
f392!us;156;False;2;P != T2?;STb_1;0;Same;None;60;60;60;j;v;1;f;b;2257.099599999947
f392!us;157;False;2;P != T1?;ST1_low_5;1;Same;low;96;154;96;j;v;0;j;n;3430.55669999967
f392!us;158;False;2;P != T2?;ST1_low_3;1;Same;low;70;112;70;j;v;0;f;b;3298.1150999999045
f392!us;159;False;2;P != T2?;ST2_low_6;2;Same;low;154;96;96;j;v;1;f;n;1359.2348000001948
f392!us;160;False;2;P != T1?;DT1_high_5;1;Different;high;96;132;82;j;v;0;f;n;2814.076699999987
f392!us;161;False;2;P != T2?;ST2_high_4;2;Same;high;96;70;70;j;v;1;f;b;1101.9539999997505
f392!us;162;False;2;P != T2?;ST1_low_5;1;Same;low;96;154;96;j;v;0;f;v;1334.5918999998503
f392!us;163;False;2;P != T1?;ST1_low_4;1;Same;low;112;70;112;j;v;0;j;n;2415.0441000001592
f392!us;164;False;2;P != T1?;ST2_high_1;2;Same;high;82;112;112;j;v;1;j;n;2599.2851999999402
f392!us;165;False;2;P != T2?;ST1_low_5;1;Same;low;96;154;96;j;v;1;j;n;1854.0899999998146
f392!us;166;False;2;P != T2?;ST1_high_4;1;Same;high;96;70;96;j;v;0;f;n;3158.250799999678
f392!us;167;False;2;P != T1?;STb_8;0;Same;None;180;180;180;j;v;1;f;n;7723.838500000056
f392!us;168;False;2;P != T2?;ST2_high_1;2;Same;high;82;112;112;j;v;1;f;v;1244.0129999999954
f392!us;169;False;2;P != T1?;ST2_high_6;2;Same;high;132;96;96;j;v;1;j;n;1257.7765999999428
f392!us;170;False;2;P != T2?;STb_5;0;Same;None;112;112;112;j;v;1;f;n;708.3273999996891
f392!us;171;False;2;P != T1?;DT1_high_3;1;Different;high;70;96;60;j;v;0;f;b;1856.6272000002755
f392!us;172;False;2;P != T2?;STb_2;0;Same;None;70;70;70;j;v;1;f;b;397.5468999997247
f392!us;173;False;2;P != T2?;ST1_high_2;1;Same;high;112;82;112;j;v;0;f;n;173.67009999998118
f392!us;174;False;2;P != T1?;ST1_low_5;1;Same;low;96;154;96;j;v;1;f;b;1199.3741000001137
f392!us;175;False;2;P != T2?;DT2_high_3;2;Different;high;70;96;112;j;v;0;f;b;891.6463000000476
f392!us;176;False;2;P != T1?;ST2_low_1;2;Same;low;82;132;132;j;v;1;j;n;1014.1586999998253
