p_code;trial_nr;practice;block;question;condition;seqPos;Same_or_Diff;ITS;T1_hz;T2_hz;P_hz;yes_key;sure_key;correct;yes_no;rating;resp_time
t907kp#;1;True;1;P = T1?;ST1_high_3;1;Same;high;70;96;70;f;n;0;j;n;6396.538899993175
t907kp#;2;True;1;P = T1?;DT1_low_1;1;Different;low;82;132;70;f;n;0;f;n;2106.526399991708
t907kp#;3;True;1;P = T1?;ST2_high_5;2;Same;high;96;132;132;f;n;0;f;v;7916.770099996938
t907kp#;4;True;1;P = T2?;ST2_low_2;2;Same;low;132;82;82;f;n;1;f;n;8864.651500000036
t907kp#;5;True;1;P = T1?;ST1_high_2;1;Same;high;112;82;112;f;n;0;j;n;1444.3102999939583
t907kp#;6;True;1;P = T2?;DT1_low_6;1;Different;low;154;96;180;f;n;0;f;b;2000.7571000023745
t907kp#;7;True;1;P = T2?;STb_2;0;Same;None;70;70;70;f;n;1;f;n;1936.9639999931678
t907kp#;8;True;1;P = T2?;DT2_low_2;2;Different;low;132;82;70;f;n;0;f;b;1586.885800003074
t907kp#;9;True;1;P = T2?;STb_4;0;Same;None;96;96;96;f;n;0;j;n;1725.0341000035405
t907kp#;10;True;1;P = T2?;ST1_low_2;1;Same;low;132;82;132;f;n;1;j;b;3419.900200009579
t907kp#;11;True;1;P = T1?;STb_6;0;Same;None;132;132;132;f;n;0;j;n;2614.9219000071753
t907kp#;12;True;1;P = T1?;DT1_high_6;1;Different;high;132;96;154;f;n;1;j;n;2642.4853000062285
t907kp#;13;True;1;P = T2?;ST1_low_3;1;Same;low;70;112;70;f;n;0;f;n;1511.7182999965735
t907kp#;14;True;1;P = T1?;STb_1;0;Same;None;60;60;60;f;n;1;f;n;1277.270899998257
t907kp#;15;True;1;P = T1?;ST2_low_1;2;Same;low;82;132;132;f;n;0;f;n;1547.4875000072643
t907kp#;16;True;1;P = T2?;ST2_low_2;2;Same;low;132;82;82;f;n;0;j;v;5219.629499988514
p_code;trial_nr;practice;block;question;condition;seqPos;Same_or_Diff;ITS;T1_hz;T2_hz;P_hz;yes_key;sure_key;correct;yes_no;rating;resp_time
t907kp#;1;False;1;P = T2?;ST2_low_5;2;Same;low;96;154;154;f;n;0;j;n;1513.8658999931067
t907kp#;2;False;1;P = T1?;ST1_low_3;1;Same;low;70;112;70;f;n;1;f;n;1092.9442000051495
t907kp#;3;False;1;P = T1?;ST1_high_2;1;Same;high;112;82;112;f;n;1;f;n;1044.0862999967067
t907kp#;4;False;1;P = T1?;ST2_low_3;2;Same;low;70;112;112;f;n;0;f;n;1387.0458000019426
t907kp#;5;False;1;P = T1?;ST1_high_6;1;Same;high;132;96;132;f;n;1;f;n;1223.1451000116067
t907kp#;6;False;1;P = T1?;DT1_high_5;1;Different;high;96;132;82;f;n;0;f;b;988.3913000085158
t907kp#;7;False;1;P = T1?;ST2_low_3;2;Same;low;70;112;112;f;n;1;j;n;907.5720999971963
t907kp#;8;False;1;P = T1?;ST1_low_3;1;Same;low;70;112;70;f;n;0;j;v;3390.9367000014754
t907kp#;9;False;1;P = T1?;ST1_low_6;1;Same;low;154;96;154;f;n;0;j;v;3761.672200009343
t907kp#;10;False;1;P = T2?;ST1_low_3;1;Same;low;70;112;70;f;n;0;f;b;1852.0351000042865
t907kp#;11;False;1;P = T1?;ST1_high_3;1;Same;high;70;96;70;f;n;1;f;n;1677.253700006986
t907kp#;12;False;1;P = T2?;ST1_low_3;1;Same;low;70;112;70;f;n;1;j;v;1954.3266000109725
t907kp#;13;False;1;P = T2?;ST2_low_1;2;Same;low;82;132;132;f;n;1;f;v;3559.018300002208
t907kp#;14;False;1;P = T1?;STb_4;0;Same;None;96;96;96;f;n;1;f;b;1240.0458000047365
t907kp#;15;False;1;P = T2?;ST2_low_2;2;Same;low;132;82;82;f;n;1;f;b;1473.9539000001969
t907kp#;16;False;1;P = T1?;ST1_low_1;1;Same;low;82;132;82;f;n;1;f;b;1341.8738000036683
t907kp#;17;False;1;P = T1?;ST1_low_2;1;Same;low;132;82;132;f;n;1;f;b;4212.761400005547
t907kp#;18;False;1;P = T1?;STb_2;0;Same;None;70;70;70;f;n;1;f;b;1317.727499990724
t907kp#;19;False;1;P = T1?;ST2_low_5;2;Same;low;96;154;154;f;n;0;f;b;1707.6119999983348
t907kp#;20;False;1;P = T1?;ST1_high_1;1;Same;high;82;112;82;f;n;0;j;b;1404.654699988896
t907kp#;21;False;1;P = T2?;STb_6;0;Same;None;132;132;132;f;n;1;f;v;3447.1260999998776
t907kp#;22;False;1;P = T2?;DT1_high_6;1;Different;high;132;96;154;f;n;1;j;v;5504.445399987162
t907kp#;23;False;1;P = T2?;ST2_low_6;2;Same;low;154;96;96;f;n;1;f;v;1730.8020999917062
t907kp#;24;False;1;P = T2?;ST1_high_4;1;Same;high;96;70;96;f;n;0;f;v;1485.8976999967126
t907kp#;25;False;1;P = T1?;ST1_low_5;1;Same;low;96;154;96;f;n;1;f;n;1393.6967000045115
t907kp#;26;False;1;P = T2?;STb_8;0;Same;None;180;180;180;f;n;1;f;b;1467.1941999986302
t907kp#;27;False;1;P = T1?;ST1_high_5;1;Same;high;96;132;96;f;n;1;f;b;1929.9268999893684
t907kp#;28;False;1;P = T1?;DT1_low_3;1;Different;low;70;112;60;f;n;0;f;b;1282.6976999931503
t907kp#;29;False;1;P = T1?;ST1_low_2;1;Same;low;132;82;132;f;n;1;f;b;1835.2850999945076
t907kp#;30;False;1;P = T2?;ST2_low_6;2;Same;low;154;96;96;f;n;0;j;v;2312.0153000054415
t907kp#;31;False;1;P = T1?;ST2_low_2;2;Same;low;132;82;82;f;n;0;f;v;1236.5497999999207
t907kp#;32;False;1;P = T2?;ST1_low_5;1;Same;low;96;154;96;f;n;1;j;v;2214.932199989562
t907kp#;33;False;1;P = T2?;ST2_low_2;2;Same;low;132;82;82;f;n;1;f;n;2047.138800000539
t907kp#;34;False;1;P = T2?;ST1_high_3;1;Same;high;70;96;70;f;n;0;f;b;1102.980600000592
t907kp#;35;False;1;P = T2?;DT1_high_3;1;Different;high;70;96;60;f;n;0;f;v;8982.482599996729
t907kp#;36;False;1;P = T1?;DT2_high_3;2;Different;high;70;96;112;f;n;0;f;b;2211.675999991712
t907kp#;37;False;1;P = T1?;DT1_low_5;1;Different;low;96;154;82;f;n;1;j;b;1863.9916999964043
t907kp#;38;False;1;P = T2?;DT2_low_6;2;Different;low;154;96;82;f;n;1;j;v;5279.990399998496
t907kp#;39;False;1;P = T2?;ST2_high_3;2;Same;high;70;96;96;f;n;1;f;b;3793.5028999927454
t907kp#;40;False;1;P = T2?;ST1_high_1;1;Same;high;82;112;82;f;n;0;f;b;1506.8472000129987
t907kp#;41;False;1;P = T1?;ST2_high_6;2;Same;high;132;96;96;f;n;0;f;b;3103.9806000044337
t907kp#;42;False;1;P = T2?;ST1_low_4;1;Same;low;112;70;112;f;n;0;f;n;1261.336499999743
t907kp#;43;False;1;P = T1?;ST2_low_1;2;Same;low;82;132;132;f;n;0;f;v;1310.3828000021167
t907kp#;44;False;1;P = T1?;ST1_low_3;1;Same;low;70;112;70;f;n;1;f;b;3322.6135000004433
t907kp#;45;False;1;P = T2?;ST1_high_5;1;Same;high;96;132;96;f;n;0;f;b;1565.7063999969978
t907kp#;46;False;1;P = T1?;ST2_low_5;2;Same;low;96;154;154;f;n;0;f;n;1102.8824000095483
t907kp#;47;False;1;P = T1?;ST2_high_4;2;Same;high;96;70;70;f;n;1;j;n;2093.8019999885
t907kp#;48;False;1;P = T1?;ST1_low_6;1;Same;low;154;96;154;f;n;0;j;b;2293.425300013041
t907kp#;49;False;1;P = T1?;ST2_high_2;2;Same;high;112;82;82;f;n;0;f;n;1162.2189000045182
t907kp#;50;False;1;P = T1?;ST1_low_6;1;Same;low;154;96;154;f;n;1;f;n;1322.10990000749
t907kp#;51;False;1;P = T1?;ST2_high_3;2;Same;high;70;96;96;f;n;1;j;n;1004.7554000047967
t907kp#;52;False;1;P = T2?;ST1_low_2;1;Same;low;132;82;132;f;n;1;j;v;2137.924499998917
t907kp#;53;False;1;P = T2?;ST2_high_2;2;Same;high;112;82;82;f;n;1;f;n;1710.263400003896
t907kp#;54;False;1;P = T2?;ST1_high_6;1;Same;high;132;96;132;f;n;0;f;n;1276.8036000052234
t907kp#;55;False;1;P = T1?;ST1_high_4;1;Same;high;96;70;96;f;n;1;f;n;1080.3779999987455
t907kp#;56;False;1;P = T2?;ST1_high_2;1;Same;high;112;82;112;f;n;1;j;b;2326.319300002069
t907kp#;57;False;1;P = T2?;ST2_high_1;2;Same;high;82;112;112;f;n;1;f;b;1886.4712000067811
t907kp#;58;False;1;P = T2?;ST2_high_6;2;Same;high;132;96;96;f;n;0;j;b;984.5013000012841
t907kp#;59;False;1;P = T1?;ST2_low_6;2;Same;low;154;96;96;f;n;1;j;v;1564.3312000029255
t907kp#;60;False;1;P = T2?;DT1_high_4;1;Different;high;96;70;112;f;n;1;j;n;941.9055999896955
t907kp#;61;False;1;P = T1?;ST2_low_2;2;Same;low;132;82;82;f;n;0;f;n;1116.406500004814
t907kp#;62;False;1;P = T2?;ST1_low_5;1;Same;low;96;154;96;f;n;1;j;v;3200.7237000070745
t907kp#;63;False;1;P = T2?;ST2_low_5;2;Same;low;96;154;154;f;n;0;j;v;1615.1146000047447
t907kp#;64;False;1;P = T1?;ST2_high_2;2;Same;high;112;82;82;f;n;1;j;b;1399.175099999411
t907kp#;65;False;1;P = T1?;ST2_high_1;2;Same;high;82;112;112;f;n;1;j;n;1362.410000001546
t907kp#;66;False;1;P = T2?;STb_1;0;Same;None;60;60;60;f;n;0;j;n;992.4204999988433
t907kp#;67;False;1;P = T2?;DT1_low_4;1;Different;low;112;70;132;f;n;0;f;n;852.69060000428
t907kp#;68;False;1;P = T2?;ST2_low_1;2;Same;low;82;132;132;f;n;0;j;n;1030.36940000311
t907kp#;69;False;1;P = T1?;STb_7;0;Same;None;154;154;154;f;n;0;j;n;1174.3270000006305
t907kp#;70;False;1;P = T2?;ST1_low_1;1;Same;low;82;132;82;f;n;0;f;b;2611.674600004335
t907kp#;71;False;1;P = T1?;ST1_high_6;1;Same;high;132;96;132;f;n;1;f;n;884.7324999951525
t907kp#;72;False;1;P = T1?;DT1_low_6;1;Different;low;154;96;180;f;n;0;f;b;892.5629000004847
t907kp#;73;False;1;P = T1?;ST2_low_5;2;Same;low;96;154;154;f;n;0;f;b;3595.740899996599
t907kp#;74;False;1;P = T1?;ST1_low_1;1;Same;low;82;132;82;f;n;1;f;b;1384.0543999976944
t907kp#;75;False;1;P = T1?;ST1_low_1;1;Same;low;82;132;82;f;n;1;f;b;845.373499993002
t907kp#;76;False;1;P = T2?;STb_3;0;Same;None;82;82;82;f;n;1;f;v;2486.9649000029312
t907kp#;77;False;1;P = T1?;ST2_low_2;2;Same;low;132;82;82;f;n;0;f;v;3164.3110000004526
t907kp#;78;False;1;P = T1?;DT2_high_5;2;Different;high;96;132;154;f;n;1;j;b;1051.0573999927146
t907kp#;79;False;1;P = T1?;ST2_high_5;2;Same;high;96;132;132;f;n;0;f;b;1612.2440000035567
t907kp#;80;False;1;P = T1?;ST2_low_4;2;Same;low;112;70;70;f;n;0;f;n;839.34340000269
t907kp#;81;False;1;P = T1?;STb_5;0;Same;None;112;112;112;f;n;0;j;v;1344.4652000034694
t907kp#;82;False;1;P = T2?;ST2_high_5;2;Same;high;96;132;132;f;n;1;f;v;983.5133999877144
t907kp#;83;False;1;P = T1?;ST1_high_2;1;Same;high;112;82;112;f;n;0;j;v;7346.166799994535
t907kp#;84;False;1;P = T2?;ST1_low_6;1;Same;low;154;96;154;f;n;0;f;b;2158.7650000001304
t907kp#;85;False;1;P = T1?;ST1_high_3;1;Same;high;70;96;70;f;n;0;j;n;1030.499200001941
t907kp#;86;False;1;P = T2?;ST2_low_2;2;Same;low;132;82;82;f;n;1;f;n;1110.615500001586
t907kp#;87;False;1;P = T1?;STb_6;0;Same;None;132;132;132;f;n;1;f;b;1535.7751999981701
t907kp#;88;False;1;P = T2?;ST2_high_3;2;Same;high;70;96;96;f;n;1;f;b;933.45810000028
t907kp#;89;False;1;P = T2?;ST2_high_4;2;Same;high;96;70;70;f;n;1;f;v;2113.839800003916
t907kp#;90;False;1;P = T1?;ST2_low_1;2;Same;low;82;132;132;f;n;0;f;n;1762.58670000243
t907kp#;91;False;1;P = T1?;ST2_low_6;2;Same;low;154;96;96;f;n;0;f;n;737.8126999974484
t907kp#;92;False;1;P = T2?;ST2_high_1;2;Same;high;82;112;112;f;n;1;f;n;1447.557899999083
t907kp#;93;False;1;P = T2?;ST1_high_1;1;Same;high;82;112;82;f;n;1;j;b;1196.572400003788
t907kp#;94;False;1;P = T1?;ST2_low_1;2;Same;low;82;132;132;f;n;1;j;n;1294.937700004084
t907kp#;95;False;1;P = T1?;ST1_high_5;1;Same;high;96;132;96;f;n;0;j;v;1359.1391000081785
t907kp#;96;False;1;P = T1?;DT2_low_1;2;Different;low;82;132;154;f;n;0;f;b;1062.062800003332
t907kp#;97;False;1;P = T1?;ST2_low_3;2;Same;low;70;112;112;f;n;0;f;n;899.0965999983018
t907kp#;98;False;1;P = T2?;ST1_low_2;1;Same;low;132;82;132;f;n;0;f;b;1433.0666000023484
t907kp#;99;False;1;P = T2?;ST2_high_6;2;Same;high;132;96;96;f;n;0;j;n;1098.8717000000179
t907kp#;100;False;1;P = T1?;ST2_high_3;2;Same;high;70;96;96;f;n;1;j;n;1314.6798999950988
t907kp#;101;False;1;P = T1?;ST1_high_1;1;Same;high;82;112;82;f;n;1;f;n;1018.9091999927768
t907kp#;102;False;1;P = T2?;ST1_high_1;1;Same;high;82;112;82;f;n;1;j;n;992.4672000051942
t907kp#;103;False;1;P = T2?;STb_4;0;Same;None;96;96;96;f;n;1;f;n;1620.9021999966353
t907kp#;104;False;1;P = T2?;ST2_low_3;2;Same;low;70;112;112;f;n;1;f;b;1315.842399999383
t907kp#;105;False;1;P = T1?;ST1_high_1;1;Same;high;82;112;82;f;n;0;j;n;1168.963399992208
t907kp#;106;False;1;P = T2?;DT1_low_5;1;Different;low;96;154;82;f;n;1;j;v;4170.933100002003
t907kp#;107;False;1;P = T2?;ST2_high_2;2;Same;high;112;82;82;f;n;1;f;n;1271.1601999908453
t907kp#;108;False;1;P = T2?;STb_2;0;Same;None;70;70;70;f;n;1;f;n;1250.2859999949578
t907kp#;109;False;1;P = T2?;ST1_low_5;1;Same;low;96;154;96;f;n;0;f;n;1161.1482000007527
t907kp#;110;False;1;P = T1?;ST2_high_5;2;Same;high;96;132;132;f;n;1;j;v;1657.2363000013866
t907kp#;111;False;1;P = T2?;ST2_high_5;2;Same;high;96;132;132;f;n;0;j;n;1144.3112999986624
t907kp#;112;False;1;P = T2?;STb_5;0;Same;None;112;112;112;f;n;0;j;b;2939.2282999906456
t907kp#;113;False;1;P = T1?;ST1_high_6;1;Same;high;132;96;132;f;n;1;f;n;1057.8539999987697
t907kp#;114;False;1;P = T2?;ST2_high_6;2;Same;high;132;96;96;f;n;1;f;b;1276.5458000067156
t907kp#;115;False;1;P = T2?;ST1_high_2;1;Same;high;112;82;112;f;n;0;f;v;2496.6332000039984
t907kp#;116;False;1;P = T2?;ST2_low_6;2;Same;low;154;96;96;f;n;1;f;b;1759.2975000006845
t907kp#;117;False;1;P = T2?;ST1_low_1;1;Same;low;82;132;82;f;n;0;f;b;3900.375500001246
t907kp#;118;False;1;P = T2?;ST2_high_1;2;Same;high;82;112;112;f;n;1;f;b;1185.6445999874268
t907kp#;119;False;1;P = T2?;ST2_low_4;2;Same;low;112;70;70;f;n;0;j;n;1625.1176999940071
t907kp#;120;False;1;P = T2?;ST2_low_3;2;Same;low;70;112;112;f;n;1;f;b;1173.0996999976924
t907kp#;121;False;1;P = T2?;ST1_low_1;1;Same;low;82;132;82;f;n;1;j;n;1171.2845000001835
t907kp#;122;False;1;P = T2?;ST2_high_2;2;Same;high;112;82;82;f;n;1;f;n;1265.6429999915417
t907kp#;123;False;1;P = T1?;ST1_high_4;1;Same;high;96;70;96;f;n;1;f;n;1200.4400000005262
t907kp#;124;False;1;P = T2?;DT2_low_2;2;Different;low;132;82;70;f;n;1;j;n;1075.0005000008969
t907kp#;125;False;1;P = T1?;ST1_high_2;1;Same;high;112;82;112;f;n;1;f;n;1012.5066000036895
t907kp#;126;False;1;P = T2?;ST1_high_4;1;Same;high;96;70;96;f;n;0;f;b;3445.403100005933
t907kp#;127;False;1;P = T2?;DT1_low_2;1;Different;low;132;82;154;f;n;1;j;n;1226.7882000014652
t907kp#;128;False;1;P = T1?;ST2_high_1;2;Same;high;82;112;112;f;n;1;j;n;1249.2074000037974
t907kp#;129;False;1;P = T1?;ST2_high_6;2;Same;high;132;96;96;f;n;1;j;b;1114.155599992955
t907kp#;130;False;1;P = T2?;ST1_high_2;1;Same;high;112;82;112;f;n;1;j;v;1264.9834000039846
t907kp#;131;False;1;P = T1?;ST1_high_5;1;Same;high;96;132;96;f;n;0;j;n;1114.9405999894952
t907kp#;132;False;1;P = T2?;ST1_high_5;1;Same;high;96;132;96;f;n;0;f;b;1350.1892999920528
t907kp#;133;False;1;P = T2?;ST2_low_4;2;Same;low;112;70;70;f;n;1;f;n;1183.230900001945
t907kp#;134;False;1;P = T2?;ST2_high_3;2;Same;high;70;96;96;f;n;1;f;v;1469.3766000127653
t907kp#;135;False;1;P = T2?;STb_7;0;Same;None;154;154;154;f;n;0;j;b;1248.352700000396
t907kp#;136;False;1;P = T2?;ST1_low_6;1;Same;low;154;96;154;f;n;1;j;b;1920.8672999957344
t907kp#;137;False;1;P = T1?;ST2_high_6;2;Same;high;132;96;96;f;n;0;f;n;999.1135000018403
t907kp#;138;False;1;P = T1?;ST1_low_4;1;Same;low;112;70;112;f;n;1;f;b;1030.2248999942094
t907kp#;139;False;1;P = T2?;ST1_high_6;1;Same;high;132;96;132;f;n;0;f;b;1457.2870999982115
t907kp#;140;False;1;P = T1?;STb_1;0;Same;None;60;60;60;f;n;0;j;v;2394.3313999916427
t907kp#;141;False;1;P = T2?;ST2_low_1;2;Same;low;82;132;132;f;n;1;f;n;1456.463900001836
t907kp#;142;False;1;P = T1?;ST1_low_2;1;Same;low;132;82;132;f;n;1;f;n;991.7918999999529
t907kp#;143;False;1;P = T1?;ST2_low_4;2;Same;low;112;70;70;f;n;0;f;b;1031.0148999997182
t907kp#;144;False;1;P = T2?;ST1_high_5;1;Same;high;96;132;96;f;n;1;j;n;1095.4351000109455
t907kp#;145;False;1;P = T1?;ST2_high_2;2;Same;high;112;82;82;f;n;0;f;n;1426.818000007188
t907kp#;146;False;1;P = T1?;ST2_high_5;2;Same;high;96;132;132;f;n;1;j;n;1117.7836999995634
t907kp#;147;False;1;P = T1?;STb_3;0;Same;None;82;82;82;f;n;0;j;v;1916.9466000021202
t907kp#;148;False;1;P = T2?;ST2_low_4;2;Same;low;112;70;70;f;n;0;j;v;5113.735400009318
t907kp#;149;False;1;P = T1?;ST1_high_3;1;Same;high;70;96;70;f;n;1;f;n;998.3881999942241
t907kp#;150;False;1;P = T1?;ST1_low_4;1;Same;low;112;70;112;f;n;1;f;n;1202.108199999202
t907kp#;151;False;1;P = T2?;ST2_high_4;2;Same;high;96;70;70;f;n;1;f;n;1208.6057999986224
t907kp#;152;False;1;P = T1?;ST1_low_5;1;Same;low;96;154;96;f;n;1;f;n;867.405900004087
t907kp#;153;False;1;P = T2?;ST1_low_6;1;Same;low;154;96;154;f;n;1;j;n;1116.6577000112738
t907kp#;154;False;1;P = T1?;ST2_low_6;2;Same;low;154;96;96;f;n;1;j;b;994.4108999916352
t907kp#;155;False;1;P = T2?;ST1_high_4;1;Same;high;96;70;96;f;n;1;j;b;1318.6276000051294
t907kp#;156;False;1;P = T2?;ST2_high_5;2;Same;high;96;132;132;f;n;1;f;n;1033.1907999934629
t907kp#;157;False;1;P = T2?;ST1_low_2;1;Same;low;132;82;132;f;n;1;j;n;1021.5920000046026
t907kp#;158;False;1;P = T1?;ST2_low_4;2;Same;low;112;70;70;f;n;1;j;b;960.580500002834
t907kp#;159;False;1;P = T1?;STb_8;0;Same;None;180;180;180;f;n;1;f;v;1900.8045000082348
t907kp#;160;False;1;P = T1?;ST1_low_5;1;Same;low;96;154;96;f;n;1;f;b;1780.9625000081724
t907kp#;161;False;1;P = T1?;ST1_high_4;1;Same;high;96;70;96;f;n;0;j;n;1155.3433999943081
t907kp#;162;False;1;P = T1?;DT1_high_1;1;Different;high;82;112;70;f;n;1;j;n;954.4198999938089
t907kp#;163;False;1;P = T1?;ST2_high_4;2;Same;high;96;70;70;f;n;1;j;b;898.158500000136
t907kp#;164;False;1;P = T1?;ST1_low_4;1;Same;low;112;70;112;f;n;0;j;b;1736.5314999915427
t907kp#;165;False;1;P = T2?;ST1_low_4;1;Same;low;112;70;112;f;n;0;f;n;1150.677400000859
t907kp#;166;False;1;P = T2?;ST1_low_4;1;Same;low;112;70;112;f;n;1;j;b;1167.1967000002041
t907kp#;167;False;1;P = T1?;ST2_high_4;2;Same;high;96;70;70;f;n;1;j;b;1976.778899988858
t907kp#;168;False;1;P = T2?;ST2_low_5;2;Same;low;96;154;154;f;n;1;f;n;1026.0318999935407
t907kp#;169;False;1;P = T2?;ST1_high_6;1;Same;high;132;96;132;f;n;1;j;n;2362.249800004065
t907kp#;170;False;1;P = T2?;ST1_low_3;1;Same;low;70;112;70;f;n;1;j;n;1551.705200006836
t907kp#;171;False;1;P = T2?;ST1_high_3;1;Same;high;70;96;70;f;n;1;j;n;1589.5160999934888
t907kp#;172;False;1;P = T1?;ST2_high_3;2;Same;high;70;96;96;f;n;1;j;b;2394.381899997825
t907kp#;173;False;1;P = T2?;ST2_low_3;2;Same;low;70;112;112;f;n;0;j;n;888.7445000000298
t907kp#;174;False;1;P = T2?;ST1_high_3;1;Same;high;70;96;70;f;n;1;j;n;1209.920699999202
t907kp#;175;False;1;P = T1?;ST2_high_1;2;Same;high;82;112;112;f;n;0;f;n;862.0265000063227
t907kp#;176;False;1;P = T2?;ST2_high_4;2;Same;high;96;70;70;f;n;0;j;n;1128.2438000052935
t907kp#;1;True;2;P != T2?;ST1_low_3;1;Same;low;70;112;70;f;n;0;j;v;34267.11050000449
t907kp#;2;True;2;P != T1?;STb_5;0;Same;None;112;112;112;f;n;0;f;n;2961.5579999954207
t907kp#;3;True;2;P != T2?;ST2_high_3;2;Same;high;70;96;96;f;n;0;f;n;2711.907399992924
t907kp#;4;True;2;P != T1?;ST2_low_6;2;Same;low;154;96;96;f;n;0;j;b;2944.697200000519
t907kp#;5;True;2;P != T2?;DT2_low_6;2;Different;low;154;96;82;f;n;1;f;b;6278.393999993568
t907kp#;6;True;2;P != T1?;DT2_high_6;2;Different;high;132;96;82;f;n;0;j;n;1749.465600005351
t907kp#;7;True;2;P != T2?;ST1_low_4;1;Same;low;112;70;112;f;n;1;f;n;2274.178599996958
t907kp#;8;True;2;P != T1?;ST1_low_5;1;Same;low;96;154;96;f;n;0;f;v;2243.905299998005
t907kp#;9;True;2;P != T1?;ST2_high_2;2;Same;high;112;82;82;f;n;1;f;b;1488.014500006102
t907kp#;10;True;2;P != T1?;STb_2;0;Same;None;70;70;70;f;n;1;j;n;2025.9970999904908
t907kp#;11;True;2;P != T2?;DT2_low_4;2;Different;low;112;70;60;f;n;1;f;b;2425.8024000009755
t907kp#;12;True;2;P != T1?;ST1_high_2;1;Same;high;112;82;112;f;n;1;j;n;3878.7925000069663
t907kp#;13;True;2;P != T2?;ST2_high_1;2;Same;high;82;112;112;f;n;1;j;b;1487.8820000012638
t907kp#;14;True;2;P != T2?;STb_4;0;Same;None;96;96;96;f;n;0;f;n;2114.544799987925
t907kp#;15;True;2;P != T1?;DT1_high_6;1;Different;high;132;96;154;f;n;0;j;n;2006.919299994479
t907kp#;16;True;2;P != T2?;STb_1;0;Same;None;60;60;60;f;n;0;f;n;3349.1967000009026
t907kp#;1;False;2;P != T1?;ST1_low_1;1;Same;low;82;132;82;f;n;1;j;v;8721.217300000717
t907kp#;2;False;2;P != T1?;ST1_high_1;1;Same;high;82;112;82;f;n;1;j;n;3034.912000002805
t907kp#;3;False;2;P != T2?;ST2_low_3;2;Same;low;70;112;112;f;n;0;f;b;1681.6352999885567
t907kp#;4;False;2;P != T1?;ST2_low_4;2;Same;low;112;70;70;f;n;1;f;n;2028.1905000010738
t907kp#;5;False;2;P != T1?;ST2_low_1;2;Same;low;82;132;132;f;n;0;j;n;2048.3881999971345
t907kp#;6;False;2;P != T1?;ST2_high_6;2;Same;high;132;96;96;f;n;0;j;v;3496.638199998415
t907kp#;7;False;2;P != T1?;ST2_high_5;2;Same;high;96;132;132;f;n;0;j;b;2745.4141000052914
t907kp#;8;False;2;P != T2?;ST1_low_6;1;Same;low;154;96;154;f;n;1;f;n;1924.8466999997618
t907kp#;9;False;2;P != T2?;ST2_low_5;2;Same;low;96;154;154;f;n;1;j;n;900.016700004926
t907kp#;10;False;2;P != T2?;ST1_low_2;1;Same;low;132;82;132;f;n;1;f;n;1244.0248999919277
t907kp#;11;False;2;P != T1?;DT2_low_2;2;Different;low;132;82;70;f;n;1;f;n;1054.0672000061022
t907kp#;12;False;2;P != T2?;ST1_high_1;1;Same;high;82;112;82;f;n;0;j;b;1236.0886999958893
t907kp#;13;False;2;P != T2?;ST1_high_6;1;Same;high;132;96;132;f;n;0;j;b;1478.8866000017151
t907kp#;14;False;2;P != T1?;STb_3;0;Same;None;82;82;82;f;n;0;f;v;3965.682399997604
t907kp#;15;False;2;P != T1?;ST2_low_2;2;Same;low;132;82;82;f;n;1;f;n;1639.4334999931743
t907kp#;16;False;2;P != T2?;ST2_low_4;2;Same;low;112;70;70;f;n;1;j;n;1508.5658000025433
t907kp#;17;False;2;P != T1?;STb_5;0;Same;None;112;112;112;f;n;1;j;b;1395.242500002496
t907kp#;18;False;2;P != T1?;ST2_high_1;2;Same;high;82;112;112;f;n;1;f;n;1264.1501000034623
t907kp#;19;False;2;P != T1?;ST2_high_2;2;Same;high;112;82;82;f;n;1;f;b;1181.89499998698
t907kp#;20;False;2;P != T2?;ST2_high_5;2;Same;high;96;132;132;f;n;1;j;n;1733.5961000062525
t907kp#;21;False;2;P != T1?;ST1_low_5;1;Same;low;96;154;96;f;n;1;j;b;1658.1594000017503
t907kp#;22;False;2;P != T2?;ST2_high_3;2;Same;high;70;96;96;f;n;1;j;v;1222.4031000077957
t907kp#;23;False;2;P != T1?;ST2_high_5;2;Same;high;96;132;132;f;n;0;j;b;872.8047000040533
t907kp#;24;False;2;P != T1?;ST1_low_2;1;Same;low;132;82;132;f;n;1;j;b;2582.920400003786
t907kp#;25;False;2;P != T2?;ST1_low_4;1;Same;low;112;70;112;f;n;1;f;n;1374.6095999958925
t907kp#;26;False;2;P != T2?;ST2_high_2;2;Same;high;112;82;82;f;n;1;j;n;1078.594399994472
t907kp#;27;False;2;P != T2?;ST2_low_6;2;Same;low;154;96;96;f;n;1;j;n;1127.1159000025364
t907kp#;28;False;2;P != T1?;ST1_high_5;1;Same;high;96;132;96;f;n;0;f;n;1606.4360000018496
t907kp#;29;False;2;P != T2?;ST2_low_4;2;Same;low;112;70;70;f;n;1;j;n;1584.8357999930158
t907kp#;30;False;2;P != T2?;STb_5;0;Same;None;112;112;112;f;n;1;j;b;1779.8306999902707
t907kp#;31;False;2;P != T1?;ST1_low_3;1;Same;low;70;112;70;f;n;0;f;v;3154.379200001131
t907kp#;32;False;2;P != T1?;ST1_low_2;1;Same;low;132;82;132;f;n;0;f;n;1497.433299999102
t907kp#;33;False;2;P != T2?;ST1_low_3;1;Same;low;70;112;70;f;n;1;f;b;3729.1031000058865
t907kp#;34;False;2;P != T1?;ST1_low_6;1;Same;low;154;96;154;f;n;0;f;v;2467.389400000684
t907kp#;35;False;2;P != T1?;ST2_high_4;2;Same;high;96;70;70;f;n;1;f;b;1128.358299989486
t907kp#;36;False;2;P != T1?;ST2_low_5;2;Same;low;96;154;154;f;n;1;f;b;1164.0736999979708
t907kp#;37;False;2;P != T2?;ST2_high_5;2;Same;high;96;132;132;f;n;1;j;n;1805.5514999869047
t907kp#;38;False;2;P != T1?;STb_7;0;Same;None;154;154;154;f;n;0;f;v;2612.043300003279
t907kp#;39;False;2;P != T1?;ST1_low_5;1;Same;low;96;154;96;f;n;0;f;n;1198.1697000010172
t907kp#;40;False;2;P != T2?;ST1_high_5;1;Same;high;96;132;96;f;n;0;j;n;1117.7105000097072
t907kp#;41;False;2;P != T1?;ST1_low_3;1;Same;low;70;112;70;f;n;0;f;b;2762.06860000093
t907kp#;42;False;2;P != T2?;ST1_low_3;1;Same;low;70;112;70;f;n;0;j;n;2502.4066000041785
t907kp#;43;False;2;P != T1?;DT1_high_5;1;Different;high;96;132;82;f;n;1;f;b;2033.9062999992166
t907kp#;44;False;2;P != T2?;ST1_low_2;1;Same;low;132;82;132;f;n;0;j;b;4119.343800004572
t907kp#;45;False;2;P != T1?;STb_6;0;Same;None;132;132;132;f;n;0;f;n;838.354999999865
t907kp#;46;False;2;P != T2?;ST1_low_3;1;Same;low;70;112;70;f;n;1;f;n;1557.2524000017438
t907kp#;47;False;2;P != T1?;ST2_high_5;2;Same;high;96;132;132;f;n;1;f;n;1128.1623999966541
t907kp#;48;False;2;P != T1?;ST2_low_2;2;Same;low;132;82;82;f;n;1;f;n;1072.1258000121452
t907kp#;49;False;2;P != T1?;ST2_low_4;2;Same;low;112;70;70;f;n;1;f;b;1431.9097000116017
t907kp#;50;False;2;P != T2?;ST1_high_5;1;Same;high;96;132;96;f;n;1;f;n;1867.1975000033854
t907kp#;51;False;2;P != T2?;DT1_low_4;1;Different;low;112;70;132;f;n;0;j;b;2155.023200000869
t907kp#;52;False;2;P != T1?;ST1_high_2;1;Same;high;112;82;112;f;n;0;f;v;1642.0198999985587
t907kp#;53;False;2;P != T2?;ST1_high_4;1;Same;high;96;70;96;f;n;0;j;n;2747.8344999981346
t907kp#;54;False;2;P != T2?;STb_1;0;Same;None;60;60;60;f;n;1;j;n;1971.2674999900628
t907kp#;55;False;2;P != T2?;ST1_high_4;1;Same;high;96;70;96;f;n;0;j;n;1631.2501000065822
t907kp#;56;False;2;P != T1?;STb_8;0;Same;None;180;180;180;f;n;1;j;v;3060.3513999958523
t907kp#;57;False;2;P != T1?;ST1_low_4;1;Same;low;112;70;112;f;n;1;j;v;7172.32199999853
t907kp#;58;False;2;P != T2?;STb_3;0;Same;None;82;82;82;f;n;1;j;v;805.3400999924634
t907kp#;59;False;2;P != T1?;DT1_high_2;1;Different;high;112;82;132;f;n;1;f;n;805.3750999970362
t907kp#;60;False;2;P != T1?;ST2_low_3;2;Same;low;70;112;112;f;n;0;j;b;2032.0380999910412
t907kp#;61;False;2;P != T2?;ST1_high_6;1;Same;high;132;96;132;f;n;0;j;b;1153.0974999914179
t907kp#;62;False;2;P != T1?;ST2_high_3;2;Same;high;70;96;96;f;n;0;j;v;2159.9282000097446
t907kp#;63;False;2;P != T2?;ST2_low_5;2;Same;low;96;154;154;f;n;1;j;b;2076.756199996453
t907kp#;64;False;2;P != T1?;ST1_low_1;1;Same;low;82;132;82;f;n;1;j;b;2328.678599995328
t907kp#;65;False;2;P != T2?;STb_8;0;Same;None;180;180;180;f;n;1;j;n;1283.7080999888713
t907kp#;66;False;2;P != T2?;ST2_high_4;2;Same;high;96;70;70;f;n;1;j;n;1656.637399995816
t907kp#;67;False;2;P != T1?;ST1_low_6;1;Same;low;154;96;154;f;n;1;j;b;1455.1353999995627
t907kp#;68;False;2;P != T2?;DT2_low_2;2;Different;low;132;82;70;f;n;1;f;v;4337.100799995824
t907kp#;69;False;2;P != T1?;ST2_low_3;2;Same;low;70;112;112;f;n;0;j;b;1553.7466000096174
t907kp#;70;False;2;P != T2?;ST1_high_3;1;Same;high;70;96;70;f;n;0;j;b;1614.2781999951694
t907kp#;71;False;2;P != T1?;STb_1;0;Same;None;60;60;60;f;n;1;j;v;1054.7324000071967
t907kp#;72;False;2;P != T2?;ST2_low_1;2;Same;low;82;132;132;f;n;1;j;b;1640.3960000025108
t907kp#;73;False;2;P != T2?;ST1_low_1;1;Same;low;82;132;82;f;n;1;f;b;2511.9735000043875
t907kp#;74;False;2;P != T2?;ST2_high_6;2;Same;high;132;96;96;f;n;1;j;n;828.0231999960961
t907kp#;75;False;2;P != T2?;ST2_high_1;2;Same;high;82;112;112;f;n;1;j;b;1321.9645999924978
t907kp#;76;False;2;P != T1?;ST1_high_5;1;Same;high;96;132;96;f;n;0;f;n;1014.2677999974694
t907kp#;77;False;2;P != T1?;ST1_high_4;1;Same;high;96;70;96;f;n;1;j;n;1205.0608999998076
t907kp#;78;False;2;P != T2?;ST1_low_4;1;Same;low;112;70;112;f;n;1;f;n;2601.4071999961743
t907kp#;79;False;2;P != T1?;ST2_low_6;2;Same;low;154;96;96;f;n;1;f;n;1117.510099997162
t907kp#;80;False;2;P != T2?;DT2_high_3;2;Different;high;70;96;112;f;n;0;j;b;2276.4394000114407
t907kp#;81;False;2;P != T1?;ST1_high_3;1;Same;high;70;96;70;f;n;1;j;n;1608.7925000028918
t907kp#;82;False;2;P != T2?;ST1_low_4;1;Same;low;112;70;112;f;n;1;f;n;1048.719099999289
t907kp#;83;False;2;P != T2?;ST1_low_5;1;Same;low;96;154;96;f;n;1;f;v;1294.139499994344
t907kp#;84;False;2;P != T1?;ST2_high_1;2;Same;high;82;112;112;f;n;1;f;b;1101.3123000011547
t907kp#;85;False;2;P != T1?;ST1_high_1;1;Same;high;82;112;82;f;n;1;j;n;1192.0561000006273
t907kp#;86;False;2;P != T2?;ST2_high_1;2;Same;high;82;112;112;f;n;1;j;n;1941.6021999932127
t907kp#;87;False;2;P != T2?;ST2_low_4;2;Same;low;112;70;70;f;n;1;j;v;1691.2320999981603
t907kp#;88;False;2;P != T1?;ST2_high_6;2;Same;high;132;96;96;f;n;0;j;v;1041.4556999894558
t907kp#;89;False;2;P != T2?;ST2_low_2;2;Same;low;132;82;82;f;n;1;j;n;1171.931000004406
t907kp#;90;False;2;P != T2?;ST2_low_5;2;Same;low;96;154;154;f;n;1;j;n;1364.3169999995735
t907kp#;91;False;2;P != T2?;ST2_low_6;2;Same;low;154;96;96;f;n;1;j;b;1055.8460999891395
t907kp#;92;False;2;P != T1?;ST2_low_6;2;Same;low;154;96;96;f;n;0;j;b;1178.9404000010109
t907kp#;93;False;2;P != T1?;ST2_high_2;2;Same;high;112;82;82;f;n;1;f;n;1002.7948999922955
t907kp#;94;False;2;P != T1?;ST1_high_4;1;Same;high;96;70;96;f;n;1;j;n;1410.8368000015616
t907kp#;95;False;2;P != T1?;ST2_high_4;2;Same;high;96;70;70;f;n;1;f;b;1057.4072000017622
t907kp#;96;False;2;P != T2?;ST2_low_2;2;Same;low;132;82;82;f;n;0;f;n;1493.8112999952864
t907kp#;97;False;2;P != T1?;DT1_low_1;1;Different;low;82;132;70;f;n;0;j;n;1026.3470000063535
t907kp#;98;False;2;P != T1?;DT2_high_4;2;Different;high;96;70;60;f;n;1;f;v;2573.036999994656
t907kp#;99;False;2;P != T1?;ST2_low_5;2;Same;low;96;154;154;f;n;0;j;n;1423.4843000012916
t907kp#;100;False;2;P != T2?;DT1_high_5;1;Different;high;96;132;82;f;n;0;j;b;1232.8713000024436
t907kp#;101;False;2;P != T2?;ST1_low_1;1;Same;low;82;132;82;f;n;1;f;b;1237.578800006304
t907kp#;102;False;2;P != T2?;ST2_low_2;2;Same;low;132;82;82;f;n;0;f;b;1421.3635000051
t907kp#;103;False;2;P != T2?;ST2_high_3;2;Same;high;70;96;96;f;n;1;j;v;2277.742100006435
t907kp#;104;False;2;P != T2?;ST1_high_2;1;Same;high;112;82;112;f;n;0;j;b;1250.340699989465
t907kp#;105;False;2;P != T1?;DT1_low_3;1;Different;low;70;112;60;f;n;0;j;b;2000.858600003994
t907kp#;106;False;2;P != T2?;ST1_high_5;1;Same;high;96;132;96;f;n;1;f;b;1211.754199990537
t907kp#;107;False;2;P != T1?;ST2_high_1;2;Same;high;82;112;112;f;n;0;j;b;4082.8562999959104
t907kp#;108;False;2;P != T1?;ST1_high_6;1;Same;high;132;96;132;f;n;0;f;b;1239.193500005058
t907kp#;109;False;2;P != T2?;ST2_low_6;2;Same;low;154;96;96;f;n;1;j;n;1141.972600002191
t907kp#;110;False;2;P != T1?;ST1_high_6;1;Same;high;132;96;132;f;n;1;j;n;1258.3615000039572
t907kp#;111;False;2;P != T2?;ST2_high_3;2;Same;high;70;96;96;f;n;1;j;b;1089.962199999718
t907kp#;112;False;2;P != T2?;STb_4;0;Same;None;96;96;96;f;n;1;j;b;1172.7778999920702
t907kp#;113;False;2;P != T1?;ST2_high_6;2;Same;high;132;96;96;f;n;1;f;v;4234.394800005248
t907kp#;114;False;2;P != T1?;ST1_high_5;1;Same;high;96;132;96;f;n;1;j;v;4454.413300001761
t907kp#;115;False;2;P != T1?;ST2_low_6;2;Same;low;154;96;96;f;n;1;f;n;873.9367999951355
t907kp#;116;False;2;P != T2?;ST1_low_6;1;Same;low;154;96;154;f;n;1;f;b;974.8423999990337
t907kp#;117;False;2;P != T2?;STb_2;0;Same;None;70;70;70;f;n;1;j;b;1462.4066000105813
t907kp#;118;False;2;P != T1?;DT2_high_3;2;Different;high;70;96;112;f;n;1;f;v;4028.5047000070335
t907kp#;119;False;2;P != T2?;ST2_high_5;2;Same;high;96;132;132;f;n;1;j;b;1261.4860000030603
t907kp#;120;False;2;P != T1?;ST2_low_1;2;Same;low;82;132;132;f;n;0;j;b;1258.877999993274
t907kp#;121;False;2;P != T2?;STb_6;0;Same;None;132;132;132;f;n;0;f;n;1098.172700003488
t907kp#;122;False;2;P != T1?;ST2_high_3;2;Same;high;70;96;96;f;n;0;j;n;919.0757000033045
t907kp#;123;False;2;P != T2?;DT1_high_4;1;Different;high;96;70;112;f;n;1;f;b;1326.0111000126926
t907kp#;124;False;2;P != T2?;ST1_low_5;1;Same;low;96;154;96;f;n;1;f;v;3067.786300001899
t907kp#;125;False;2;P != T1?;ST1_low_4;1;Same;low;112;70;112;f;n;0;f;n;918.7910999899032
t907kp#;126;False;2;P != T1?;ST2_low_1;2;Same;low;82;132;132;f;n;1;f;n;898.5352000017883
t907kp#;127;False;2;P != T2?;ST1_high_1;1;Same;high;82;112;82;f;n;0;j;n;1085.1077000115765
t907kp#;128;False;2;P != T1?;ST2_high_2;2;Same;high;112;82;82;f;n;0;j;n;1105.1620000071125
t907kp#;129;False;2;P != T1?;ST1_low_6;1;Same;low;154;96;154;f;n;1;j;n;1484.6932999935234
t907kp#;130;False;2;P != T2?;ST2_low_1;2;Same;low;82;132;132;f;n;1;j;v;2965.8897999906912
t907kp#;131;False;2;P != T1?;ST1_low_5;1;Same;low;96;154;96;f;n;1;j;n;1129.1108000004897
t907kp#;132;False;2;P != T1?;ST1_low_1;1;Same;low;82;132;82;f;n;1;j;n;1084.450399997877
t907kp#;133;False;2;P != T2?;ST1_high_3;1;Same;high;70;96;70;f;n;0;j;b;950.5410999991
t907kp#;134;False;2;P != T1?;ST2_high_4;2;Same;high;96;70;70;f;n;1;f;v;4931.356200002483
t907kp#;135;False;2;P != T2?;ST1_low_6;1;Same;low;154;96;154;f;n;0;j;b;3831.877999997232
t907kp#;136;False;2;P != T1?;ST1_low_3;1;Same;low;70;112;70;f;n;1;j;n;953.4752999898046
t907kp#;137;False;2;P != T2?;ST2_low_1;2;Same;low;82;132;132;f;n;0;f;b;4540.173399989726
t907kp#;138;False;2;P != T2?;ST2_low_3;2;Same;low;70;112;112;f;n;1;j;n;1030.4799000005005
t907kp#;139;False;2;P != T1?;ST1_high_3;1;Same;high;70;96;70;f;n;1;j;v;4198.798199999146
t907kp#;140;False;2;P != T2?;ST1_high_3;1;Same;high;70;96;70;f;n;0;j;n;1123.0163000000175
t907kp#;141;False;2;P != T2?;ST1_low_5;1;Same;low;96;154;96;f;n;0;j;b;1728.6802000016905
t907kp#;142;False;2;P != T1?;ST1_low_2;1;Same;low;132;82;132;f;n;1;j;b;1621.136400004616
t907kp#;143;False;2;P != T2?;ST2_high_4;2;Same;high;96;70;70;f;n;1;j;b;1969.54089999781
t907kp#;144;False;2;P != T1?;ST1_high_4;1;Same;high;96;70;96;f;n;1;j;v;1547.3914000031073
t907kp#;145;False;2;P != T2?;ST2_high_4;2;Same;high;96;70;70;f;n;0;f;b;1329.8408999980893
t907kp#;146;False;2;P != T2?;STb_7;0;Same;None;154;154;154;f;n;1;j;b;1600.8634999889182
t907kp#;147;False;2;P != T2?;DT1_low_6;1;Different;low;154;96;180;f;n;1;f;n;996.7994000035105
t907kp#;148;False;2;P != T1?;ST1_high_2;1;Same;high;112;82;112;f;n;1;j;b;1549.5436999917729
t907kp#;149;False;2;P != T2?;ST2_high_2;2;Same;high;112;82;82;f;n;0;f;v;2938.9139999984764
t907kp#;150;False;2;P != T2?;ST1_low_1;1;Same;low;82;132;82;f;n;0;j;b;1282.2019000013825
t907kp#;151;False;2;P != T2?;ST2_high_2;2;Same;high;112;82;82;f;n;1;j;b;1617.5837000046158
t907kp#;152;False;2;P != T2?;ST2_low_3;2;Same;low;70;112;112;f;n;0;f;b;1077.3407999949995
t907kp#;153;False;2;P != T2?;DT2_high_4;2;Different;high;96;70;60;f;n;0;j;b;2370.8115999907022
t907kp#;154;False;2;P != T1?;ST2_low_2;2;Same;low;132;82;82;f;n;1;f;n;921.0218999942299
t907kp#;155;False;2;P != T1?;ST2_high_3;2;Same;high;70;96;96;f;n;1;f;b;1040.3535000077682
t907kp#;156;False;2;P != T2?;ST1_high_4;1;Same;high;96;70;96;f;n;0;j;n;1392.7139000006719
t907kp#;157;False;2;P != T2?;ST1_high_2;1;Same;high;112;82;112;f;n;0;j;b;1877.6446999982
t907kp#;158;False;2;P != T1?;ST1_high_3;1;Same;high;70;96;70;f;n;1;j;n;1262.629000004381
t907kp#;159;False;2;P != T1?;ST2_low_5;2;Same;low;96;154;154;f;n;0;j;b;1432.415300005232
t907kp#;160;False;2;P != T1?;ST1_high_2;1;Same;high;112;82;112;f;n;1;j;n;986.4302999922074
t907kp#;161;False;2;P != T2?;ST2_high_6;2;Same;high;132;96;96;f;n;0;f;n;1211.704200002714
t907kp#;162;False;2;P != T1?;ST2_low_3;2;Same;low;70;112;112;f;n;1;f;b;869.7271999990335
t907kp#;163;False;2;P != T2?;ST1_low_2;1;Same;low;132;82;132;f;n;1;f;n;1818.0276000057347
t907kp#;164;False;2;P != T2?;ST1_high_6;1;Same;high;132;96;132;f;n;1;f;v;1175.082099987776
t907kp#;165;False;2;P != T1?;ST1_high_6;1;Same;high;132;96;132;f;n;1;j;n;1408.670400007395
t907kp#;166;False;2;P != T2?;DT2_low_4;2;Different;low;112;70;60;f;n;0;j;v;4519.42520000739
t907kp#;167;False;2;P != T1?;STb_4;0;Same;None;96;96;96;f;n;1;j;n;1316.38409999141
t907kp#;168;False;2;P != T1?;ST2_low_4;2;Same;low;112;70;70;f;n;1;f;b;1152.8248999966308
t907kp#;169;False;2;P != T1?;ST1_high_1;1;Same;high;82;112;82;f;n;0;f;b;1467.1756000025198
t907kp#;170;False;2;P != T2?;ST1_high_2;1;Same;high;112;82;112;f;n;0;j;b;6582.543800002895
t907kp#;171;False;2;P != T2?;ST1_high_1;1;Same;high;82;112;82;f;n;1;f;n;1148.8742999936221
t907kp#;172;False;2;P != T1?;DT1_high_1;1;Different;high;82;112;70;f;n;0;j;n;1254.747300001327
t907kp#;173;False;2;P != T1?;STb_2;0;Same;None;70;70;70;f;n;1;j;n;884.1083999868715
t907kp#;174;False;2;P != T2?;ST2_high_6;2;Same;high;132;96;96;f;n;1;j;b;1118.8916999963112
t907kp#;175;False;2;P != T2?;ST2_high_1;2;Same;high;82;112;112;f;n;1;j;v;4618.459799996344
t907kp#;176;False;2;P != T1?;ST1_low_4;1;Same;low;112;70;112;f;n;1;j;n;938.8657000090461
