p_code;trial_nr;practice;block;question;condition;seqPos;Same_or_Diff;ITS;T1_hz;T2_hz;P_hz;yes_key;sure_key;correct;yes_no;rating;resp_time
f392!us;1;True;1;P = T1?;DT1_low_2;1;Different;low;132;82;154;j;v;1;f;b;2227.6875999996264
f392!us;2;True;1;P = T2?;STb_6;0;Same;None;132;132;132;j;v;1;j;n;2543.609899999865
f392!us;3;True;1;P = T1?;ST1_low_2;1;Same;low;132;82;132;j;v;1;j;n;1192.3885000014707
f392!us;4;True;1;P = T2?;DT1_low_2;1;Different;low;132;82;154;j;v;1;f;b;1607.8125999993063
f392!us;5;True;1;P = T2?;ST2_low_1;2;Same;low;82;132;132;j;v;1;j;b;1191.805700000259
f392!us;6;True;1;P = T2?;STb_7;0;Same;None;154;154;154;j;v;0;f;b;1963.01830000084
f392!us;7;True;1;P = T1?;ST1_high_5;1;Same;high;96;132;96;j;v;1;j;b;1022.9466000000684
f392!us;8;True;1;P = T1?;STb_8;0;Same;None;180;180;180;j;v;0;f;n;2271.577800000159
f392!us;9;True;1;P = T1?;STb_2;0;Same;None;70;70;70;j;v;0;f;n;2016.3208000012673
f392!us;10;True;1;P = T2?;ST1_low_4;1;Same;low;112;70;112;j;v;1;f;b;1337.6392999998643
f392!us;11;True;1;P = T2?;DT2_high_1;2;Different;high;82;112;132;j;v;0;j;n;1000.602500000241
f392!us;12;True;1;P = T1?;DT1_low_1;1;Different;low;82;132;70;j;v;0;j;b;1361.6717999993853
f392!us;13;True;1;P = T1?;ST2_low_1;2;Same;low;82;132;132;j;v;1;f;b;1462.588100001085
f392!us;14;True;1;P = T2?;ST2_high_1;2;Same;high;82;112;112;j;v;1;j;b;904.8889000005147
f392!us;15;True;1;P = T2?;ST1_low_3;1;Same;low;70;112;70;j;v;1;f;b;1342.6128000010067
f392!us;16;True;1;P = T1?;ST2_high_2;2;Same;high;112;82;82;j;v;1;f;b;1522.329000001264
p_code;trial_nr;practice;block;question;condition;seqPos;Same_or_Diff;ITS;T1_hz;T2_hz;P_hz;yes_key;sure_key;correct;yes_no;rating;resp_time
f392!us;1;False;1;P = T1?;ST2_high_3;2;Same;high;70;96;96;j;v;0;j;n;992.2884999996313
f392!us;2;False;1;P = T1?;ST1_low_6;1;Same;low;154;96;154;j;v;1;j;b;904.6176000010746
f392!us;3;False;1;P = T1?;ST2_low_6;2;Same;low;154;96;96;j;v;1;f;b;1337.8769000009925
f392!us;4;False;1;P = T1?;ST1_low_3;1;Same;low;70;112;70;j;v;1;j;n;1006.0979999998381
f392!us;5;False;1;P = T2?;ST2_low_4;2;Same;low;112;70;70;j;v;1;j;b;919.12450000018
f392!us;6;False;1;P = T2?;ST1_high_1;1;Same;high;82;112;82;j;v;0;j;n;848.2622000010451
f392!us;7;False;1;P = T1?;STb_7;0;Same;None;154;154;154;j;v;1;j;n;924.8780999987503
f392!us;8;False;1;P = T2?;ST2_low_5;2;Same;low;96;154;154;j;v;1;j;b;838.8261999989481
f392!us;9;False;1;P = T1?;STb_5;0;Same;None;112;112;112;j;v;0;f;n;2029.8738999990746
f392!us;10;False;1;P = T1?;ST1_low_4;1;Same;low;112;70;112;j;v;0;f;b;1448.9146000014443
f392!us;11;False;1;P = T1?;ST1_low_5;1;Same;low;96;154;96;j;v;1;j;n;902.751999999964
f392!us;12;False;1;P = T2?;ST2_high_4;2;Same;high;96;70;70;j;v;1;j;n;3109.3345999997837
f392!us;13;False;1;P = T2?;ST1_low_4;1;Same;low;112;70;112;j;v;1;f;b;1206.6601999995328
f392!us;14;False;1;P = T2?;ST1_high_3;1;Same;high;70;96;70;j;v;1;f;b;2144.987499999843
f392!us;15;False;1;P = T1?;STb_4;0;Same;None;96;96;96;j;v;0;f;n;1260.4952999990928
f392!us;16;False;1;P = T1?;ST1_low_4;1;Same;low;112;70;112;j;v;1;j;n;863.7758000004396
f392!us;17;False;1;P = T2?;ST1_high_4;1;Same;high;96;70;96;j;v;1;f;b;1162.7466999998433
f392!us;18;False;1;P = T1?;ST1_low_1;1;Same;low;82;132;82;j;v;1;j;n;1350.9898000011162
f392!us;19;False;1;P = T2?;ST2_low_2;2;Same;low;132;82;82;j;v;1;j;b;776.52229999876
f392!us;20;False;1;P = T2?;ST2_low_6;2;Same;low;154;96;96;j;v;1;j;b;764.7432999983721
f392!us;21;False;1;P = T1?;ST1_low_2;1;Same;low;132;82;132;j;v;1;j;n;1007.186200000433
f392!us;22;False;1;P = T1?;ST2_low_1;2;Same;low;82;132;132;j;v;0;j;n;700.5483000011736
f392!us;23;False;1;P = T1?;ST1_high_5;1;Same;high;96;132;96;j;v;0;f;b;1068.5276000003796
f392!us;24;False;1;P = T1?;ST1_high_2;1;Same;high;112;82;112;j;v;1;j;n;879.2035999995278
f392!us;25;False;1;P = T2?;DT2_high_4;2;Different;high;96;70;60;j;v;1;f;b;937.0718999998644
f392!us;26;False;1;P = T2?;ST2_low_4;2;Same;low;112;70;70;j;v;0;f;b;2199.5649000000412
f392!us;27;False;1;P = T2?;DT1_low_1;1;Different;low;82;132;70;j;v;1;f;n;1083.4599000008893
f392!us;28;False;1;P = T1?;ST1_low_5;1;Same;low;96;154;96;j;v;1;j;b;1436.636800000997
f392!us;29;False;1;P = T2?;ST1_high_1;1;Same;high;82;112;82;j;v;1;f;b;2890.350600000602
f392!us;30;False;1;P = T2?;ST1_high_2;1;Same;high;112;82;112;j;v;0;j;n;1840.5649999986053
f392!us;31;False;1;P = T2?;ST1_high_6;1;Same;high;132;96;132;j;v;0;j;n;1485.9692999998515
f392!us;32;False;1;P = T2?;ST2_high_2;2;Same;high;112;82;82;j;v;0;f;n;1429.087000000436
f392!us;33;False;1;P = T1?;ST2_low_4;2;Same;low;112;70;70;j;v;1;f;b;1196.4258999996673
f392!us;34;False;1;P = T1?;ST2_low_1;2;Same;low;82;132;132;j;v;1;f;n;3239.2210999987583
f392!us;35;False;1;P = T2?;ST1_low_6;1;Same;low;154;96;154;j;v;0;j;n;1597.9937999982212
f392!us;36;False;1;P = T2?;ST2_low_2;2;Same;low;132;82;82;j;v;1;j;b;2098.927000000913
f392!us;37;False;1;P = T2?;ST1_low_4;1;Same;low;112;70;112;j;v;1;f;b;1281.2575999996625
f392!us;38;False;1;P = T1?;ST2_low_4;2;Same;low;112;70;70;j;v;1;f;b;1412.8313999990496
f392!us;39;False;1;P = T2?;ST1_high_6;1;Same;high;132;96;132;j;v;0;j;b;827.883699999802
f392!us;40;False;1;P = T1?;ST1_high_2;1;Same;high;112;82;112;j;v;0;f;n;1643.4533999999985
f392!us;41;False;1;P = T2?;ST1_low_3;1;Same;low;70;112;70;j;v;1;f;b;1201.0910000008153
f392!us;42;False;1;P = T1?;ST2_low_2;2;Same;low;132;82;82;j;v;1;f;b;1271.1835999998584
f392!us;43;False;1;P = T1?;ST2_low_6;2;Same;low;154;96;96;j;v;1;f;n;1698.5200999988592
f392!us;44;False;1;P = T2?;DT1_high_1;1;Different;high;82;112;70;j;v;1;f;b;1452.1304999998392
f392!us;45;False;1;P = T1?;ST2_high_3;2;Same;high;70;96;96;j;v;0;j;b;1000.8567000004405
f392!us;46;False;1;P = T1?;ST2_high_1;2;Same;high;82;112;112;j;v;0;j;n;2299.5929999997315
f392!us;47;False;1;P = T2?;ST1_low_5;1;Same;low;96;154;96;j;v;1;f;n;998.4602000004088
f392!us;48;False;1;P = T1?;ST1_low_1;1;Same;low;82;132;82;j;v;1;j;n;940.7614000010653
f392!us;49;False;1;P = T2?;DT2_low_1;2;Different;low;82;132;154;j;v;0;j;n;1191.7080000002898
f392!us;50;False;1;P = T2?;ST2_low_5;2;Same;low;96;154;154;j;v;1;j;n;1792.4755999993067
f392!us;51;False;1;P = T1?;ST2_high_6;2;Same;high;132;96;96;j;v;1;f;n;1415.4753999991954
f392!us;52;False;1;P = T2?;STb_2;0;Same;None;70;70;70;j;v;1;j;b;564.4216000000597
f392!us;53;False;1;P = T1?;ST1_high_2;1;Same;high;112;82;112;j;v;1;j;n;1884.512900000118
f392!us;54;False;1;P = T1?;ST2_high_5;2;Same;high;96;132;132;j;v;0;j;n;1488.010299999587
f392!us;55;False;1;P = T2?;ST1_high_3;1;Same;high;70;96;70;j;v;0;j;n;1173.7788999998884
f392!us;56;False;1;P = T2?;DT1_high_4;1;Different;high;96;70;112;j;v;1;f;b;1147.7943000008963
f392!us;57;False;1;P = T2?;STb_5;0;Same;None;112;112;112;j;v;0;f;n;2158.43329999916
f392!us;58;False;1;P = T2?;ST1_high_2;1;Same;high;112;82;112;j;v;0;j;n;1159.2746999995143
f392!us;59;False;1;P = T2?;ST1_high_4;1;Same;high;96;70;96;j;v;0;j;n;836.5802999996959
f392!us;60;False;1;P = T1?;ST2_low_6;2;Same;low;154;96;96;j;v;1;f;n;1732.9196999999112
f392!us;61;False;1;P = T2?;ST1_low_6;1;Same;low;154;96;154;j;v;0;j;n;817.9080999998405
f392!us;62;False;1;P = T1?;ST1_high_6;1;Same;high;132;96;132;j;v;1;j;n;994.8466999994707
f392!us;63;False;1;P = T2?;ST1_low_1;1;Same;low;82;132;82;j;v;1;f;b;998.8692999995692
f392!us;64;False;1;P = T2?;ST2_high_1;2;Same;high;82;112;112;j;v;1;j;b;1453.0418000013015
f392!us;65;False;1;P = T1?;ST2_low_5;2;Same;low;96;154;154;j;v;0;j;n;1440.2747999993153
f392!us;66;False;1;P = T2?;ST2_high_4;2;Same;high;96;70;70;j;v;1;j;n;977.9297999994014
f392!us;67;False;1;P = T2?;DT2_low_6;2;Different;low;154;96;82;j;v;1;f;b;745.6999999994878
f392!us;68;False;1;P = T2?;ST2_low_3;2;Same;low;70;112;112;j;v;0;f;n;1951.813100000436
f392!us;69;False;1;P = T1?;ST1_low_3;1;Same;low;70;112;70;j;v;1;j;n;1257.896699999037
f392!us;70;False;1;P = T2?;ST1_low_5;1;Same;low;96;154;96;j;v;1;f;n;3598.5772000003635
f392!us;71;False;1;P = T1?;ST1_high_5;1;Same;high;96;132;96;j;v;1;j;n;1444.6213000010175
f392!us;72;False;1;P = T2?;ST1_high_5;1;Same;high;96;132;96;j;v;1;f;n;1323.9352000000508
f392!us;73;False;1;P = T2?;ST1_low_3;1;Same;low;70;112;70;j;v;0;j;n;852.0842999987508
f392!us;74;False;1;P = T2?;ST1_low_1;1;Same;low;82;132;82;j;v;1;f;b;881.4697999987402
f392!us;75;False;1;P = T1?;DT1_high_6;1;Different;high;132;96;154;j;v;0;j;n;2119.4127000017033
f392!us;76;False;1;P = T1?;ST2_high_4;2;Same;high;96;70;70;j;v;1;f;b;934.4513000014558
f392!us;77;False;1;P = T2?;ST2_low_6;2;Same;low;154;96;96;j;v;0;f;n;2034.7445999996125
f392!us;78;False;1;P = T2?;ST2_low_3;2;Same;low;70;112;112;j;v;1;j;b;1003.8565999984712
f392!us;79;False;1;P = T2?;ST1_high_5;1;Same;high;96;132;96;j;v;1;f;b;1129.2795999997907
f392!us;80;False;1;P = T1?;ST2_low_2;2;Same;low;132;82;82;j;v;1;f;b;1760.1481000001513
f392!us;81;False;1;P = T2?;ST2_low_1;2;Same;low;82;132;132;j;v;1;j;n;1331.9572000000335
f392!us;82;False;1;P = T2?;ST2_high_2;2;Same;high;112;82;82;j;v;1;j;b;1843.3362000014313
f392!us;83;False;1;P = T2?;ST2_high_1;2;Same;high;82;112;112;j;v;1;j;n;1273.6172000004444
f392!us;84;False;1;P = T2?;ST1_high_4;1;Same;high;96;70;96;j;v;1;f;n;3451.682199998686
f392!us;85;False;1;P = T1?;ST1_low_2;1;Same;low;132;82;132;j;v;1;j;n;1383.2245000012335
f392!us;86;False;1;P = T1?;ST2_high_1;2;Same;high;82;112;112;j;v;1;f;n;1047.317500000645
f392!us;87;False;1;P = T2?;ST1_low_6;1;Same;low;154;96;154;j;v;1;f;v;1310.919899999135
f392!us;88;False;1;P = T1?;ST1_low_6;1;Same;low;154;96;154;j;v;0;f;n;1168.246300001556
f392!us;89;False;1;P = T1?;ST1_low_5;1;Same;low;96;154;96;j;v;1;j;b;818.022799998289
f392!us;90;False;1;P = T2?;STb_3;0;Same;None;82;82;82;j;v;1;j;n;2214.7259000012127
f392!us;91;False;1;P = T1?;ST1_high_1;1;Same;high;82;112;82;j;v;0;f;n;2857.3957000007795
f392!us;92;False;1;P = T2?;ST1_low_2;1;Same;low;132;82;132;j;v;1;f;n;11746.096500000931
f392!us;93;False;1;P = T1?;ST2_high_6;2;Same;high;132;96;96;j;v;1;f;n;709.9231000011059
f392!us;94;False;1;P = T1?;ST1_low_6;1;Same;low;154;96;154;j;v;1;j;n;719.952800000101
f392!us;95;False;1;P = T2?;ST1_high_6;1;Same;high;132;96;132;j;v;1;f;n;883.1950999992841
f392!us;96;False;1;P = T2?;ST2_high_4;2;Same;high;96;70;70;j;v;1;j;b;825.1553000009153
f392!us;97;False;1;P = T2?;ST1_low_2;1;Same;low;132;82;132;j;v;1;f;n;1449.1872999988118
f392!us;98;False;1;P = T2?;ST1_high_1;1;Same;high;82;112;82;j;v;1;f;n;1464.9205999994592
f392!us;99;False;1;P = T1?;ST2_high_1;2;Same;high;82;112;112;j;v;1;f;b;1148.8404000010632
f392!us;100;False;1;P = T2?;STb_6;0;Same;None;132;132;132;j;v;1;j;b;753.9505999993708
f392!us;101;False;1;P = T1?;ST2_high_4;2;Same;high;96;70;70;j;v;1;f;n;1016.5559000015492
f392!us;102;False;1;P = T1?;ST2_low_5;2;Same;low;96;154;154;j;v;1;f;n;1708.1866999978956
f392!us;103;False;1;P = T1?;STb_8;0;Same;None;180;180;180;j;v;1;j;n;913.3962000014435
f392!us;104;False;1;P = T1?;STb_3;0;Same;None;82;82;82;j;v;1;j;n;714.9993000020913
f392!us;105;False;1;P = T1?;ST1_high_6;1;Same;high;132;96;132;j;v;1;j;n;1202.4668000012753
f392!us;106;False;1;P = T2?;ST2_low_6;2;Same;low;154;96;96;j;v;1;j;n;1257.0918000019446
f392!us;107;False;1;P = T2?;DT1_low_2;1;Different;low;132;82;154;j;v;1;f;n;1588.0234999967797
f392!us;108;False;1;P = T1?;ST1_low_1;1;Same;low;82;132;82;j;v;1;j;n;1671.0327000000689
f392!us;109;False;1;P = T2?;STb_4;0;Same;None;96;96;96;j;v;1;j;n;1488.332500000979
f392!us;110;False;1;P = T1?;DT2_low_3;2;Different;low;70;112;132;j;v;1;f;n;6462.400200001866
f392!us;111;False;1;P = T1?;ST1_high_1;1;Same;high;82;112;82;j;v;0;f;n;2262.6765000022715
f392!us;112;False;1;P = T1?;ST1_high_4;1;Same;high;96;70;96;j;v;1;j;n;831.0673000014503
f392!us;113;False;1;P = T2?;ST1_low_4;1;Same;low;112;70;112;j;v;1;f;n;2641.437700000097
f392!us;114;False;1;P = T2?;ST1_low_3;1;Same;low;70;112;70;j;v;1;f;n;1108.5029000023496
f392!us;115;False;1;P = T1?;ST1_low_2;1;Same;low;132;82;132;j;v;0;f;n;1520.5643000008422
f392!us;116;False;1;P = T1?;ST1_low_3;1;Same;low;70;112;70;j;v;1;j;n;1351.0209999985818
f392!us;117;False;1;P = T2?;ST2_low_1;2;Same;low;82;132;132;j;v;1;j;b;1705.3135999994993
f392!us;118;False;1;P = T1?;ST2_high_6;2;Same;high;132;96;96;j;v;0;j;n;705.5800999987696
f392!us;119;False;1;P = T2?;ST1_low_2;1;Same;low;132;82;132;j;v;1;f;n;1151.2937000006787
f392!us;120;False;1;P = T2?;ST1_low_1;1;Same;low;82;132;82;j;v;1;f;n;1726.9608999995398
f392!us;121;False;1;P = T1?;ST2_high_2;2;Same;high;112;82;82;j;v;1;f;b;887.6984999988053
f392!us;122;False;1;P = T1?;ST1_high_3;1;Same;high;70;96;70;j;v;0;f;n;1498.3145999976841
f392!us;123;False;1;P = T1?;ST2_low_1;2;Same;low;82;132;132;j;v;1;f;n;1050.2569000018411
f392!us;124;False;1;P = T2?;STb_7;0;Same;None;154;154;154;j;v;1;j;b;1617.101100000582
f392!us;125;False;1;P = T2?;ST2_high_6;2;Same;high;132;96;96;j;v;1;j;b;1544.534399999975
f392!us;126;False;1;P = T1?;ST1_high_3;1;Same;high;70;96;70;j;v;1;j;n;2117.5273999979254
f392!us;127;False;1;P = T1?;ST2_low_4;2;Same;low;112;70;70;j;v;1;f;n;1251.7643999999564
f392!us;128;False;1;P = T1?;ST2_high_5;2;Same;high;96;132;132;j;v;0;j;b;964.4310000003316
f392!us;129;False;1;P = T2?;ST2_low_4;2;Same;low;112;70;70;j;v;1;j;v;1563.148799999908
f392!us;130;False;1;P = T2?;STb_8;0;Same;None;180;180;180;j;v;1;j;b;914.9128000026394
f392!us;131;False;1;P = T2?;STb_1;0;Same;None;60;60;60;j;v;1;j;b;723.4232999981032
f392!us;132;False;1;P = T1?;DT1_low_2;1;Different;low;132;82;154;j;v;0;j;n;2357.445199999347
f392!us;133;False;1;P = T1?;STb_6;0;Same;None;132;132;132;j;v;1;j;b;789.3087999982527
f392!us;134;False;1;P = T2?;ST2_low_3;2;Same;low;70;112;112;j;v;1;j;n;755.3502000009757
f392!us;135;False;1;P = T1?;ST2_high_4;2;Same;high;96;70;70;j;v;0;j;n;1406.7557999987912
f392!us;136;False;1;P = T2?;ST2_low_5;2;Same;low;96;154;154;j;v;1;j;n;948.1813999991573
f392!us;137;False;1;P = T2?;ST1_high_2;1;Same;high;112;82;112;j;v;0;j;b;882.6511000006576
f392!us;138;False;1;P = T2?;ST2_high_1;2;Same;high;82;112;112;j;v;1;j;n;1163.6947999977565
f392!us;139;False;1;P = T2?;ST2_high_6;2;Same;high;132;96;96;j;v;1;j;n;560.7729000003019
f392!us;140;False;1;P = T1?;ST2_high_5;2;Same;high;96;132;132;j;v;0;j;n;839.0609000016411
f392!us;141;False;1;P = T1?;ST1_high_1;1;Same;high;82;112;82;j;v;1;j;n;789.5486999987043
f392!us;142;False;1;P = T2?;ST2_low_2;2;Same;low;132;82;82;j;v;1;j;n;1144.418100000621
f392!us;143;False;1;P = T1?;DT2_low_5;2;Different;low;96;154;180;j;v;1;f;n;1117.9482000006828
f392!us;144;False;1;P = T1?;DT1_high_4;1;Different;high;96;70;112;j;v;0;j;b;867.0314999981201
f392!us;145;False;1;P = T2?;ST2_high_5;2;Same;high;96;132;132;j;v;0;f;n;2426.471799997671
f392!us;146;False;1;P = T2?;ST2_high_3;2;Same;high;70;96;96;j;v;1;j;b;1164.592500001163
f392!us;147;False;1;P = T2?;DT1_high_3;1;Different;high;70;96;60;j;v;1;f;b;1649.2720000023837
f392!us;148;False;1;P = T1?;ST2_low_3;2;Same;low;70;112;112;j;v;1;f;b;911.6657999984454
f392!us;149;False;1;P = T2?;ST2_high_3;2;Same;high;70;96;96;j;v;1;j;b;1455.1840999993146
f392!us;150;False;1;P = T2?;ST2_high_5;2;Same;high;96;132;132;j;v;1;j;n;878.3531000008225
f392!us;151;False;1;P = T1?;STb_1;0;Same;None;60;60;60;j;v;1;j;v;1321.9616999995196
f392!us;152;False;1;P = T1?;ST1_high_4;1;Same;high;96;70;96;j;v;1;j;b;821.0604000014428
f392!us;153;False;1;P = T2?;ST1_high_5;1;Same;high;96;132;96;j;v;0;j;b;1176.9167999991623
f392!us;154;False;1;P = T2?;ST2_high_2;2;Same;high;112;82;82;j;v;1;j;b;914.8094000011042
f392!us;155;False;1;P = T1?;ST1_high_5;1;Same;high;96;132;96;j;v;1;j;n;1326.1851999995997
f392!us;156;False;1;P = T1?;ST2_low_5;2;Same;low;96;154;154;j;v;1;f;n;3616.408900001261
f392!us;157;False;1;P = T1?;ST2_low_3;2;Same;low;70;112;112;j;v;0;j;b;836.2660000020696
f392!us;158;False;1;P = T1?;ST1_low_4;1;Same;low;112;70;112;j;v;1;j;n;922.4818000002415
f392!us;159;False;1;P = T2?;ST2_low_1;2;Same;low;82;132;132;j;v;1;j;b;806.1827999990783
f392!us;160;False;1;P = T1?;DT2_high_1;2;Different;high;82;112;132;j;v;1;f;b;926.4669000003778
f392!us;161;False;1;P = T1?;ST2_high_2;2;Same;high;112;82;82;j;v;1;f;n;1210.2133999978832
f392!us;162;False;1;P = T1?;ST2_high_2;2;Same;high;112;82;82;j;v;1;f;n;1236.8352999983472
f392!us;163;False;1;P = T2?;ST1_low_5;1;Same;low;96;154;96;j;v;1;f;n;1116.8878999997105
f392!us;164;False;1;P = T2?;ST1_high_3;1;Same;high;70;96;70;j;v;0;j;b;1817.5995999990846
f392!us;165;False;1;P = T2?;ST2_high_5;2;Same;high;96;132;132;j;v;0;f;n;1416.2673999999242
f392!us;166;False;1;P = T2?;ST2_high_6;2;Same;high;132;96;96;j;v;1;j;n;1212.7368000001297
f392!us;167;False;1;P = T1?;DT1_high_1;1;Different;high;82;112;70;j;v;1;f;n;1399.5003000018187
f392!us;168;False;1;P = T1?;ST1_high_6;1;Same;high;132;96;132;j;v;1;j;b;831.0693999992509
f392!us;169;False;1;P = T1?;ST2_low_2;2;Same;low;132;82;82;j;v;0;j;n;1562.103999996907
f392!us;170;False;1;P = T1?;STb_2;0;Same;None;70;70;70;j;v;1;j;n;919.6666000025289
f392!us;171;False;1;P = T1?;ST2_low_3;2;Same;low;70;112;112;j;v;1;f;n;1127.9785000006086
f392!us;172;False;1;P = T1?;ST1_high_3;1;Same;high;70;96;70;j;v;1;j;b;876.0132999996131
f392!us;173;False;1;P = T2?;ST2_high_3;2;Same;high;70;96;96;j;v;0;f;n;1841.0129000003508
f392!us;174;False;1;P = T1?;ST2_high_3;2;Same;high;70;96;96;j;v;1;f;n;1095.8810999982234
f392!us;175;False;1;P = T1?;DT2_high_6;2;Different;high;132;96;82;j;v;0;j;n;910.5189999972936
f392!us;176;False;1;P = T1?;ST1_high_4;1;Same;high;96;70;96;j;v;1;j;b;984.4316000016988
f392!us;1;True;2;P != T1?;ST2_low_2;2;Same;low;132;82;82;j;v;1;j;n;4576.7687000006845
f392!us;2;True;2;P != T1?;STb_2;0;Same;None;70;70;70;j;v;1;f;n;2023.304599999392
f392!us;3;True;2;P != T1?;STb_1;0;Same;None;60;60;60;j;v;1;f;n;1296.747200001846
f392!us;4;True;2;P != T2?;STb_8;0;Same;None;180;180;180;j;v;1;f;n;2147.7316999989853
f392!us;5;True;2;P != T2?;ST2_low_3;2;Same;low;70;112;112;j;v;0;j;b;2297.0778000017162
f392!us;6;True;2;P != T2?;DT1_high_1;1;Different;high;82;112;70;j;v;1;j;n;3518.6204999990878
f392!us;7;True;2;P != T2?;DT1_low_5;1;Different;low;96;154;82;j;v;1;j;n;1944.5474999993166
f392!us;8;True;2;P != T1?;ST1_high_6;1;Same;high;132;96;132;j;v;0;j;n;1948.5822999995435
f392!us;9;True;2;P != T1?;DT2_low_3;2;Different;low;70;112;132;j;v;0;f;n;1531.0194000012416
f392!us;10;True;2;P != T2?;STb_1;0;Same;None;60;60;60;j;v;1;f;n;1801.8959000000905
f392!us;11;True;2;P != T2?;ST1_low_2;1;Same;low;132;82;132;j;v;1;j;n;5111.5219999992405
f392!us;12;True;2;P != T1?;ST2_low_1;2;Same;low;82;132;132;j;v;1;j;n;1764.9175000005926
f392!us;13;True;2;P != T2?;ST1_high_5;1;Same;high;96;132;96;j;v;0;f;n;2957.043000002159
f392!us;14;True;2;P != T1?;ST1_high_4;1;Same;high;96;70;96;j;v;1;f;n;3441.832299999078
f392!us;15;True;2;P != T2?;ST2_low_6;2;Same;low;154;96;96;j;v;1;f;n;1773.5184999983176
f392!us;16;True;2;P != T1?;DT2_low_1;2;Different;low;82;132;154;j;v;1;j;n;1603.7818000004336
f392!us;1;False;2;P != T1?;ST1_low_5;1;Same;low;96;154;96;j;v;1;f;n;2643.7416999979177
f392!us;2;False;2;P != T2?;STb_7;0;Same;None;154;154;154;j;v;1;f;n;1150.423499999306
f392!us;3;False;2;P != T1?;ST2_high_3;2;Same;high;70;96;96;j;v;1;j;n;1822.469299997465
f392!us;4;False;2;P != T2?;ST1_high_1;1;Same;high;82;112;82;j;v;0;f;n;1192.8482000002987
f392!us;5;False;2;P != T2?;ST1_low_5;1;Same;low;96;154;96;j;v;1;j;n;1541.0637999993924
f392!us;6;False;2;P != T1?;ST1_low_5;1;Same;low;96;154;96;j;v;0;j;n;1426.847099999577
f392!us;7;False;2;P != T1?;ST1_low_4;1;Same;low;112;70;112;j;v;1;f;n;1462.0012000013958
f392!us;8;False;2;P != T1?;STb_4;0;Same;None;96;96;96;j;v;1;f;b;1250.1435000012862
f392!us;9;False;2;P != T2?;ST1_low_5;1;Same;low;96;154;96;j;v;1;j;n;1780.6440000022121
f392!us;10;False;2;P != T2?;ST2_low_4;2;Same;low;112;70;70;j;v;1;f;n;1437.640400003147
f392!us;11;False;2;P != T1?;ST1_low_4;1;Same;low;112;70;112;j;v;1;f;n;1535.8358999983466
f392!us;12;False;2;P != T2?;ST1_low_4;1;Same;low;112;70;112;j;v;0;f;n;4260.284399999364
f392!us;13;False;2;P != T2?;ST1_high_4;1;Same;high;96;70;96;j;v;1;j;n;1727.355200000602
f392!us;14;False;2;P != T1?;ST1_high_4;1;Same;high;96;70;96;j;v;0;j;n;1320.0417999978526
f392!us;15;False;2;P != T1?;ST1_high_1;1;Same;high;82;112;82;j;v;1;f;n;1182.6049000010244
f392!us;16;False;2;P != T1?;STb_7;0;Same;None;154;154;154;j;v;1;f;n;859.3074999989767
f392!us;17;False;2;P != T1?;ST1_low_3;1;Same;low;70;112;70;j;v;1;f;n;1292.0096000016201
f392!us;18;False;2;P != T1?;ST2_low_4;2;Same;low;112;70;70;j;v;1;j;n;2112.214299999323
f392!us;19;False;2;P != T1?;ST2_low_4;2;Same;low;112;70;70;j;v;1;j;n;1612.1544999987236
f392!us;20;False;2;P != T1?;ST2_high_4;2;Same;high;96;70;70;j;v;1;j;n;1984.3044000008376
f392!us;21;False;2;P != T2?;ST2_low_6;2;Same;low;154;96;96;j;v;0;j;n;1989.2724999990605
f392!us;22;False;2;P != T2?;ST2_low_2;2;Same;low;132;82;82;j;v;1;f;n;1213.224299997819
f392!us;23;False;2;P != T1?;ST1_high_1;1;Same;high;82;112;82;j;v;1;f;n;1261.9340000019292
f392!us;24;False;2;P != T1?;ST1_low_6;1;Same;low;154;96;154;j;v;1;f;n;1926.1135999986436
f392!us;25;False;2;P != T2?;ST2_high_5;2;Same;high;96;132;132;j;v;1;f;n;1198.2619000009436
f392!us;26;False;2;P != T1?;ST2_high_1;2;Same;high;82;112;112;j;v;0;f;n;778.8034999975935
f392!us;27;False;2;P != T2?;ST1_low_6;1;Same;low;154;96;154;j;v;1;j;n;1386.2872999998217
f392!us;28;False;2;P != T2?;DT2_low_2;2;Different;low;132;82;70;j;v;0;f;n;932.9360999981873
f392!us;29;False;2;P != T1?;ST2_high_5;2;Same;high;96;132;132;j;v;0;f;n;1702.0464000015636
f392!us;30;False;2;P != T1?;ST2_high_6;2;Same;high;132;96;96;j;v;0;f;n;1445.063899998786
f392!us;31;False;2;P != T1?;ST1_low_2;1;Same;low;132;82;132;j;v;1;f;n;720.2954000022146
f392!us;32;False;2;P != T2?;ST1_low_2;1;Same;low;132;82;132;j;v;1;j;n;1981.5329000011843
f392!us;33;False;2;P != T2?;DT1_low_1;1;Different;low;82;132;70;j;v;0;f;n;2277.8341000012006
f392!us;34;False;2;P != T2?;ST2_low_1;2;Same;low;82;132;132;j;v;1;f;n;870.5736000010802
f392!us;35;False;2;P != T2?;STb_2;0;Same;None;70;70;70;j;v;1;f;n;774.1946000023745
f392!us;36;False;2;P != T1?;ST1_high_3;1;Same;high;70;96;70;j;v;1;f;n;1291.4928999998665
f392!us;37;False;2;P != T2?;ST1_high_6;1;Same;high;132;96;132;j;v;0;f;n;1103.7316000001738
f392!us;38;False;2;P != T2?;ST2_low_1;2;Same;low;82;132;132;j;v;1;f;n;1897.8062999995018
f392!us;39;False;2;P != T2?;ST1_low_3;1;Same;low;70;112;70;j;v;0;f;n;1712.4891999992542
f392!us;40;False;2;P != T1?;ST2_high_2;2;Same;high;112;82;82;j;v;1;j;n;1284.4297000010556
f392!us;41;False;2;P != T2?;ST2_high_5;2;Same;high;96;132;132;j;v;1;f;n;1239.2049999980372
f392!us;42;False;2;P != T2?;ST2_low_3;2;Same;low;70;112;112;j;v;1;f;n;1171.6162000011536
f392!us;43;False;2;P != T1?;DT2_high_6;2;Different;high;132;96;82;j;v;1;j;n;1863.849500001379
f392!us;44;False;2;P != T2?;ST2_high_3;2;Same;high;70;96;96;j;v;1;f;n;763.4269000009226
f392!us;45;False;2;P != T1?;ST2_low_4;2;Same;low;112;70;70;j;v;1;j;n;1222.152799997275
f392!us;46;False;2;P != T1?;ST2_high_3;2;Same;high;70;96;96;j;v;1;j;n;1257.8375000011874
f392!us;47;False;2;P != T2?;ST1_low_3;1;Same;low;70;112;70;j;v;1;j;n;1415.8247999985178
f392!us;48;False;2;P != T1?;ST2_high_3;2;Same;high;70;96;96;j;v;1;j;n;1249.2158000022755
f392!us;49;False;2;P != T1?;ST1_low_4;1;Same;low;112;70;112;j;v;1;f;n;1590.3390999992553
f392!us;50;False;2;P != T2?;DT1_high_6;1;Different;high;132;96;154;j;v;0;f;n;1507.2766999983287
f392!us;51;False;2;P != T2?;ST2_high_6;2;Same;high;132;96;96;j;v;1;f;n;2525.302099998953
f392!us;52;False;2;P != T2?;ST1_high_1;1;Same;high;82;112;82;j;v;0;f;n;722.1320000026026
f392!us;53;False;2;P != T2?;ST2_low_1;2;Same;low;82;132;132;j;v;1;f;n;1220.945599998231
f392!us;54;False;2;P != T2?;ST1_low_2;1;Same;low;132;82;132;j;v;1;j;n;1686.5347999992082
f392!us;55;False;2;P != T1?;ST1_low_1;1;Same;low;82;132;82;j;v;1;f;n;1364.9255999989691
f392!us;56;False;2;P != T2?;ST1_low_1;1;Same;low;82;132;82;j;v;1;j;n;1048.1757000015932
f392!us;57;False;2;P != T2?;ST1_high_2;1;Same;high;112;82;112;j;v;1;j;n;1016.1262000001443
f392!us;58;False;2;P != T1?;ST2_high_4;2;Same;high;96;70;70;j;v;1;j;n;1841.8824000000313
f392!us;59;False;2;P != T2?;ST2_low_5;2;Same;low;96;154;154;j;v;0;j;n;2008.0355999998574
f392!us;60;False;2;P != T2?;ST1_high_5;1;Same;high;96;132;96;j;v;0;f;n;1334.9471000001358
f392!us;61;False;2;P != T2?;ST1_low_2;1;Same;low;132;82;132;j;v;0;f;n;891.3217000008444
f392!us;62;False;2;P != T2?;STb_6;0;Same;None;132;132;132;j;v;1;f;n;1461.3656000001356
f392!us;63;False;2;P != T2?;ST1_high_3;1;Same;high;70;96;70;j;v;1;j;n;3677.7794000008726
f392!us;64;False;2;P != T2?;ST2_high_4;2;Same;high;96;70;70;j;v;1;f;n;910.9265999977652
f392!us;65;False;2;P != T1?;DT1_high_2;1;Different;high;112;82;132;j;v;0;f;n;622.6071999990381
f392!us;66;False;2;P != T2?;ST1_low_1;1;Same;low;82;132;82;j;v;1;j;n;1569.855199999438
f392!us;67;False;2;P != T2?;ST2_low_4;2;Same;low;112;70;70;j;v;1;f;n;811.9135000015376
f392!us;68;False;2;P != T1?;ST1_low_6;1;Same;low;154;96;154;j;v;1;f;n;837.2617999993963
f392!us;69;False;2;P != T1?;ST2_low_3;2;Same;low;70;112;112;j;v;0;f;n;808.5179999980028
f392!us;70;False;2;P != T2?;ST1_high_1;1;Same;high;82;112;82;j;v;0;f;n;987.8095999993093
f392!us;71;False;2;P != T1?;DT2_low_3;2;Different;low;70;112;132;j;v;1;j;n;4328.82249999966
f392!us;72;False;2;P != T1?;DT2_low_5;2;Different;low;96;154;180;j;v;1;j;n;1118.1698000000324
f392!us;73;False;2;P != T1?;ST1_high_5;1;Same;high;96;132;96;j;v;1;f;n;1000.6038000028639
f392!us;74;False;2;P != T2?;ST2_high_5;2;Same;high;96;132;132;j;v;1;f;n;788.3610999997472
f392!us;75;False;2;P != T2?;DT2_high_4;2;Different;high;96;70;60;j;v;0;f;n;1950.8753000009165
f392!us;76;False;2;P != T1?;ST1_low_1;1;Same;low;82;132;82;j;v;1;f;n;1237.5498000001244
f392!us;77;False;2;P != T1?;ST1_low_1;1;Same;low;82;132;82;j;v;1;f;n;1795.59860000154
f392!us;78;False;2;P != T2?;STb_3;0;Same;None;82;82;82;j;v;1;f;n;874.2863000006764
f392!us;79;False;2;P != T1?;STb_1;0;Same;None;60;60;60;j;v;1;f;n;827.9479000011634
f392!us;80;False;2;P != T2?;ST2_low_6;2;Same;low;154;96;96;j;v;1;f;n;904.9880999991728
f392!us;81;False;2;P != T1?;ST1_low_3;1;Same;low;70;112;70;j;v;1;f;n;894.1649999978836
f392!us;82;False;2;P != T2?;ST1_high_3;1;Same;high;70;96;70;j;v;1;j;n;1438.0109000012453
f392!us;83;False;2;P != T2?;ST2_high_1;2;Same;high;82;112;112;j;v;1;f;n;1927.1888000002946
f392!us;84;False;2;P != T2?;ST2_high_3;2;Same;high;70;96;96;j;v;0;j;n;1791.8564999999944
f392!us;85;False;2;P != T1?;ST2_low_2;2;Same;low;132;82;82;j;v;0;f;n;2206.336499999452
f392!us;86;False;2;P != T1?;ST1_high_5;1;Same;high;96;132;96;j;v;0;j;n;1267.1353000005183
f392!us;87;False;2;P != T2?;ST2_high_4;2;Same;high;96;70;70;j;v;1;f;n;848.2530999972369
f392!us;88;False;2;P != T2?;STb_8;0;Same;None;180;180;180;j;v;1;f;n;784.002699998382
f392!us;89;False;2;P != T1?;ST2_low_5;2;Same;low;96;154;154;j;v;1;j;n;1367.5236999988556
f392!us;90;False;2;P != T2?;ST2_low_2;2;Same;low;132;82;82;j;v;1;f;n;1183.5515999991912
f392!us;91;False;2;P != T1?;ST2_low_1;2;Same;low;82;132;132;j;v;1;j;n;1069.206000000122
f392!us;92;False;2;P != T1?;ST1_low_5;1;Same;low;96;154;96;j;v;0;j;n;1304.705800001102
f392!us;93;False;2;P != T1?;ST1_high_2;1;Same;high;112;82;112;j;v;1;f;n;2053.610999999364
f392!us;94;False;2;P != T1?;ST1_high_2;1;Same;high;112;82;112;j;v;1;f;n;760.9350999991875
f392!us;95;False;2;P != T2?;STb_4;0;Same;None;96;96;96;j;v;1;f;n;1403.8295999998809
f392!us;96;False;2;P != T2?;ST1_low_6;1;Same;low;154;96;154;j;v;1;j;n;805.1266000002215
f392!us;97;False;2;P != T1?;ST2_low_2;2;Same;low;132;82;82;j;v;1;j;n;1027.0969000011974
f392!us;98;False;2;P != T1?;ST2_high_5;2;Same;high;96;132;132;j;v;0;f;n;1120.7243999997445
f392!us;99;False;2;P != T2?;ST1_high_2;1;Same;high;112;82;112;j;v;0;f;n;980.185899999924
f392!us;100;False;2;P != T1?;STb_6;0;Same;None;132;132;132;j;v;1;f;n;2390.0226000005205
f392!us;101;False;2;P != T1?;ST2_low_6;2;Same;low;154;96;96;j;v;0;f;n;2222.5155999985873
f392!us;102;False;2;P != T1?;ST2_high_5;2;Same;high;96;132;132;j;v;0;f;n;1775.4208999976981
f392!us;103;False;2;P != T1?;ST1_high_5;1;Same;high;96;132;96;j;v;1;f;n;1223.7142000012682
f392!us;104;False;2;P != T1?;ST1_low_2;1;Same;low;132;82;132;j;v;1;f;n;1141.0829000014928
f392!us;105;False;2;P != T1?;ST2_high_2;2;Same;high;112;82;82;j;v;0;f;n;939.4385000014154
f392!us;106;False;2;P != T2?;ST1_high_2;1;Same;high;112;82;112;j;v;0;f;n;790.9199999994598
f392!us;107;False;2;P != T1?;ST2_low_5;2;Same;low;96;154;154;j;v;1;j;n;785.2137000008952
f392!us;108;False;2;P != T2?;ST2_low_5;2;Same;low;96;154;154;j;v;1;f;n;939.8486999998568
f392!us;109;False;2;P != T2?;ST1_high_6;1;Same;high;132;96;132;j;v;0;f;n;715.295400001196
f392!us;110;False;2;P != T2?;ST1_low_5;1;Same;low;96;154;96;j;v;1;j;n;999.9998999992386
f392!us;111;False;2;P != T2?;ST1_high_5;1;Same;high;96;132;96;j;v;1;j;n;1039.1406000017014
f392!us;112;False;2;P != T2?;DT1_low_4;1;Different;low;112;70;132;j;v;1;j;n;1191.0330999999132
f392!us;113;False;2;P != T1?;ST1_high_6;1;Same;high;132;96;132;j;v;1;f;n;862.7507999990485
f392!us;114;False;2;P != T2?;ST1_low_6;1;Same;low;154;96;154;j;v;0;f;n;778.2790000019304
f392!us;115;False;2;P != T2?;ST2_high_2;2;Same;high;112;82;82;j;v;1;f;n;4274.241200000688
f392!us;116;False;2;P != T1?;ST2_low_2;2;Same;low;132;82;82;j;v;1;j;n;1037.0738999990863
f392!us;117;False;2;P != T1?;ST2_low_5;2;Same;low;96;154;154;j;v;1;j;n;1089.037499998085
f392!us;118;False;2;P != T1?;STb_2;0;Same;None;70;70;70;j;v;1;f;n;751.1565000022529
f392!us;119;False;2;P != T2?;ST2_low_6;2;Same;low;154;96;96;j;v;0;j;n;1118.5519999999087
f392!us;120;False;2;P != T1?;ST1_high_3;1;Same;high;70;96;70;j;v;1;f;n;1128.1230999993568
f392!us;121;False;2;P != T1?;ST2_high_2;2;Same;high;112;82;82;j;v;1;j;n;886.0091999995348
f392!us;122;False;2;P != T2?;ST2_high_6;2;Same;high;132;96;96;j;v;1;f;b;1609.9143999999797
f392!us;123;False;2;P != T2?;ST2_high_3;2;Same;high;70;96;96;j;v;1;f;b;1111.4746000021114
f392!us;124;False;2;P != T2?;ST2_high_2;2;Same;high;112;82;82;j;v;1;f;b;1346.981999999116
f392!us;125;False;2;P != T2?;ST2_high_4;2;Same;high;96;70;70;j;v;1;f;n;1301.9408999971347
f392!us;126;False;2;P != T1?;ST1_high_4;1;Same;high;96;70;96;j;v;1;f;b;1346.1529000014707
f392!us;127;False;2;P != T2?;ST2_low_2;2;Same;low;132;82;82;j;v;1;f;n;4044.851499998913
f392!us;128;False;2;P != T2?;ST2_low_3;2;Same;low;70;112;112;j;v;1;f;b;1250.566799997614
f392!us;129;False;2;P != T1?;ST2_high_1;2;Same;high;82;112;112;j;v;1;j;b;1202.6569000008749
f392!us;130;False;2;P != T2?;ST1_low_4;1;Same;low;112;70;112;j;v;1;j;n;3050.9312999965914
f392!us;131;False;2;P != T1?;ST1_low_2;1;Same;low;132;82;132;j;v;1;f;n;796.3940000008733
f392!us;132;False;2;P != T2?;ST2_high_6;2;Same;high;132;96;96;j;v;1;f;n;2409.85290000026
f392!us;133;False;2;P != T2?;ST2_high_2;2;Same;high;112;82;82;j;v;1;f;b;953.0563999978767
f392!us;134;False;2;P != T1?;ST2_low_6;2;Same;low;154;96;96;j;v;0;f;n;885.175800001889
f392!us;135;False;2;P != T1?;ST2_high_1;2;Same;high;82;112;112;j;v;1;j;n;1994.7116999974241
f392!us;136;False;2;P != T2?;ST1_high_6;1;Same;high;132;96;132;j;v;1;j;n;2479.6844000011333
f392!us;137;False;2;P != T1?;DT2_high_1;2;Different;high;82;112;132;j;v;1;j;n;1525.9000000005472
f392!us;138;False;2;P != T2?;ST2_low_3;2;Same;low;70;112;112;j;v;1;f;b;1362.255100000766
f392!us;139;False;2;P != T1?;ST1_high_2;1;Same;high;112;82;112;j;v;1;f;n;1336.328199999116
f392!us;140;False;2;P != T2?;ST1_low_3;1;Same;low;70;112;70;j;v;1;j;n;935.4012999974657
f392!us;141;False;2;P != T1?;DT1_high_5;1;Different;high;96;132;82;j;v;0;f;n;821.5048000020033
f392!us;142;False;2;P != T1?;STb_8;0;Same;None;180;180;180;j;v;1;f;n;1148.725099999865
f392!us;143;False;2;P != T2?;ST1_low_4;1;Same;low;112;70;112;j;v;1;j;n;1201.1100000017905
f392!us;144;False;2;P != T1?;ST1_high_1;1;Same;high;82;112;82;j;v;1;f;b;940.6758000004629
f392!us;145;False;2;P != T1?;ST2_low_1;2;Same;low;82;132;132;j;v;0;f;n;790.5978999988292
f392!us;146;False;2;P != T1?;ST2_low_6;2;Same;low;154;96;96;j;v;1;j;n;991.2820999998075
f392!us;147;False;2;P != T2?;ST2_low_5;2;Same;low;96;154;154;j;v;1;f;b;794.2194999995991
f392!us;148;False;2;P != T2?;ST1_high_4;1;Same;high;96;70;96;j;v;1;j;n;2462.8387999982806
f392!us;149;False;2;P != T2?;ST2_high_1;2;Same;high;82;112;112;j;v;1;f;n;812.1871999974246
f392!us;150;False;2;P != T2?;STb_1;0;Same;None;60;60;60;j;v;1;f;b;1256.2963999989734
f392!us;151;False;2;P != T1?;DT2_low_2;2;Different;low;132;82;70;j;v;1;j;n;4652.558900001168
f392!us;152;False;2;P != T1?;ST1_high_6;1;Same;high;132;96;132;j;v;1;f;b;1016.7453000030946
f392!us;153;False;2;P != T1?;ST2_high_4;2;Same;high;96;70;70;j;v;1;j;b;1239.389400001528
f392!us;154;False;2;P != T2?;DT2_low_3;2;Different;low;70;112;132;j;v;1;j;n;2197.0177000002877
f392!us;155;False;2;P != T2?;ST2_low_4;2;Same;low;112;70;70;j;v;1;f;b;1126.425599999493
f392!us;156;False;2;P != T1?;ST2_low_1;2;Same;low;82;132;132;j;v;1;j;n;1688.0011000030208
f392!us;157;False;2;P != T1?;ST1_low_3;1;Same;low;70;112;70;j;v;1;f;b;1304.8538000002736
f392!us;158;False;2;P != T1?;ST2_low_3;2;Same;low;70;112;112;j;v;0;f;n;1276.1916000017663
f392!us;159;False;2;P != T1?;ST1_high_6;1;Same;high;132;96;132;j;v;1;f;b;772.0847000018694
f392!us;160;False;2;P != T2?;ST1_low_1;1;Same;low;82;132;82;j;v;1;j;n;2104.966400002013
f392!us;161;False;2;P != T2?;ST1_high_3;1;Same;high;70;96;70;j;v;1;j;b;1707.1891000014148
f392!us;162;False;2;P != T1?;STb_5;0;Same;None;112;112;112;j;v;1;f;n;1378.9028999999573
f392!us;163;False;2;P != T1?;ST2_high_6;2;Same;high;132;96;96;j;v;0;f;n;500.6342999986373
f392!us;164;False;2;P != T2?;STb_5;0;Same;None;112;112;112;j;v;1;f;b;1106.4193999991403
f392!us;165;False;2;P != T2?;DT1_low_2;1;Different;low;132;82;154;j;v;1;j;b;1064.098400001967
f392!us;166;False;2;P != T1?;DT1_high_4;1;Different;high;96;70;112;j;v;0;f;n;1357.4069000023883
f392!us;167;False;2;P != T2?;ST1_high_5;1;Same;high;96;132;96;j;v;0;f;n;1152.789700001449
f392!us;168;False;2;P != T1?;ST1_high_3;1;Same;high;70;96;70;j;v;1;f;b;1223.3532999998715
f392!us;169;False;2;P != T2?;ST2_high_1;2;Same;high;82;112;112;j;v;1;f;n;1068.3925000012096
f392!us;170;False;2;P != T2?;DT1_high_1;1;Different;high;82;112;70;j;v;0;f;b;800.677999999607
f392!us;171;False;2;P != T1?;ST1_high_4;1;Same;high;96;70;96;j;v;1;f;n;2890.208299999358
f392!us;172;False;2;P != T1?;ST2_high_6;2;Same;high;132;96;96;j;v;0;f;n;2125.9497000028205
f392!us;173;False;2;P != T1?;ST1_low_6;1;Same;low;154;96;154;j;v;1;f;b;1548.6947999997938
f392!us;174;False;2;P != T2?;ST1_high_4;1;Same;high;96;70;96;j;v;1;j;n;804.7084000027098
f392!us;175;False;2;P != T1?;ST2_low_3;2;Same;low;70;112;112;j;v;1;j;n;3763.5128000001714
f392!us;176;False;2;P != T1?;STb_3;0;Same;None;82;82;82;j;v;0;j;n;2784.5876999999746
