p_code;trial_nr;practice;block;question;condition;seqPos;Same_or_Diff;ITS;T1_hz;T2_hz;P_hz;yes_key;sure_key;correct;yes_no;rating;resp_time
u237f!x;1;True;1;P = T1?;DT1_low_3;1;Different;low;70;112;60;f;v;0;f;b;773.7769999998818
u237f!x;2;True;1;P = T2?;ST2_low_2;2;Same;low;132;82;82;f;v;1;f;b;1767.0069999999214
u237f!x;3;True;1;P = T1?;STb_1;0;Same;None;60;60;60;f;v;1;f;b;572.220500000185
u237f!x;4;True;1;P = T1?;ST2_low_3;2;Same;low;70;112;112;f;v;1;j;b;908.5267000000385
u237f!x;5;True;1;P = T2?;DT1_low_4;1;Different;low;112;70;132;f;v;1;j;v;1241.6970000003857
u237f!x;6;True;1;P = T2?;ST1_high_2;1;Same;high;112;82;112;f;v;1;j;b;1207.8685999999834
u237f!x;7;True;1;P = T1?;ST2_high_3;2;Same;high;70;96;96;f;v;0;f;b;616.5321999997104
u237f!x;8;True;1;P = T1?;DT1_high_1;1;Different;high;82;112;70;f;v;1;j;n;4323.246499999641
u237f!x;9;True;1;P = T2?;ST2_high_4;2;Same;high;96;70;70;f;v;1;f;b;1319.984199999908
u237f!x;10;True;1;P = T1?;ST1_low_5;1;Same;low;96;154;96;f;v;0;j;n;3393.9149000002544
u237f!x;11;True;1;P = T2?;STb_1;0;Same;None;60;60;60;f;v;0;j;b;1068.2151999999405
u237f!x;12;True;1;P = T2?;ST1_high_1;1;Same;high;82;112;82;f;v;1;j;b;1007.0555000002059
u237f!x;13;True;1;P = T2?;DT2_high_2;2;Different;high;112;82;70;f;v;1;j;n;10003.404300000057
u237f!x;14;True;1;P = T2?;STb_5;0;Same;None;112;112;112;f;v;0;j;n;814.129899999898
u237f!x;15;True;1;P = T1?;ST1_high_2;1;Same;high;112;82;112;f;v;1;f;b;571.6484999998102
u237f!x;16;True;1;P = T1?;STb_3;0;Same;None;82;82;82;f;v;1;f;n;3107.9688999998325
p_code;trial_nr;practice;block;question;condition;seqPos;Same_or_Diff;ITS;T1_hz;T2_hz;P_hz;yes_key;sure_key;correct;yes_no;rating;resp_time
u237f!x;1;False;1;P = T2?;ST2_low_1;2;Same;low;82;132;132;f;v;1;f;v;860.636699999759
u237f!x;2;False;1;P = T1?;ST1_low_2;1;Same;low;132;82;132;f;v;1;f;b;764.9055000001681
u237f!x;3;False;1;P = T2?;ST1_low_6;1;Same;low;154;96;154;f;v;1;j;v;972.6924999999937
u237f!x;4;False;1;P = T1?;ST2_low_3;2;Same;low;70;112;112;f;v;1;j;v;924.5944999997846
u237f!x;5;False;1;P = T2?;ST2_low_4;2;Same;low;112;70;70;f;v;1;f;b;969.9649000003774
u237f!x;6;False;1;P = T1?;ST1_high_3;1;Same;high;70;96;70;f;v;0;j;b;974.8030000000654
u237f!x;7;False;1;P = T2?;ST1_high_5;1;Same;high;96;132;96;f;v;1;j;n;5785.67669999984
u237f!x;8;False;1;P = T2?;DT1_low_3;1;Different;low;70;112;60;f;v;0;f;n;2321.3285000001633
u237f!x;9;False;1;P = T2?;ST2_high_4;2;Same;high;96;70;70;f;v;1;f;n;664.2318999997769
u237f!x;10;False;1;P = T1?;ST1_low_5;1;Same;low;96;154;96;f;v;1;f;n;2726.542399999744
u237f!x;11;False;1;P = T2?;ST2_high_1;2;Same;high;82;112;112;f;v;0;j;n;4562.168699999802
u237f!x;12;False;1;P = T2?;ST1_low_5;1;Same;low;96;154;96;f;v;1;j;b;870.6002999997509
u237f!x;13;False;1;P = T1?;ST2_high_2;2;Same;high;112;82;82;f;v;1;j;b;844.1406000001734
u237f!x;14;False;1;P = T2?;STb_5;0;Same;None;112;112;112;f;v;0;j;n;2100.08549999975
u237f!x;15;False;1;P = T2?;ST2_high_2;2;Same;high;112;82;82;f;v;0;j;n;3134.754199999861
u237f!x;16;False;1;P = T2?;ST1_low_2;1;Same;low;132;82;132;f;v;1;j;b;771.3612000002286
u237f!x;17;False;1;P = T1?;ST2_low_2;2;Same;low;132;82;82;f;v;1;j;b;612.8717999999935
u237f!x;18;False;1;P = T1?;ST2_high_5;2;Same;high;96;132;132;f;v;1;j;b;1656.9610999999895
u237f!x;19;False;1;P = T2?;STb_2;0;Same;None;70;70;70;f;v;1;f;b;877.6661000001695
u237f!x;20;False;1;P = T2?;ST1_high_4;1;Same;high;96;70;96;f;v;0;f;b;613.8497000001735
u237f!x;21;False;1;P = T1?;ST2_low_6;2;Same;low;154;96;96;f;v;1;j;n;1645.1759999999922
u237f!x;22;False;1;P = T1?;ST1_low_2;1;Same;low;132;82;132;f;v;1;f;n;662.9792999997335
u237f!x;23;False;1;P = T1?;DT2_high_3;2;Different;high;70;96;112;f;v;1;j;n;4963.946200000009
u237f!x;24;False;1;P = T1?;ST2_low_5;2;Same;low;96;154;154;f;v;1;j;b;1264.5850999997492
u237f!x;25;False;1;P = T2?;ST2_high_2;2;Same;high;112;82;82;f;v;0;j;n;2994.404900000063
u237f!x;26;False;1;P = T2?;ST2_low_3;2;Same;low;70;112;112;f;v;1;f;n;1980.5830000000242
u237f!x;27;False;1;P = T2?;ST2_low_5;2;Same;low;96;154;154;f;v;1;f;b;1628.5484999998516
u237f!x;28;False;1;P = T2?;ST2_low_5;2;Same;low;96;154;154;f;v;1;f;n;2540.879000000132
u237f!x;29;False;1;P = T1?;ST1_low_1;1;Same;low;82;132;82;f;v;1;f;b;950.5091999999422
u237f!x;30;False;1;P = T2?;DT2_low_2;2;Different;low;132;82;70;f;v;0;f;b;1287.671699999919
u237f!x;31;False;1;P = T1?;ST2_high_3;2;Same;high;70;96;96;f;v;0;f;b;875.5390000001171
u237f!x;32;False;1;P = T1?;ST1_low_6;1;Same;low;154;96;154;f;v;1;f;b;724.2460999996183
u237f!x;33;False;1;P = T1?;ST2_high_1;2;Same;high;82;112;112;f;v;0;f;b;627.2527999999511
u237f!x;34;False;1;P = T2?;STb_7;0;Same;None;154;154;154;f;v;0;j;n;3110.9894999999597
u237f!x;35;False;1;P = T1?;ST2_low_4;2;Same;low;112;70;70;f;v;1;j;n;1362.362800000028
u237f!x;36;False;1;P = T1?;ST1_high_3;1;Same;high;70;96;70;f;v;0;j;n;2113.688699999784
u237f!x;37;False;1;P = T2?;STb_4;0;Same;None;96;96;96;f;v;0;j;n;2780.561300000045
u237f!x;38;False;1;P = T1?;ST1_high_6;1;Same;high;132;96;132;f;v;1;f;n;1219.003199999861
u237f!x;39;False;1;P = T2?;ST2_low_6;2;Same;low;154;96;96;f;v;1;f;b;888.7651999998525
u237f!x;40;False;1;P = T1?;ST1_high_2;1;Same;high;112;82;112;f;v;1;f;b;694.6171999998114
u237f!x;41;False;1;P = T1?;ST1_low_3;1;Same;low;70;112;70;f;v;1;f;b;711.0818000001018
u237f!x;42;False;1;P = T2?;ST1_high_6;1;Same;high;132;96;132;f;v;1;j;n;1908.1246999999166
u237f!x;43;False;1;P = T1?;ST1_low_2;1;Same;low;132;82;132;f;v;1;f;b;603.3557000000656
u237f!x;44;False;1;P = T2?;DT1_high_2;1;Different;high;112;82;132;f;v;1;j;b;894.59399999987
u237f!x;45;False;1;P = T2?;DT1_low_4;1;Different;low;112;70;132;f;v;1;j;b;3575.669999999718
u237f!x;46;False;1;P = T1?;ST2_high_5;2;Same;high;96;132;132;f;v;1;j;n;1595.7155000000967
u237f!x;47;False;1;P = T2?;STb_8;0;Same;None;180;180;180;f;v;0;j;b;895.6391000001531
u237f!x;48;False;1;P = T2?;ST1_low_3;1;Same;low;70;112;70;f;v;1;j;b;1007.2743999999147
u237f!x;49;False;1;P = T2?;DT2_low_6;2;Different;low;154;96;82;f;v;1;j;n;2870.3261999999086
u237f!x;50;False;1;P = T2?;ST2_high_1;2;Same;high;82;112;112;f;v;1;f;n;2901.3771999998426
u237f!x;51;False;1;P = T2?;ST2_low_2;2;Same;low;132;82;82;f;v;0;j;n;2801.6569000001255
u237f!x;52;False;1;P = T1?;DT2_low_4;2;Different;low;112;70;60;f;v;0;f;n;3914.9036999997406
u237f!x;53;False;1;P = T2?;ST1_low_1;1;Same;low;82;132;82;f;v;1;j;n;5330.725199999961
u237f!x;54;False;1;P = T1?;ST1_low_3;1;Same;low;70;112;70;f;v;1;f;n;903.0265999999756
u237f!x;55;False;1;P = T1?;ST2_low_1;2;Same;low;82;132;132;f;v;0;f;n;966.1040000000867
u237f!x;56;False;1;P = T1?;ST2_low_3;2;Same;low;70;112;112;f;v;0;f;n;5174.967599999945
u237f!x;57;False;1;P = T1?;ST2_high_6;2;Same;high;132;96;96;f;v;1;j;n;7334.492800000135
u237f!x;58;False;1;P = T1?;ST1_high_4;1;Same;high;96;70;96;f;v;1;f;n;3460.821300000134
u237f!x;59;False;1;P = T2?;ST2_low_3;2;Same;low;70;112;112;f;v;0;j;b;1324.2771000000175
u237f!x;60;False;1;P = T2?;ST2_low_3;2;Same;low;70;112;112;f;v;1;f;n;6820.39259999965
u237f!x;61;False;1;P = T2?;ST2_high_3;2;Same;high;70;96;96;f;v;0;j;b;855.7508999997481
u237f!x;62;False;1;P = T2?;DT2_high_2;2;Different;high;112;82;70;f;v;0;f;b;792.3276999999871
u237f!x;63;False;1;P = T1?;ST2_low_1;2;Same;low;82;132;132;f;v;0;f;b;1021.9671999998354
u237f!x;64;False;1;P = T2?;ST2_low_6;2;Same;low;154;96;96;f;v;0;j;n;1607.807899999898
u237f!x;65;False;1;P = T1?;ST2_low_6;2;Same;low;154;96;96;f;v;1;j;b;872.8516999999556
u237f!x;66;False;1;P = T1?;ST1_low_5;1;Same;low;96;154;96;f;v;1;f;b;696.2784000002102
u237f!x;67;False;1;P = T2?;ST2_low_1;2;Same;low;82;132;132;f;v;1;f;n;1173.1196000000637
u237f!x;68;False;1;P = T2?;DT2_low_5;2;Different;low;96;154;180;f;v;0;f;n;881.332399999792
u237f!x;69;False;1;P = T1?;STb_1;0;Same;None;60;60;60;f;v;0;j;n;7704.963600000156
u237f!x;70;False;1;P = T2?;ST2_low_4;2;Same;low;112;70;70;f;v;1;f;n;3973.772800000006
u237f!x;71;False;1;P = T2?;ST2_low_6;2;Same;low;154;96;96;f;v;1;f;n;2480.580799999643
u237f!x;72;False;1;P = T1?;ST2_low_4;2;Same;low;112;70;70;f;v;1;j;n;7501.087699999971
u237f!x;73;False;1;P = T2?;STb_6;0;Same;None;132;132;132;f;v;0;j;b;995.9486000002471
u237f!x;74;False;1;P = T2?;ST1_low_5;1;Same;low;96;154;96;f;v;1;j;b;2413.2330000002185
u237f!x;75;False;1;P = T2?;ST1_high_1;1;Same;high;82;112;82;f;v;1;j;n;3433.566400000018
u237f!x;76;False;1;P = T1?;DT1_low_2;1;Different;low;132;82;154;f;v;0;f;n;1151.1912000000848
u237f!x;77;False;1;P = T2?;ST1_low_6;1;Same;low;154;96;154;f;v;1;j;n;822.711000000254
u237f!x;78;False;1;P = T1?;ST1_high_1;1;Same;high;82;112;82;f;v;0;j;n;5236.433999999917
u237f!x;79;False;1;P = T2?;ST1_low_3;1;Same;low;70;112;70;f;v;0;f;n;1316.3747999997213
u237f!x;80;False;1;P = T2?;DT1_high_4;1;Different;high;96;70;112;f;v;1;j;n;921.8901999997797
u237f!x;81;False;1;P = T1?;ST1_low_6;1;Same;low;154;96;154;f;v;1;f;n;1602.4994999997944
u237f!x;82;False;1;P = T2?;ST1_high_2;1;Same;high;112;82;112;f;v;1;j;n;1875.8367000000362
u237f!x;83;False;1;P = T2?;ST1_high_6;1;Same;high;132;96;132;f;v;0;f;n;4387.94340000004
u237f!x;84;False;1;P = T2?;ST1_high_4;1;Same;high;96;70;96;f;v;1;j;n;1596.5722000000824
u237f!x;85;False;1;P = T2?;ST1_low_4;1;Same;low;112;70;112;f;v;1;j;n;1417.4187000003258
u237f!x;86;False;1;P = T1?;STb_8;0;Same;None;180;180;180;f;v;0;j;n;1335.5956999998853
u237f!x;87;False;1;P = T2?;ST1_low_3;1;Same;low;70;112;70;f;v;1;j;n;4843.521100000089
u237f!x;88;False;1;P = T1?;ST1_high_3;1;Same;high;70;96;70;f;v;1;f;b;1052.1073999998407
u237f!x;89;False;1;P = T1?;ST1_low_3;1;Same;low;70;112;70;f;v;1;f;n;2343.652900000052
u237f!x;90;False;1;P = T2?;ST2_high_5;2;Same;high;96;132;132;f;v;1;f;n;1963.2910999998785
u237f!x;91;False;1;P = T1?;STb_4;0;Same;None;96;96;96;f;v;1;f;n;1500.6499999999505
u237f!x;92;False;1;P = T1?;STb_6;0;Same;None;132;132;132;f;v;1;f;n;1853.2257000001664
u237f!x;93;False;1;P = T1?;ST1_low_5;1;Same;low;96;154;96;f;v;1;f;b;692.0159000001149
u237f!x;94;False;1;P = T1?;ST2_low_3;2;Same;low;70;112;112;f;v;1;j;n;2465.234799999962
u237f!x;95;False;1;P = T2?;ST2_high_2;2;Same;high;112;82;82;f;v;1;f;n;3836.8006000000605
u237f!x;96;False;1;P = T1?;ST2_low_4;2;Same;low;112;70;70;f;v;0;f;n;4359.980300000188
u237f!x;97;False;1;P = T1?;DT2_low_2;2;Different;low;132;82;70;f;v;1;j;n;1714.8291999997127
u237f!x;98;False;1;P = T1?;ST1_high_5;1;Same;high;96;132;96;f;v;1;f;b;1395.9036999999626
u237f!x;99;False;1;P = T2?;ST1_high_3;1;Same;high;70;96;70;f;v;1;j;n;2884.259800000109
u237f!x;100;False;1;P = T1?;STb_7;0;Same;None;154;154;154;f;v;1;f;b;544.4514000000709
u237f!x;101;False;1;P = T1?;STb_2;0;Same;None;70;70;70;f;v;0;j;n;1028.6505999997644
u237f!x;102;False;1;P = T2?;ST1_high_1;1;Same;high;82;112;82;f;v;1;j;n;6101.587099999961
u237f!x;103;False;1;P = T2?;ST2_high_4;2;Same;high;96;70;70;f;v;0;j;n;739.2669000000751
u237f!x;104;False;1;P = T1?;ST2_high_3;2;Same;high;70;96;96;f;v;0;f;n;2003.590300000269
u237f!x;105;False;1;P = T2?;ST2_high_3;2;Same;high;70;96;96;f;v;0;j;n;12121.928000000025
u237f!x;106;False;1;P = T1?;ST2_high_4;2;Same;high;96;70;70;f;v;1;j;n;2232.399400000304
u237f!x;107;False;1;P = T1?;ST2_high_2;2;Same;high;112;82;82;f;v;0;f;b;1337.090900000021
u237f!x;108;False;1;P = T1?;ST2_low_5;2;Same;low;96;154;154;f;v;1;j;b;2265.2555999998185
u237f!x;109;False;1;P = T2?;ST2_low_2;2;Same;low;132;82;82;f;v;1;f;b;1362.0508999997583
u237f!x;110;False;1;P = T1?;ST1_high_2;1;Same;high;112;82;112;f;v;1;f;b;669.4201999998768
u237f!x;111;False;1;P = T1?;DT1_high_3;1;Different;high;70;96;60;f;v;0;f;v;712.8620999997111
u237f!x;112;False;1;P = T1?;ST1_low_4;1;Same;low;112;70;112;f;v;1;f;b;705.9257000000798
u237f!x;113;False;1;P = T2?;ST2_low_2;2;Same;low;132;82;82;f;v;1;f;b;795.1387000002796
u237f!x;114;False;1;P = T1?;ST2_high_1;2;Same;high;82;112;112;f;v;1;j;n;2096.7899000002035
u237f!x;115;False;1;P = T2?;ST2_high_6;2;Same;high;132;96;96;f;v;1;f;n;1023.1809000001704
u237f!x;116;False;1;P = T1?;ST1_low_4;1;Same;low;112;70;112;f;v;1;f;n;818.9188000001195
u237f!x;117;False;1;P = T1?;ST2_high_6;2;Same;high;132;96;96;f;v;0;f;n;3454.0554999998676
u237f!x;118;False;1;P = T2?;ST2_low_4;2;Same;low;112;70;70;f;v;0;j;n;10468.204499999956
u237f!x;119;False;1;P = T1?;ST1_high_6;1;Same;high;132;96;132;f;v;1;f;v;578.3189999997376
u237f!x;120;False;1;P = T2?;ST1_low_2;1;Same;low;132;82;132;f;v;1;j;n;1338.1967999998778
u237f!x;121;False;1;P = T2?;ST2_high_5;2;Same;high;96;132;132;f;v;0;j;n;3435.954500000207
u237f!x;122;False;1;P = T1?;ST1_high_5;1;Same;high;96;132;96;f;v;1;f;n;7182.230400000208
u237f!x;123;False;1;P = T1?;ST2_high_1;2;Same;high;82;112;112;f;v;0;f;n;10370.824399999947
u237f!x;124;False;1;P = T1?;ST2_low_5;2;Same;low;96;154;154;f;v;1;j;b;873.8518999998632
u237f!x;125;False;1;P = T1?;ST2_low_1;2;Same;low;82;132;132;f;v;0;f;n;2161.792500000047
u237f!x;126;False;1;P = T2?;ST2_high_1;2;Same;high;82;112;112;f;v;0;j;n;1405.4043000001002
u237f!x;127;False;1;P = T2?;ST1_low_4;1;Same;low;112;70;112;f;v;1;j;b;920.4408000000512
u237f!x;128;False;1;P = T2?;ST1_high_3;1;Same;high;70;96;70;f;v;1;j;b;972.4225999998453
u237f!x;129;False;1;P = T2?;ST1_high_3;1;Same;high;70;96;70;f;v;1;j;n;3030.9925999999905
u237f!x;130;False;1;P = T2?;ST2_high_6;2;Same;high;132;96;96;f;v;0;j;n;2686.529199999768
u237f!x;131;False;1;P = T2?;ST1_high_6;1;Same;high;132;96;132;f;v;1;j;n;763.2815000001756
u237f!x;132;False;1;P = T2?;ST1_high_1;1;Same;high;82;112;82;f;v;0;f;n;1487.2239000001173
u237f!x;133;False;1;P = T2?;ST1_low_2;1;Same;low;132;82;132;f;v;0;f;b;1037.977299999966
u237f!x;134;False;1;P = T2?;ST1_high_2;1;Same;high;112;82;112;f;v;0;f;b;867.6547000004575
u237f!x;135;False;1;P = T2?;ST2_high_5;2;Same;high;96;132;132;f;v;1;f;n;3595.461300000352
u237f!x;136;False;1;P = T2?;ST2_high_4;2;Same;high;96;70;70;f;v;1;f;n;1989.6804999998494
u237f!x;137;False;1;P = T1?;ST2_high_2;2;Same;high;112;82;82;f;v;1;j;b;790.3203000005306
u237f!x;138;False;1;P = T2?;STb_3;0;Same;None;82;82;82;f;v;1;f;b;550.2406000005067
u237f!x;139;False;1;P = T1?;ST1_high_4;1;Same;high;96;70;96;f;v;0;j;b;1075.2074000001812
u237f!x;140;False;1;P = T2?;ST2_high_3;2;Same;high;70;96;96;f;v;0;j;b;3000.983400000223
u237f!x;141;False;1;P = T2?;ST1_low_1;1;Same;low;82;132;82;f;v;1;j;n;3611.689800000022
u237f!x;142;False;1;P = T1?;DT2_high_5;2;Different;high;96;132;154;f;v;1;j;n;3764.1309999999066
u237f!x;143;False;1;P = T1?;ST2_high_3;2;Same;high;70;96;96;f;v;0;f;n;3014.268599999923
u237f!x;144;False;1;P = T2?;ST1_high_4;1;Same;high;96;70;96;f;v;1;j;n;1636.2372000003234
u237f!x;145;False;1;P = T1?;ST1_high_2;1;Same;high;112;82;112;f;v;1;f;b;688.7096999998903
u237f!x;146;False;1;P = T1?;ST1_low_6;1;Same;low;154;96;154;f;v;1;f;b;871.3833000001614
u237f!x;147;False;1;P = T2?;ST1_low_5;1;Same;low;96;154;96;f;v;1;j;n;3152.5583999991795
u237f!x;148;False;1;P = T2?;ST1_low_1;1;Same;low;82;132;82;f;v;1;j;n;3040.099900000314
u237f!x;149;False;1;P = T2?;STb_1;0;Same;None;60;60;60;f;v;1;f;n;934.8902000001544
u237f!x;150;False;1;P = T2?;ST1_high_5;1;Same;high;96;132;96;f;v;0;f;n;5094.735600000604
u237f!x;151;False;1;P = T1?;ST1_high_4;1;Same;high;96;70;96;f;v;1;f;n;878.1871999999566
u237f!x;152;False;1;P = T1?;ST2_low_2;2;Same;low;132;82;82;f;v;0;f;n;631.8264999999883
u237f!x;153;False;1;P = T1?;STb_3;0;Same;None;82;82;82;f;v;1;f;n;1928.1800999997358
u237f!x;154;False;1;P = T1?;DT2_low_6;2;Different;low;154;96;82;f;v;1;j;n;1597.4883000008049
u237f!x;155;False;1;P = T2?;ST1_high_2;1;Same;high;112;82;112;f;v;0;f;n;1398.4669000001304
u237f!x;156;False;1;P = T1?;DT1_high_6;1;Different;high;132;96;154;f;v;0;f;n;2112.5610000008237
u237f!x;157;False;1;P = T1?;ST1_low_4;1;Same;low;112;70;112;f;v;1;f;n;1958.2884999999806
u237f!x;158;False;1;P = T1?;ST2_low_6;2;Same;low;154;96;96;f;v;1;j;n;3364.9771999998848
u237f!x;159;False;1;P = T1?;ST1_high_1;1;Same;high;82;112;82;f;v;0;j;n;2081.3640999995187
u237f!x;160;False;1;P = T2?;ST2_low_5;2;Same;low;96;154;154;f;v;0;j;n;6548.091300000124
u237f!x;161;False;1;P = T1?;ST2_high_4;2;Same;high;96;70;70;f;v;1;j;n;2062.0717000001605
u237f!x;162;False;1;P = T1?;ST1_low_1;1;Same;low;82;132;82;f;v;1;f;b;684.7819000004165
u237f!x;163;False;1;P = T1?;ST1_high_1;1;Same;high;82;112;82;f;v;1;f;n;3055.378699999892
u237f!x;164;False;1;P = T2?;ST1_low_6;1;Same;low;154;96;154;f;v;1;j;b;827.7617000003374
u237f!x;165;False;1;P = T1?;ST2_low_2;2;Same;low;132;82;82;f;v;1;j;b;936.1664999996719
u237f!x;166;False;1;P = T1?;ST1_low_1;1;Same;low;82;132;82;f;v;1;f;n;1887.9080999995494
u237f!x;167;False;1;P = T2?;ST2_low_1;2;Same;low;82;132;132;f;v;1;f;n;1069.6288999997705
u237f!x;168;False;1;P = T1?;ST2_high_5;2;Same;high;96;132;132;f;v;0;f;n;1024.9758999998448
u237f!x;169;False;1;P = T1?;STb_5;0;Same;None;112;112;112;f;v;1;f;n;2883.4516999995685
u237f!x;170;False;1;P = T1?;ST1_high_6;1;Same;high;132;96;132;f;v;1;f;b;624.6140000002924
u237f!x;171;False;1;P = T1?;ST2_high_4;2;Same;high;96;70;70;f;v;1;j;v;629.3766999997388
u237f!x;172;False;1;P = T2?;ST1_high_5;1;Same;high;96;132;96;f;v;0;f;n;948.5003999998298
u237f!x;173;False;1;P = T2?;ST2_high_6;2;Same;high;132;96;96;f;v;1;f;n;895.0630999997884
u237f!x;174;False;1;P = T1?;ST2_high_6;2;Same;high;132;96;96;f;v;0;f;b;2119.4389000002047
u237f!x;175;False;1;P = T1?;ST1_high_5;1;Same;high;96;132;96;f;v;0;j;n;2338.4862000002613
u237f!x;176;False;1;P = T2?;ST1_low_4;1;Same;low;112;70;112;f;v;1;j;b;3179.12829999932
u237f!x;1;True;2;P != T2?;DT2_low_1;2;Different;low;82;132;154;f;v;1;f;b;4840.4207000003225
u237f!x;2;True;2;P != T1?;ST1_low_3;1;Same;low;70;112;70;f;v;1;j;b;1739.1481000004205
u237f!x;3;True;2;P != T1?;DT2_high_2;2;Different;high;112;82;70;f;v;1;f;b;1362.3161999994409
u237f!x;4;True;2;P != T1?;STb_4;0;Same;None;96;96;96;f;v;0;f;b;2530.1785999999993
u237f!x;5;True;2;P != T2?;DT1_low_4;1;Different;low;112;70;132;f;v;0;j;n;5363.467700000001
u237f!x;6;True;2;P != T2?;STb_3;0;Same;None;82;82;82;f;v;1;j;n;1120.1949999995122
u237f!x;7;True;2;P != T2?;ST1_low_5;1;Same;low;96;154;96;f;v;1;f;b;2114.945900000748
u237f!x;8;True;2;P != T1?;ST2_low_3;2;Same;low;70;112;112;f;v;0;j;n;5372.219199999563
u237f!x;9;True;2;P != T2?;STb_4;0;Same;None;96;96;96;f;v;1;j;n;9366.920299999947
u237f!x;10;True;2;P != T1?;ST2_low_4;2;Same;low;112;70;70;f;v;1;f;b;1354.879699999401
u237f!x;11;True;2;P != T1?;DT1_high_3;1;Different;high;70;96;60;f;v;0;j;b;534.8807000000306
u237f!x;12;True;2;P != T1?;STb_5;0;Same;None;112;112;112;f;v;1;j;b;1777.237100000093
u237f!x;13;True;2;P != T1?;ST1_low_4;1;Same;low;112;70;112;f;v;1;j;n;7051.704800000152
u237f!x;14;True;2;P != T2?;ST2_low_1;2;Same;low;82;132;132;f;v;0;f;b;955.2247999999963
u237f!x;15;True;2;P != T2?;ST2_low_1;2;Same;low;82;132;132;f;v;1;j;n;2935.2356999997937
u237f!x;16;True;2;P != T2?;ST1_high_5;1;Same;high;96;132;96;f;v;0;j;n;2928.3979000001636
u237f!x;1;False;2;P != T1?;ST2_low_5;2;Same;low;96;154;154;f;v;1;f;b;2250.8952999996836
u237f!x;2;False;2;P != T2?;ST2_high_2;2;Same;high;112;82;82;f;v;1;j;n;1857.9046000004382
u237f!x;3;False;2;P != T2?;ST1_high_1;1;Same;high;82;112;82;f;v;0;j;n;2126.900000000205
u237f!x;4;False;2;P != T2?;ST2_low_3;2;Same;low;70;112;112;f;v;0;f;n;7536.519400000543
u237f!x;5;False;2;P != T1?;ST2_low_5;2;Same;low;96;154;154;f;v;0;j;n;3772.5750999998127
u237f!x;6;False;2;P != T2?;ST2_low_4;2;Same;low;112;70;70;f;v;1;j;n;1365.5432999994446
u237f!x;7;False;2;P != T1?;ST1_high_1;1;Same;high;82;112;82;f;v;1;j;b;1999.3840999995882
u237f!x;8;False;2;P != T1?;ST1_low_6;1;Same;low;154;96;154;f;v;1;j;b;2276.392699999633
u237f!x;9;False;2;P != T2?;ST1_high_3;1;Same;high;70;96;70;f;v;1;f;n;3528.277800000069
u237f!x;10;False;2;P != T1?;ST2_high_2;2;Same;high;112;82;82;f;v;0;j;n;2290.009700000155
u237f!x;11;False;2;P != T2?;DT1_low_2;1;Different;low;132;82;154;f;v;1;f;n;4208.6184999998295
u237f!x;12;False;2;P != T1?;ST2_low_6;2;Same;low;154;96;96;f;v;0;j;n;7605.059600000459
u237f!x;13;False;2;P != T1?;ST1_high_5;1;Same;high;96;132;96;f;v;0;f;b;1108.3431000006385
u237f!x;14;False;2;P != T2?;ST2_high_3;2;Same;high;70;96;96;f;v;1;j;n;2273.2565000005707
u237f!x;15;False;2;P != T1?;ST1_high_3;1;Same;high;70;96;70;f;v;1;j;n;14804.647199999636
u237f!x;16;False;2;P != T1?;ST2_low_1;2;Same;low;82;132;132;f;v;0;j;b;1897.800499999903
u237f!x;17;False;2;P != T2?;ST2_high_3;2;Same;high;70;96;96;f;v;0;f;b;4772.452599999269
u237f!x;18;False;2;P != T1?;ST1_high_5;1;Same;high;96;132;96;f;v;1;j;n;3112.2857999998814
u237f!x;19;False;2;P != T2?;ST1_low_6;1;Same;low;154;96;154;f;v;1;f;b;3453.26120000027
u237f!x;20;False;2;P != T2?;STb_1;0;Same;None;60;60;60;f;v;1;j;n;1490.8477999997558
u237f!x;21;False;2;P != T1?;ST1_low_1;1;Same;low;82;132;82;f;v;1;j;b;1127.2883000001457
u237f!x;22;False;2;P != T2?;ST2_high_2;2;Same;high;112;82;82;f;v;0;f;b;1763.7119999999413
u237f!x;23;False;2;P != T2?;ST2_low_1;2;Same;low;82;132;132;f;v;0;f;n;1776.912500000435
u237f!x;24;False;2;P != T2?;ST1_low_2;1;Same;low;132;82;132;f;v;1;f;b;1047.110900000007
u237f!x;25;False;2;P != T1?;ST1_high_1;1;Same;high;82;112;82;f;v;0;f;b;2728.7587000000713
u237f!x;26;False;2;P != T1?;DT1_high_6;1;Different;high;132;96;154;f;v;1;f;b;3473.3898000004046
u237f!x;27;False;2;P != T2?;ST1_high_2;1;Same;high;112;82;112;f;v;1;f;n;8055.949800000235
u237f!x;28;False;2;P != T1?;STb_5;0;Same;None;112;112;112;f;v;0;f;n;2809.5782999998846
u237f!x;29;False;2;P != T2?;ST2_high_6;2;Same;high;132;96;96;f;v;1;j;n;8992.921400000341
u237f!x;30;False;2;P != T2?;ST1_low_4;1;Same;low;112;70;112;f;v;1;f;b;911.7452999998932
u237f!x;31;False;2;P != T2?;ST2_low_6;2;Same;low;154;96;96;f;v;1;j;n;3864.7178999999596
u237f!x;32;False;2;P != T2?;ST1_low_3;1;Same;low;70;112;70;f;v;1;f;n;3505.0163999994766
u237f!x;33;False;2;P != T2?;DT1_high_5;1;Different;high;96;132;82;f;v;0;j;n;2174.9721999995018
u237f!x;34;False;2;P != T1?;ST2_low_4;2;Same;low;112;70;70;f;v;0;j;n;8615.863199999694
u237f!x;35;False;2;P != T2?;ST1_high_4;1;Same;high;96;70;96;f;v;0;j;n;10221.629099999518
u237f!x;36;False;2;P != T2?;ST1_high_6;1;Same;high;132;96;132;f;v;1;f;n;2462.2888000003513
u237f!x;37;False;2;P != T1?;ST2_low_3;2;Same;low;70;112;112;f;v;0;j;b;4467.266499999823
u237f!x;38;False;2;P != T1?;DT1_low_4;1;Different;low;112;70;132;f;v;0;j;b;1467.558899999858
u237f!x;39;False;2;P != T1?;DT1_low_2;1;Different;low;132;82;154;f;v;0;j;b;3976.6007999996873
u237f!x;40;False;2;P != T2?;ST2_high_4;2;Same;high;96;70;70;f;v;0;f;b;1280.0415000001522
u237f!x;41;False;2;P != T2?;ST2_high_5;2;Same;high;96;132;132;f;v;0;f;b;2835.7804999996006
u237f!x;42;False;2;P != T1?;ST2_high_5;2;Same;high;96;132;132;f;v;0;j;n;9618.501399999332
u237f!x;43;False;2;P != T2?;ST1_high_2;1;Same;high;112;82;112;f;v;0;j;n;4728.066399999989
u237f!x;44;False;2;P != T2?;ST2_low_5;2;Same;low;96;154;154;f;v;1;j;b;928.2231000006504
u237f!x;45;False;2;P != T2?;DT2_high_4;2;Different;high;96;70;60;f;v;1;f;b;1042.3344000000725
u237f!x;46;False;2;P != T1?;ST1_high_4;1;Same;high;96;70;96;f;v;1;j;n;1180.2710000001753
u237f!x;47;False;2;P != T2?;ST1_high_5;1;Same;high;96;132;96;f;v;1;f;n;4118.805600000087
u237f!x;48;False;2;P != T2?;ST2_low_5;2;Same;low;96;154;154;f;v;0;f;n;8035.573499999373
u237f!x;49;False;2;P != T2?;ST2_high_5;2;Same;high;96;132;132;f;v;0;f;n;1584.1867999997703
u237f!x;50;False;2;P != T2?;ST2_low_4;2;Same;low;112;70;70;f;v;0;f;n;1381.22150000072
u237f!x;51;False;2;P != T2?;ST1_high_1;1;Same;high;82;112;82;f;v;0;j;b;1411.765199999536
u237f!x;52;False;2;P != T1?;ST2_high_1;2;Same;high;82;112;112;f;v;0;j;n;2740.765000000465
u237f!x;53;False;2;P != T1?;ST2_low_4;2;Same;low;112;70;70;f;v;0;j;n;2223.9644999999655
u237f!x;54;False;2;P != T2?;ST2_low_2;2;Same;low;132;82;82;f;v;0;f;b;6743.063299999449
u237f!x;55;False;2;P != T1?;ST2_low_6;2;Same;low;154;96;96;f;v;1;f;b;2394.922000000406
u237f!x;56;False;2;P != T1?;DT2_high_2;2;Different;high;112;82;70;f;v;1;f;n;2508.972200000244
u237f!x;57;False;2;P != T2?;ST1_low_2;1;Same;low;132;82;132;f;v;1;f;n;5510.75899999978
u237f!x;58;False;2;P != T1?;DT2_high_5;2;Different;high;96;132;154;f;v;1;f;n;980.5563999998412
u237f!x;59;False;2;P != T1?;ST2_low_2;2;Same;low;132;82;82;f;v;1;f;n;3627.0290000002205
u237f!x;60;False;2;P != T1?;ST1_low_4;1;Same;low;112;70;112;f;v;1;j;n;3535.489200000484
u237f!x;61;False;2;P != T2?;ST2_low_1;2;Same;low;82;132;132;f;v;0;f;n;4309.804999999869
u237f!x;62;False;2;P != T1?;ST2_high_4;2;Same;high;96;70;70;f;v;0;j;n;8335.82750000005
u237f!x;63;False;2;P != T1?;DT1_high_3;1;Different;high;70;96;60;f;v;0;j;b;2700.6821000004493
u237f!x;64;False;2;P != T2?;ST1_low_3;1;Same;low;70;112;70;f;v;1;f;b;1595.3405000000203
u237f!x;65;False;2;P != T2?;ST2_high_4;2;Same;high;96;70;70;f;v;1;j;b;1393.5817999999927
u237f!x;66;False;2;P != T1?;ST1_high_2;1;Same;high;112;82;112;f;v;0;f;n;3654.941400000098
u237f!x;67;False;2;P != T1?;ST1_low_5;1;Same;low;96;154;96;f;v;1;j;n;2637.3015999997733
u237f!x;68;False;2;P != T1?;ST2_high_3;2;Same;high;70;96;96;f;v;0;j;n;1263.489999999365
u237f!x;69;False;2;P != T2?;STb_6;0;Same;None;132;132;132;f;v;0;f;b;941.131000000496
u237f!x;70;False;2;P != T1?;STb_7;0;Same;None;154;154;154;f;v;1;j;n;989.1004000000976
u237f!x;71;False;2;P != T1?;ST1_low_3;1;Same;low;70;112;70;f;v;1;j;n;5498.0854999994335
u237f!x;72;False;2;P != T1?;ST2_high_3;2;Same;high;70;96;96;f;v;0;j;n;3261.978000000454
u237f!x;73;False;2;P != T2?;ST2_low_2;2;Same;low;132;82;82;f;v;1;j;n;3481.701300000168
u237f!x;74;False;2;P != T1?;ST2_high_4;2;Same;high;96;70;70;f;v;0;j;n;5530.019900000298
u237f!x;75;False;2;P != T1?;ST1_low_4;1;Same;low;112;70;112;f;v;0;f;n;4913.876999999957
u237f!x;76;False;2;P != T2?;ST1_high_3;1;Same;high;70;96;70;f;v;0;j;n;1653.4815000004528
u237f!x;77;False;2;P != T2?;ST1_low_4;1;Same;low;112;70;112;f;v;1;f;n;4550.669799999923
u237f!x;78;False;2;P != T2?;ST1_low_1;1;Same;low;82;132;82;f;v;0;j;n;5182.447999999567
u237f!x;79;False;2;P != T2?;ST2_high_2;2;Same;high;112;82;82;f;v;1;j;n;1596.3112999997975
u237f!x;80;False;2;P != T2?;ST2_high_6;2;Same;high;132;96;96;f;v;0;f;n;4158.141299999443
u237f!x;81;False;2;P != T1?;ST2_high_3;2;Same;high;70;96;96;f;v;0;j;n;739.4505000002027
u237f!x;82;False;2;P != T2?;ST1_high_5;1;Same;high;96;132;96;f;v;1;f;n;6880.420299999969
u237f!x;83;False;2;P != T2?;STb_4;0;Same;None;96;96;96;f;v;1;j;n;906.4625000000888
u237f!x;84;False;2;P != T1?;ST1_high_2;1;Same;high;112;82;112;f;v;1;j;n;7725.923699999839
u237f!x;85;False;2;P != T1?;STb_1;0;Same;None;60;60;60;f;v;0;f;n;1441.7148000002271
u237f!x;86;False;2;P != T2?;DT1_high_2;1;Different;high;112;82;132;f;v;0;j;n;1290.4218000003311
u237f!x;87;False;2;P != T1?;STb_6;0;Same;None;132;132;132;f;v;1;j;v;617.4934999999095
u237f!x;88;False;2;P != T1?;ST1_low_1;1;Same;low;82;132;82;f;v;1;j;v;1473.1496999993396
u237f!x;89;False;2;P != T1?;ST1_high_6;1;Same;high;132;96;132;f;v;1;j;n;7240.687499999694
u237f!x;90;False;2;P != T1?;ST2_low_1;2;Same;low;82;132;132;f;v;0;j;n;10185.268000000178
u237f!x;91;False;2;P != T1?;STb_8;0;Same;None;180;180;180;f;v;0;f;n;12750.145200000588
u237f!x;92;False;2;P != T2?;ST2_low_3;2;Same;low;70;112;112;f;v;0;f;n;3669.6193000007042
u237f!x;93;False;2;P != T1?;STb_4;0;Same;None;96;96;96;f;v;1;j;n;6794.8308000004545
u237f!x;94;False;2;P != T2?;ST1_high_4;1;Same;high;96;70;96;f;v;0;j;n;7106.049500000154
u237f!x;95;False;2;P != T1?;ST2_low_6;2;Same;low;154;96;96;f;v;1;f;n;5892.949000000044
u237f!x;96;False;2;P != T1?;ST2_low_3;2;Same;low;70;112;112;f;v;0;j;n;2223.7593999998353
u237f!x;97;False;2;P != T1?;ST1_high_1;1;Same;high;82;112;82;f;v;1;j;n;8855.856899999708
u237f!x;98;False;2;P != T1?;ST1_low_3;1;Same;low;70;112;70;f;v;1;j;n;4694.5711999997
u237f!x;99;False;2;P != T2?;ST2_high_1;2;Same;high;82;112;112;f;v;0;f;b;2043.4940000004644
u237f!x;100;False;2;P != T2?;ST1_high_2;1;Same;high;112;82;112;f;v;0;j;n;1056.8362000003617
u237f!x;101;False;2;P != T1?;ST1_high_5;1;Same;high;96;132;96;f;v;1;j;n;5292.318499999965
u237f!x;102;False;2;P != T1?;ST2_high_6;2;Same;high;132;96;96;f;v;1;f;b;1127.1379999998317
u237f!x;103;False;2;P != T1?;DT2_high_3;2;Different;high;70;96;112;f;v;0;j;n;2303.942499999721
u237f!x;104;False;2;P != T1?;ST2_low_2;2;Same;low;132;82;82;f;v;1;f;n;1100.2109999999448
u237f!x;105;False;2;P != T1?;ST1_low_6;1;Same;low;154;96;154;f;v;1;j;n;968.0429000000004
u237f!x;106;False;2;P != T2?;ST2_high_4;2;Same;high;96;70;70;f;v;1;j;n;12318.474400000014
u237f!x;107;False;2;P != T2?;ST1_low_1;1;Same;low;82;132;82;f;v;1;f;n;7120.769999999538
u237f!x;108;False;2;P != T1?;ST1_low_5;1;Same;low;96;154;96;f;v;1;j;n;5560.368699999344
u237f!x;109;False;2;P != T1?;ST1_high_2;1;Same;high;112;82;112;f;v;1;j;n;2143.10579999983
u237f!x;110;False;2;P != T1?;ST2_high_6;2;Same;high;132;96;96;f;v;1;f;n;4248.204200000146
u237f!x;111;False;2;P != T2?;ST1_high_6;1;Same;high;132;96;132;f;v;1;f;b;5904.081499999847
u237f!x;112;False;2;P != T2?;ST1_low_6;1;Same;low;154;96;154;f;v;0;j;b;3425.0935000000027
u237f!x;113;False;2;P != T1?;ST2_high_6;2;Same;high;132;96;96;f;v;1;f;b;6378.643000000011
u237f!x;114;False;2;P != T2?;ST2_low_3;2;Same;low;70;112;112;f;v;1;j;n;11139.45320000039
u237f!x;115;False;2;P != T1?;ST1_high_3;1;Same;high;70;96;70;f;v;1;j;n;7943.460499999674
u237f!x;116;False;2;P != T1?;STb_2;0;Same;None;70;70;70;f;v;1;j;n;1446.0355999999592
u237f!x;117;False;2;P != T1?;ST1_low_3;1;Same;low;70;112;70;f;v;1;j;b;2026.3496999996278
u237f!x;118;False;2;P != T2?;ST1_low_5;1;Same;low;96;154;96;f;v;1;f;b;7531.637000000046
u237f!x;119;False;2;P != T2?;ST1_high_1;1;Same;high;82;112;82;f;v;1;f;b;4807.24089999967
u237f!x;120;False;2;P != T2?;DT2_high_5;2;Different;high;96;132;154;f;v;0;j;n;1581.7412999995213
u237f!x;121;False;2;P != T1?;ST2_low_3;2;Same;low;70;112;112;f;v;1;f;n;8620.7289999993
u237f!x;122;False;2;P != T1?;ST1_low_6;1;Same;low;154;96;154;f;v;0;f;n;1650.007100000039
u237f!x;123;False;2;P != T1?;ST2_low_5;2;Same;low;96;154;154;f;v;1;f;b;1136.6132000002835
u237f!x;124;False;2;P != T2?;ST2_low_5;2;Same;low;96;154;154;f;v;1;j;b;1801.4343000004374
u237f!x;125;False;2;P != T2?;ST1_low_3;1;Same;low;70;112;70;f;v;0;j;n;14643.458200000168
u237f!x;126;False;2;P != T2?;ST1_low_4;1;Same;low;112;70;112;f;v;1;f;b;3358.3696000005148
u237f!x;127;False;2;P != T1?;ST2_low_1;2;Same;low;82;132;132;f;v;0;j;b;948.7891999997373
u237f!x;128;False;2;P != T2?;DT1_low_5;1;Different;low;96;154;82;f;v;0;j;n;11490.56019999989
u237f!x;129;False;2;P != T2?;ST1_low_2;1;Same;low;132;82;132;f;v;1;f;n;9467.386900000747
u237f!x;130;False;2;P != T1?;ST1_high_6;1;Same;high;132;96;132;f;v;1;j;n;1193.656700000247
u237f!x;131;False;2;P != T2?;ST2_high_1;2;Same;high;82;112;112;f;v;1;j;n;3777.0862999996098
u237f!x;132;False;2;P != T1?;ST1_high_4;1;Same;high;96;70;96;f;v;0;f;n;5671.077800000603
u237f!x;133;False;2;P != T2?;ST1_low_1;1;Same;low;82;132;82;f;v;1;f;b;2449.398800000381
u237f!x;134;False;2;P != T2?;ST2_high_3;2;Same;high;70;96;96;f;v;0;f;b;999.420299999656
u237f!x;135;False;2;P != T2?;ST1_high_4;1;Same;high;96;70;96;f;v;0;j;b;811.327400000664
u237f!x;136;False;2;P != T1?;ST2_high_1;2;Same;high;82;112;112;f;v;1;f;n;5482.520999999906
u237f!x;137;False;2;P != T2?;ST2_low_4;2;Same;low;112;70;70;f;v;1;j;b;2976.690599999529
u237f!x;138;False;2;P != T1?;ST2_low_2;2;Same;low;132;82;82;f;v;1;f;n;11837.069400000473
u237f!x;139;False;2;P != T1?;ST2_high_5;2;Same;high;96;132;132;f;v;1;f;n;11974.661899999774
u237f!x;140;False;2;P != T2?;ST1_low_6;1;Same;low;154;96;154;f;v;0;j;n;1291.1330999995698
u237f!x;141;False;2;P != T1?;ST1_low_2;1;Same;low;132;82;132;f;v;0;f;n;1648.912200000268
u237f!x;142;False;2;P != T2?;ST1_high_3;1;Same;high;70;96;70;f;v;1;f;b;1043.3204000000842
u237f!x;143;False;2;P != T2?;ST2_low_2;2;Same;low;132;82;82;f;v;1;j;b;1089.5620999999664
u237f!x;144;False;2;P != T2?;DT1_low_1;1;Different;low;82;132;70;f;v;1;f;b;1566.6140000002997
u237f!x;145;False;2;P != T1?;ST2_high_1;2;Same;high;82;112;112;f;v;0;j;b;1120.2576000005138
u237f!x;146;False;2;P != T2?;STb_7;0;Same;None;154;154;154;f;v;1;j;b;1829.9587999999858
u237f!x;147;False;2;P != T2?;STb_2;0;Same;None;70;70;70;f;v;1;j;b;816.6591999997763
u237f!x;148;False;2;P != T2?;ST2_low_6;2;Same;low;154;96;96;f;v;0;f;n;11729.759899999408
u237f!x;149;False;2;P != T1?;ST2_high_5;2;Same;high;96;132;132;f;v;0;j;b;1179.1192999999112
u237f!x;150;False;2;P != T2?;ST1_high_6;1;Same;high;132;96;132;f;v;1;f;b;3631.096900000557
u237f!x;151;False;2;P != T1?;ST1_high_6;1;Same;high;132;96;132;f;v;0;f;b;1191.560400000526
u237f!x;152;False;2;P != T2?;DT2_low_2;2;Different;low;132;82;70;f;v;0;j;n;13463.046300000315
u237f!x;153;False;2;P != T2?;ST2_high_6;2;Same;high;132;96;96;f;v;0;f;n;13800.302600000578
u237f!x;154;False;2;P != T1?;ST1_high_3;1;Same;high;70;96;70;f;v;0;f;n;4022.399999999834
u237f!x;155;False;2;P != T1?;ST1_low_2;1;Same;low;132;82;132;f;v;1;j;n;1213.8998000000356
u237f!x;156;False;2;P != T2?;STb_5;0;Same;None;112;112;112;f;v;1;j;b;1504.1203000000678
u237f!x;157;False;2;P != T2?;STb_3;0;Same;None;82;82;82;f;v;1;j;b;2363.7736000000587
u237f!x;158;False;2;P != T2?;ST1_low_5;1;Same;low;96;154;96;f;v;0;j;n;3734.5326000004206
u237f!x;159;False;2;P != T1?;ST1_low_4;1;Same;low;112;70;112;f;v;1;j;b;793.4355999996114
u237f!x;160;False;2;P != T1?;ST1_low_1;1;Same;low;82;132;82;f;v;0;f;n;4134.355099999993
u237f!x;161;False;2;P != T2?;ST2_high_5;2;Same;high;96;132;132;f;v;1;j;n;3247.2740000002887
u237f!x;162;False;2;P != T2?;ST2_low_6;2;Same;low;154;96;96;f;v;0;f;n;1480.2588999991713
u237f!x;163;False;2;P != T2?;ST2_high_1;2;Same;high;82;112;112;f;v;0;f;n;1075.5298999993101
u237f!x;164;False;2;P != T2?;ST2_low_1;2;Same;low;82;132;132;f;v;0;f;b;4661.650199999713
u237f!x;165;False;2;P != T2?;ST1_low_5;1;Same;low;96;154;96;f;v;0;j;n;11761.336999999912
u237f!x;166;False;2;P != T1?;ST1_high_4;1;Same;high;96;70;96;f;v;0;f;n;3431.2622999996165
u237f!x;167;False;2;P != T1?;ST2_high_2;2;Same;high;112;82;82;f;v;1;f;n;4963.560600000164
u237f!x;168;False;2;P != T1?;STb_3;0;Same;None;82;82;82;f;v;1;j;n;4928.590900000017
u237f!x;169;False;2;P != T1?;ST2_high_4;2;Same;high;96;70;70;f;v;1;f;n;3117.494699999952
u237f!x;170;False;2;P != T1?;ST1_low_2;1;Same;low;132;82;132;f;v;1;j;n;1061.007299999801
u237f!x;171;False;2;P != T1?;ST2_high_2;2;Same;high;112;82;82;f;v;0;j;n;5469.223400000374
u237f!x;172;False;2;P != T2?;STb_8;0;Same;None;180;180;180;f;v;0;f;n;884.8162999993292
u237f!x;173;False;2;P != T2?;ST1_high_5;1;Same;high;96;132;96;f;v;1;f;b;1482.8808000002027
u237f!x;174;False;2;P != T1?;DT1_high_5;1;Different;high;96;132;82;f;v;1;f;n;2295.243699999446
u237f!x;175;False;2;P != T1?;ST2_low_4;2;Same;low;112;70;70;f;v;1;f;b;1801.124799999343
u237f!x;176;False;2;P != T1?;ST1_low_5;1;Same;low;96;154;96;f;v;1;j;b;1364.1735000001063
