p_code;trial_nr;practice;block;question;condition;seqPos;Same_or_Diff;ITS;T1_hz;T2_hz;P_hz;yes_key;sure_key;correct;yes_no;rating;resp_time
1d5#s4v;1;True;1;P != T1?;DT1_low_1;1;Different;low;82;132;70;f;v;0;j;v;7095.9490000004735
1d5#s4v;2;True;1;P != T1?;STb_7;0;Same;None;154;154;154;f;v;1;j;v;6763.291599998411
1d5#s4v;3;True;1;P != T2?;STb_5;0;Same;None;112;112;112;f;v;1;j;v;2144.774700000198
1d5#s4v;4;True;1;P != T1?;STb_3;0;Same;None;82;82;82;f;v;1;j;v;3582.558100000824
1d5#s4v;5;True;1;P != T1?;ST2_high_1;2;Same;high;82;112;112;f;v;1;f;v;5233.147599999938
1d5#s4v;6;True;1;P != T2?;STb_2;0;Same;None;70;70;70;f;v;1;j;v;1649.7099999996863
1d5#s4v;7;True;1;P != T2?;ST1_low_1;1;Same;low;82;132;82;f;v;1;f;v;2154.8949999996694
1d5#s4v;8;True;1;P != T2?;DT2_high_2;2;Different;high;112;82;70;f;v;1;f;v;2052.752799998416
1d5#s4v;9;True;1;P != T2?;DT2_low_2;2;Different;low;132;82;70;f;v;0;j;v;2147.5522000000637
1d5#s4v;10;True;1;P != T1?;ST1_high_4;1;Same;high;96;70;96;f;v;1;j;b;6369.581000000835
1d5#s4v;11;True;1;P != T1?;ST2_low_2;2;Same;low;132;82;82;f;v;1;f;v;1947.6947000002838
1d5#s4v;12;True;1;P != T2?;ST2_low_5;2;Same;low;96;154;154;f;v;1;j;v;1384.5905999987735
1d5#s4v;13;True;1;P != T1?;ST1_high_2;1;Same;high;112;82;112;f;v;1;j;n;2959.1595999991114
1d5#s4v;14;True;1;P != T1?;DT1_low_5;1;Different;low;96;154;82;f;v;1;f;n;4175.092399998903
1d5#s4v;15;True;1;P != T2?;ST2_low_5;2;Same;low;96;154;154;f;v;1;j;v;2842.3669999992853
1d5#s4v;16;True;1;P != T2?;ST1_low_6;1;Same;low;154;96;154;f;v;1;f;b;3333.401199999571
p_code;trial_nr;practice;block;question;condition;seqPos;Same_or_Diff;ITS;T1_hz;T2_hz;P_hz;yes_key;sure_key;correct;yes_no;rating;resp_time
1d5#s4v;1;False;1;P != T1?;ST1_high_6;1;Same;high;132;96;132;f;v;1;j;b;3452.2774999986723
1d5#s4v;2;False;1;P != T1?;ST1_high_5;1;Same;high;96;132;96;f;v;1;j;v;1444.2713999997068
1d5#s4v;3;False;1;P != T2?;ST1_high_2;1;Same;high;112;82;112;f;v;1;f;b;2026.7712000004394
1d5#s4v;4;False;1;P != T1?;ST1_high_5;1;Same;high;96;132;96;f;v;1;j;b;1438.8687999999092
1d5#s4v;5;False;1;P != T1?;ST2_low_5;2;Same;low;96;154;154;f;v;1;f;v;1580.5452000004152
1d5#s4v;6;False;1;P != T2?;ST1_low_6;1;Same;low;154;96;154;f;v;1;f;v;2658.3769999997457
1d5#s4v;7;False;1;P != T2?;ST2_high_1;2;Same;high;82;112;112;f;v;0;f;n;4278.539299999466
1d5#s4v;8;False;1;P != T1?;ST2_high_1;2;Same;high;82;112;112;f;v;1;f;v;1644.771799999944
1d5#s4v;9;False;1;P != T2?;STb_5;0;Same;None;112;112;112;f;v;1;j;v;7450.439100000949
1d5#s4v;10;False;1;P != T1?;ST2_high_6;2;Same;high;132;96;96;f;v;0;j;v;2976.8618999987666
1d5#s4v;11;False;1;P != T1?;ST1_high_1;1;Same;high;82;112;82;f;v;0;f;v;2425.4117000000406
1d5#s4v;12;False;1;P != T2?;STb_6;0;Same;None;132;132;132;f;v;1;j;v;1349.785200000042
1d5#s4v;13;False;1;P != T2?;ST2_low_1;2;Same;low;82;132;132;f;v;1;j;v;1666.8814999993629
1d5#s4v;14;False;1;P != T2?;ST2_high_6;2;Same;high;132;96;96;f;v;1;j;v;1430.6710000000749
1d5#s4v;15;False;1;P != T1?;STb_6;0;Same;None;132;132;132;f;v;1;j;v;1173.743999999715
1d5#s4v;16;False;1;P != T2?;ST2_low_1;2;Same;low;82;132;132;f;v;1;j;v;1685.9549000000698
1d5#s4v;17;False;1;P != T1?;ST1_low_5;1;Same;low;96;154;96;f;v;1;j;v;1486.5575000003446
1d5#s4v;18;False;1;P != T2?;ST1_high_2;1;Same;high;112;82;112;f;v;1;f;v;2144.130100001348
1d5#s4v;19;False;1;P != T1?;ST2_high_1;2;Same;high;82;112;112;f;v;0;j;b;4912.882399999944
1d5#s4v;20;False;1;P != T2?;DT2_low_6;2;Different;low;154;96;82;f;v;0;j;v;3118.8385999994352
1d5#s4v;21;False;1;P != T1?;ST1_low_1;1;Same;low;82;132;82;f;v;1;j;v;1770.8581999995658
1d5#s4v;22;False;1;P != T2?;ST2_low_6;2;Same;low;154;96;96;f;v;1;j;v;2802.6817999998457
1d5#s4v;23;False;1;P != T2?;ST1_low_5;1;Same;low;96;154;96;f;v;1;f;v;3231.822600000669
1d5#s4v;24;False;1;P != T1?;DT2_low_3;2;Different;low;70;112;132;f;v;1;f;v;1637.9192999993393
1d5#s4v;25;False;1;P != T2?;ST1_high_1;1;Same;high;82;112;82;f;v;1;f;v;2794.7991999990336
1d5#s4v;26;False;1;P != T2?;ST1_high_4;1;Same;high;96;70;96;f;v;1;f;v;3567.239800000607
1d5#s4v;27;False;1;P != T2?;ST2_high_5;2;Same;high;96;132;132;f;v;0;f;n;5626.458500000808
1d5#s4v;28;False;1;P != T1?;ST1_low_2;1;Same;low;132;82;132;f;v;1;j;v;4075.818600000275
1d5#s4v;29;False;1;P != T1?;ST1_low_3;1;Same;low;70;112;70;f;v;1;j;v;1673.3694000013202
1d5#s4v;30;False;1;P != T1?;ST1_low_2;1;Same;low;132;82;132;f;v;1;j;v;1762.1925000003102
1d5#s4v;31;False;1;P != T1?;ST1_low_4;1;Same;low;112;70;112;f;v;1;j;v;3862.9945999982738
1d5#s4v;32;False;1;P != T1?;ST1_low_2;1;Same;low;132;82;132;f;v;0;f;b;2238.1272000002355
1d5#s4v;33;False;1;P != T2?;ST1_low_4;1;Same;low;112;70;112;f;v;1;f;v;1929.0180999996664
1d5#s4v;34;False;1;P != T2?;ST2_low_5;2;Same;low;96;154;154;f;v;1;j;v;1717.6722000003792
1d5#s4v;35;False;1;P != T1?;ST1_high_5;1;Same;high;96;132;96;f;v;1;j;v;1466.4620999992621
1d5#s4v;36;False;1;P != T2?;ST2_high_1;2;Same;high;82;112;112;f;v;1;j;v;1632.587500000227
1d5#s4v;37;False;1;P != T2?;ST1_high_6;1;Same;high;132;96;132;f;v;1;f;v;1615.7054000013886
1d5#s4v;38;False;1;P != T2?;ST2_low_6;2;Same;low;154;96;96;f;v;1;j;v;1482.1776000007958
1d5#s4v;39;False;1;P != T2?;ST2_high_2;2;Same;high;112;82;82;f;v;1;j;v;1282.2803999988537
1d5#s4v;40;False;1;P != T1?;ST2_low_4;2;Same;low;112;70;70;f;v;1;f;v;2333.492699999624
1d5#s4v;41;False;1;P != T1?;ST1_high_4;1;Same;high;96;70;96;f;v;1;j;v;1194.7011000011116
1d5#s4v;42;False;1;P != T2?;ST2_high_6;2;Same;high;132;96;96;f;v;0;f;v;2927.136399999654
1d5#s4v;43;False;1;P != T1?;ST1_high_4;1;Same;high;96;70;96;f;v;1;j;v;1702.2137999992992
1d5#s4v;44;False;1;P != T1?;ST1_high_6;1;Same;high;132;96;132;f;v;1;j;v;2112.3021000003064
1d5#s4v;45;False;1;P != T2?;ST2_low_4;2;Same;low;112;70;70;f;v;1;j;v;1671.614500000942
1d5#s4v;46;False;1;P != T2?;ST2_high_5;2;Same;high;96;132;132;f;v;1;j;v;1752.3315999987972
1d5#s4v;47;False;1;P != T1?;ST2_high_6;2;Same;high;132;96;96;f;v;0;j;b;2034.8795999998401
1d5#s4v;48;False;1;P != T2?;ST2_low_2;2;Same;low;132;82;82;f;v;1;j;v;1392.3126000008779
1d5#s4v;49;False;1;P != T1?;ST2_low_2;2;Same;low;132;82;82;f;v;1;f;v;1814.007799999672
1d5#s4v;50;False;1;P != T1?;ST1_low_5;1;Same;low;96;154;96;f;v;1;j;v;1540.6863000007434
1d5#s4v;51;False;1;P != T1?;STb_8;0;Same;None;180;180;180;f;v;1;j;b;3292.8582999993523
1d5#s4v;52;False;1;P != T2?;ST1_high_5;1;Same;high;96;132;96;f;v;0;j;b;2122.1717999997054
1d5#s4v;53;False;1;P != T1?;ST1_high_2;1;Same;high;112;82;112;f;v;0;f;n;4191.130899998825
1d5#s4v;54;False;1;P != T2?;ST2_low_4;2;Same;low;112;70;70;f;v;1;j;v;1737.2453000007226
1d5#s4v;55;False;1;P != T1?;DT2_low_6;2;Different;low;154;96;82;f;v;1;f;v;1350.691999999981
1d5#s4v;56;False;1;P != T2?;ST1_low_3;1;Same;low;70;112;70;f;v;1;f;v;1440.608400000201
1d5#s4v;57;False;1;P != T1?;ST1_low_6;1;Same;low;154;96;154;f;v;0;f;v;1848.8952000006975
1d5#s4v;58;False;1;P != T1?;ST2_low_1;2;Same;low;82;132;132;f;v;1;f;v;1718.8779999996768
1d5#s4v;59;False;1;P != T2?;ST1_high_3;1;Same;high;70;96;70;f;v;1;f;v;1800.4048999991937
1d5#s4v;60;False;1;P != T1?;ST1_low_4;1;Same;low;112;70;112;f;v;1;j;n;6778.000100001009
1d5#s4v;61;False;1;P != T2?;ST1_high_6;1;Same;high;132;96;132;f;v;1;f;v;1975.1956999989488
1d5#s4v;62;False;1;P != T1?;ST2_low_6;2;Same;low;154;96;96;f;v;1;f;v;3372.4408999987645
1d5#s4v;63;False;1;P != T2?;STb_2;0;Same;None;70;70;70;f;v;1;j;v;1387.372700000924
1d5#s4v;64;False;1;P != T1?;ST2_high_2;2;Same;high;112;82;82;f;v;1;f;v;1377.867499999411
1d5#s4v;65;False;1;P != T2?;ST2_high_6;2;Same;high;132;96;96;f;v;0;f;v;1246.842700000343
1d5#s4v;66;False;1;P != T2?;ST1_high_3;1;Same;high;70;96;70;f;v;1;f;v;1197.7226999988488
1d5#s4v;67;False;1;P != T1?;DT2_high_2;2;Different;high;112;82;70;f;v;1;f;v;1076.4694999998028
1d5#s4v;68;False;1;P != T2?;ST2_high_1;2;Same;high;82;112;112;f;v;1;j;v;1310.0576999986515
1d5#s4v;69;False;1;P != T2?;STb_4;0;Same;None;96;96;96;f;v;1;j;v;1133.8880000002973
1d5#s4v;70;False;1;P != T2?;ST1_low_4;1;Same;low;112;70;112;f;v;1;f;v;3157.8187000013713
1d5#s4v;71;False;1;P != T1?;ST2_high_3;2;Same;high;70;96;96;f;v;1;f;v;1262.5472999989142
1d5#s4v;72;False;1;P != T2?;ST2_high_3;2;Same;high;70;96;96;f;v;1;j;b;1663.59729999931
1d5#s4v;73;False;1;P != T1?;ST2_high_5;2;Same;high;96;132;132;f;v;1;f;v;1541.4946999990207
1d5#s4v;74;False;1;P != T1?;ST2_low_6;2;Same;low;154;96;96;f;v;1;f;v;1448.6553000006097
1d5#s4v;75;False;1;P != T2?;ST2_low_3;2;Same;low;70;112;112;f;v;1;j;v;1301.149599999917
1d5#s4v;76;False;1;P != T1?;STb_7;0;Same;None;154;154;154;f;v;1;j;v;1947.271200000614
1d5#s4v;77;False;1;P != T2?;ST1_low_1;1;Same;low;82;132;82;f;v;1;f;v;1459.25890000035
1d5#s4v;78;False;1;P != T2?;ST1_high_1;1;Same;high;82;112;82;f;v;1;f;v;1372.4390000006679
1d5#s4v;79;False;1;P != T2?;ST2_high_3;2;Same;high;70;96;96;f;v;1;j;v;3035.404300000664
1d5#s4v;80;False;1;P != T1?;ST2_high_5;2;Same;high;96;132;132;f;v;1;f;v;921.5442000004259
1d5#s4v;81;False;1;P != T2?;ST1_low_3;1;Same;low;70;112;70;f;v;1;f;v;2462.6046999983373
1d5#s4v;82;False;1;P != T2?;ST1_low_2;1;Same;low;132;82;132;f;v;1;f;v;1322.7540999996563
1d5#s4v;83;False;1;P != T2?;ST2_low_4;2;Same;low;112;70;70;f;v;1;j;v;2905.1287999991473
1d5#s4v;84;False;1;P != T1?;ST2_low_1;2;Same;low;82;132;132;f;v;1;f;v;1823.0944000006275
1d5#s4v;85;False;1;P != T1?;ST2_low_6;2;Same;low;154;96;96;f;v;1;f;v;2861.1410000012256
1d5#s4v;86;False;1;P != T2?;ST1_low_3;1;Same;low;70;112;70;f;v;1;f;v;1539.7479999992356
1d5#s4v;87;False;1;P != T2?;ST1_high_6;1;Same;high;132;96;132;f;v;1;f;v;1132.9818000012892
1d5#s4v;88;False;1;P != T2?;DT2_high_1;2;Different;high;82;112;132;f;v;0;j;v;1643.3477000009589
1d5#s4v;89;False;1;P != T1?;ST1_high_3;1;Same;high;70;96;70;f;v;1;j;v;3361.5892000016174
1d5#s4v;90;False;1;P != T1?;ST1_low_1;1;Same;low;82;132;82;f;v;1;j;v;6355.4141000004165
1d5#s4v;91;False;1;P != T1?;ST1_low_3;1;Same;low;70;112;70;f;v;1;j;v;1316.968300001463
1d5#s4v;92;False;1;P != T1?;ST2_high_3;2;Same;high;70;96;96;f;v;0;j;v;1240.6623999995645
1d5#s4v;93;False;1;P != T1?;ST1_low_3;1;Same;low;70;112;70;f;v;1;j;v;2544.505500000014
1d5#s4v;94;False;1;P != T1?;DT2_high_4;2;Different;high;96;70;60;f;v;0;j;v;1069.9130000011792
1d5#s4v;95;False;1;P != T1?;STb_1;0;Same;None;60;60;60;f;v;1;j;b;2211.193600000115
1d5#s4v;96;False;1;P != T1?;ST1_high_2;1;Same;high;112;82;112;f;v;1;j;b;2450.7718999993813
1d5#s4v;97;False;1;P != T2?;ST2_high_3;2;Same;high;70;96;96;f;v;1;j;v;1457.2140000000218
1d5#s4v;98;False;1;P != T1?;ST2_low_5;2;Same;low;96;154;154;f;v;1;f;v;1909.4655999997485
1d5#s4v;99;False;1;P != T1?;ST2_low_4;2;Same;low;112;70;70;f;v;1;f;v;2931.9464999989577
1d5#s4v;100;False;1;P != T2?;ST2_high_2;2;Same;high;112;82;82;f;v;1;j;n;4995.096800001193
1d5#s4v;101;False;1;P != T2?;DT2_low_2;2;Different;low;132;82;70;f;v;0;j;b;7096.723799999381
1d5#s4v;102;False;1;P != T1?;STb_3;0;Same;None;82;82;82;f;v;1;j;v;1432.6810000002297
1d5#s4v;103;False;1;P != T2?;ST1_low_1;1;Same;low;82;132;82;f;v;1;f;v;1302.3826999997254
1d5#s4v;104;False;1;P != T2?;STb_3;0;Same;None;82;82;82;f;v;1;j;v;1419.8710000000574
1d5#s4v;105;False;1;P != T1?;ST1_low_6;1;Same;low;154;96;154;f;v;1;j;v;1397.8548000013689
1d5#s4v;106;False;1;P != T2?;STb_8;0;Same;None;180;180;180;f;v;1;j;v;1353.5922999999457
1d5#s4v;107;False;1;P != T2?;DT2_high_2;2;Different;high;112;82;70;f;v;0;j;v;1303.8455000005342
1d5#s4v;108;False;1;P != T2?;ST1_low_2;1;Same;low;132;82;132;f;v;1;f;v;1553.0686000001879
1d5#s4v;109;False;1;P != T1?;ST2_high_3;2;Same;high;70;96;96;f;v;0;j;v;1239.732300000469
1d5#s4v;110;False;1;P != T1?;ST1_high_4;1;Same;high;96;70;96;f;v;1;j;v;1275.6195999991178
1d5#s4v;111;False;1;P != T1?;DT1_high_2;1;Different;high;112;82;132;f;v;1;f;n;4101.516700000502
1d5#s4v;112;False;1;P != T2?;ST2_high_5;2;Same;high;96;132;132;f;v;1;j;b;4544.532699999763
1d5#s4v;113;False;1;P != T1?;DT1_low_4;1;Different;low;112;70;132;f;v;0;j;b;9507.450999999492
1d5#s4v;114;False;1;P != T1?;ST1_low_5;1;Same;low;96;154;96;f;v;1;j;v;2325.1669999990554
1d5#s4v;115;False;1;P != T2?;ST2_high_4;2;Same;high;96;70;70;f;v;1;j;v;1761.4427000007709
1d5#s4v;116;False;1;P != T2?;DT2_high_4;2;Different;high;96;70;60;f;v;0;j;v;1294.1860999999335
1d5#s4v;117;False;1;P != T2?;ST2_high_4;2;Same;high;96;70;70;f;v;1;j;v;1227.993399999832
1d5#s4v;118;False;1;P != T1?;ST2_low_2;2;Same;low;132;82;82;f;v;1;f;v;1556.5764000002673
1d5#s4v;119;False;1;P != T2?;ST2_low_6;2;Same;low;154;96;96;f;v;1;j;v;1187.8204999993613
1d5#s4v;120;False;1;P != T2?;ST1_high_2;1;Same;high;112;82;112;f;v;0;j;v;966.2181000003329
1d5#s4v;121;False;1;P != T1?;STb_5;0;Same;None;112;112;112;f;v;1;j;v;911.7107999991276
1d5#s4v;122;False;1;P != T1?;ST1_low_4;1;Same;low;112;70;112;f;v;1;j;v;963.2923999997729
1d5#s4v;123;False;1;P != T1?;ST1_high_3;1;Same;high;70;96;70;f;v;1;j;v;1031.7273000000569
1d5#s4v;124;False;1;P != T1?;ST2_low_3;2;Same;low;70;112;112;f;v;1;f;v;1840.6379000007291
1d5#s4v;125;False;1;P != T2?;STb_1;0;Same;None;60;60;60;f;v;1;j;v;1160.180599999876
1d5#s4v;126;False;1;P != T1?;STb_2;0;Same;None;70;70;70;f;v;1;j;v;2264.8143999995227
1d5#s4v;127;False;1;P != T1?;ST1_high_1;1;Same;high;82;112;82;f;v;1;j;n;3010.257800000545
1d5#s4v;128;False;1;P != T1?;ST1_high_2;1;Same;high;112;82;112;f;v;1;j;n;2681.6637000010815
1d5#s4v;129;False;1;P != T1?;ST2_high_6;2;Same;high;132;96;96;f;v;1;f;v;1022.5682999989658
1d5#s4v;130;False;1;P != T1?;ST2_low_1;2;Same;low;82;132;132;f;v;1;f;v;1313.5705000004236
1d5#s4v;131;False;1;P != T2?;ST1_low_4;1;Same;low;112;70;112;f;v;1;f;v;2314.4355999993422
1d5#s4v;132;False;1;P != T1?;ST2_high_5;2;Same;high;96;132;132;f;v;1;f;v;1545.9616000007372
1d5#s4v;133;False;1;P != T1?;ST1_high_3;1;Same;high;70;96;70;f;v;1;j;v;2346.614000000045
1d5#s4v;134;False;1;P != T2?;ST1_high_5;1;Same;high;96;132;96;f;v;1;f;v;1714.1085999992356
1d5#s4v;135;False;1;P != T1?;ST2_low_4;2;Same;low;112;70;70;f;v;1;f;b;3267.619599999307
1d5#s4v;136;False;1;P != T1?;DT2_low_2;2;Different;low;132;82;70;f;v;1;f;v;1304.0194000004703
1d5#s4v;137;False;1;P != T1?;ST2_low_3;2;Same;low;70;112;112;f;v;1;f;v;3054.8484999999346
1d5#s4v;138;False;1;P != T2?;ST1_low_5;1;Same;low;96;154;96;f;v;1;f;v;1534.368499998891
1d5#s4v;139;False;1;P != T2?;ST1_high_1;1;Same;high;82;112;82;f;v;1;f;v;5170.459899998605
1d5#s4v;140;False;1;P != T1?;ST2_high_4;2;Same;high;96;70;70;f;v;0;j;v;1200.3714999991644
1d5#s4v;141;False;1;P != T2?;ST1_high_5;1;Same;high;96;132;96;f;v;1;f;v;3065.65159999991
1d5#s4v;142;False;1;P != T2?;ST1_high_4;1;Same;high;96;70;96;f;v;0;j;v;2681.022999999186
1d5#s4v;143;False;1;P != T1?;STb_4;0;Same;None;96;96;96;f;v;1;j;v;1240.6382999997732
1d5#s4v;144;False;1;P != T1?;DT2_high_6;2;Different;high;132;96;82;f;v;1;f;v;3054.8476999993
1d5#s4v;145;False;1;P != T1?;ST1_high_6;1;Same;high;132;96;132;f;v;1;j;v;1162.7621000006911
1d5#s4v;146;False;1;P != T2?;DT1_low_4;1;Different;low;112;70;132;f;v;1;f;v;1331.2937999999122
1d5#s4v;147;False;1;P != T2?;DT1_low_2;1;Different;low;132;82;154;f;v;1;f;v;1032.3112000005494
1d5#s4v;148;False;1;P != T1?;ST2_high_2;2;Same;high;112;82;82;f;v;1;f;n;1898.4228999997868
1d5#s4v;149;False;1;P != T1?;ST2_high_4;2;Same;high;96;70;70;f;v;0;j;v;1340.0853000002826
1d5#s4v;150;False;1;P != T2?;ST2_low_3;2;Same;low;70;112;112;f;v;1;j;v;1292.3770000015793
1d5#s4v;151;False;1;P != T2?;ST1_low_6;1;Same;low;154;96;154;f;v;1;f;v;1331.0007000000041
1d5#s4v;152;False;1;P != T1?;ST2_high_4;2;Same;high;96;70;70;f;v;0;j;n;2183.0093000007764
1d5#s4v;153;False;1;P != T1?;ST2_low_3;2;Same;low;70;112;112;f;v;1;f;v;1203.1268999999156
1d5#s4v;154;False;1;P != T2?;ST1_high_4;1;Same;high;96;70;96;f;v;0;j;v;1618.4828000004927
1d5#s4v;155;False;1;P != T2?;DT1_high_2;1;Different;high;112;82;132;f;v;1;f;v;3177.0918000001984
1d5#s4v;156;False;1;P != T1?;ST2_high_2;2;Same;high;112;82;82;f;v;1;f;v;1348.129300000437
1d5#s4v;157;False;1;P != T2?;ST1_high_3;1;Same;high;70;96;70;f;v;0;j;n;8681.729700001597
1d5#s4v;158;False;1;P != T2?;ST2_low_3;2;Same;low;70;112;112;f;v;1;j;n;1862.1942999998282
1d5#s4v;159;False;1;P != T1?;ST1_low_1;1;Same;low;82;132;82;f;v;1;j;v;4891.879099999642
1d5#s4v;160;False;1;P != T1?;ST1_high_1;1;Same;high;82;112;82;f;v;1;j;v;995.3466000006301
1d5#s4v;161;False;1;P != T2?;ST2_low_2;2;Same;low;132;82;82;f;v;1;j;b;2593.6197000009997
1d5#s4v;162;False;1;P != T1?;ST2_low_5;2;Same;low;96;154;154;f;v;1;f;v;1270.9924000009778
1d5#s4v;163;False;1;P != T2?;ST1_low_5;1;Same;low;96;154;96;f;v;1;f;v;1499.7215000003052
1d5#s4v;164;False;1;P != T2?;ST2_low_5;2;Same;low;96;154;154;f;v;1;j;v;1303.0104000008578
1d5#s4v;165;False;1;P != T2?;ST2_high_2;2;Same;high;112;82;82;f;v;1;j;v;1397.6421999996091
1d5#s4v;166;False;1;P != T2?;ST2_low_1;2;Same;low;82;132;132;f;v;1;j;v;1204.71919999909
1d5#s4v;167;False;1;P != T2?;ST1_low_6;1;Same;low;154;96;154;f;v;1;f;v;1323.9225999986957
1d5#s4v;168;False;1;P != T2?;ST1_low_2;1;Same;low;132;82;132;f;v;1;f;v;1341.7162999994616
1d5#s4v;169;False;1;P != T1?;ST2_low_2;2;Same;low;132;82;82;f;v;1;f;b;4775.174500000503
1d5#s4v;170;False;1;P != T2?;ST1_low_1;1;Same;low;82;132;82;f;v;1;f;v;1978.152699999555
1d5#s4v;171;False;1;P != T2?;ST2_high_4;2;Same;high;96;70;70;f;v;1;j;v;1368.6260000013135
1d5#s4v;172;False;1;P != T2?;STb_7;0;Same;None;154;154;154;f;v;1;j;v;1215.1701000002504
1d5#s4v;173;False;1;P != T2?;ST2_low_5;2;Same;low;96;154;154;f;v;1;j;v;919.2667000006622
1d5#s4v;174;False;1;P != T1?;ST2_high_1;2;Same;high;82;112;112;f;v;1;f;n;2459.051499999987
1d5#s4v;175;False;1;P != T1?;ST1_low_6;1;Same;low;154;96;154;f;v;1;j;v;1125.435900001321
1d5#s4v;176;False;1;P != T2?;ST2_low_2;2;Same;low;132;82;82;f;v;1;j;v;1429.3151999991096
1d5#s4v;1;True;2;P = T1?;DT2_low_1;2;Different;low;82;132;154;f;v;1;j;b;4610.839099999794
1d5#s4v;2;True;2;P = T2?;ST2_high_5;2;Same;high;96;132;132;f;v;1;f;v;2043.8798000013776
1d5#s4v;3;True;2;P = T2?;STb_8;0;Same;None;180;180;180;f;v;1;f;v;1312.7545999996073
1d5#s4v;4;True;2;P = T1?;DT2_high_1;2;Different;high;82;112;132;f;v;0;f;v;1510.2130000013858
1d5#s4v;5;True;2;P = T1?;ST2_low_1;2;Same;low;82;132;132;f;v;1;j;b;1917.4151000006532
1d5#s4v;6;True;2;P = T1?;STb_3;0;Same;None;82;82;82;f;v;1;f;v;1465.0527999983751
1d5#s4v;7;True;2;P = T2?;ST1_high_1;1;Same;high;82;112;82;f;v;1;j;b;3109.5261000009486
1d5#s4v;8;True;2;P = T1?;ST1_low_2;1;Same;low;132;82;132;f;v;1;f;v;828.7529999997787
1d5#s4v;9;True;2;P = T1?;ST1_high_3;1;Same;high;70;96;70;f;v;0;j;n;1891.610499998933
1d5#s4v;10;True;2;P = T2?;ST1_low_4;1;Same;low;112;70;112;f;v;1;j;v;1077.4074999990262
1d5#s4v;11;True;2;P = T1?;ST2_low_3;2;Same;low;70;112;112;f;v;1;j;v;1886.6458000011335
1d5#s4v;12;True;2;P = T1?;STb_8;0;Same;None;180;180;180;f;v;1;f;v;4343.111000000135
1d5#s4v;13;True;2;P = T2?;DT2_low_3;2;Different;low;70;112;132;f;v;0;f;v;1398.4464000004664
1d5#s4v;14;True;2;P = T2?;STb_7;0;Same;None;154;154;154;f;v;1;f;v;1326.7597000012756
1d5#s4v;15;True;2;P = T2?;ST2_high_4;2;Same;high;96;70;70;f;v;1;f;v;1328.4037000012177
1d5#s4v;16;True;2;P = T2?;DT1_low_5;1;Different;low;96;154;82;f;v;1;j;v;2068.4316999995644
1d5#s4v;1;False;2;P = T1?;ST1_high_5;1;Same;high;96;132;96;f;v;1;f;v;1427.5805999986915
1d5#s4v;2;False;2;P = T1?;ST1_high_2;1;Same;high;112;82;112;f;v;1;f;v;2190.338200000042
1d5#s4v;3;False;2;P = T1?;ST2_high_3;2;Same;high;70;96;96;f;v;0;f;n;5152.843900001244
1d5#s4v;4;False;2;P = T2?;ST2_low_2;2;Same;low;132;82;82;f;v;0;j;n;3098.578399998587
1d5#s4v;5;False;2;P = T2?;ST1_high_1;1;Same;high;82;112;82;f;v;1;j;v;1350.514399999156
1d5#s4v;6;False;2;P = T2?;STb_5;0;Same;None;112;112;112;f;v;1;f;v;1564.5471000007092
1d5#s4v;7;False;2;P = T1?;ST1_low_2;1;Same;low;132;82;132;f;v;1;f;v;1165.2126999997563
1d5#s4v;8;False;2;P = T1?;ST1_high_3;1;Same;high;70;96;70;f;v;1;f;b;1977.0478000009462
1d5#s4v;9;False;2;P = T1?;ST1_high_5;1;Same;high;96;132;96;f;v;1;f;v;1161.495999998806
1d5#s4v;10;False;2;P = T1?;ST1_low_5;1;Same;low;96;154;96;f;v;1;f;v;1224.7699999988981
1d5#s4v;11;False;2;P = T1?;ST1_low_1;1;Same;low;82;132;82;f;v;1;f;v;1149.5209000004252
1d5#s4v;12;False;2;P = T2?;DT1_low_5;1;Different;low;96;154;82;f;v;1;j;v;1622.3749999990105
1d5#s4v;13;False;2;P = T2?;ST1_high_2;1;Same;high;112;82;112;f;v;1;j;v;1305.5393000013282
1d5#s4v;14;False;2;P = T1?;ST1_high_6;1;Same;high;132;96;132;f;v;1;f;b;4281.947900000887
1d5#s4v;15;False;2;P = T2?;ST2_low_1;2;Same;low;82;132;132;f;v;1;f;v;1107.1840000004158
1d5#s4v;16;False;2;P = T1?;ST2_low_1;2;Same;low;82;132;132;f;v;1;j;v;1204.109399999652
1d5#s4v;17;False;2;P = T2?;STb_3;0;Same;None;82;82;82;f;v;1;f;v;741.4334000004601
1d5#s4v;18;False;2;P = T2?;ST1_high_4;1;Same;high;96;70;96;f;v;1;j;v;1456.9353999995656
1d5#s4v;19;False;2;P = T2?;ST2_low_4;2;Same;low;112;70;70;f;v;1;f;v;1035.15569999945
1d5#s4v;20;False;2;P = T2?;ST2_low_2;2;Same;low;132;82;82;f;v;1;f;v;2929.834700000356
1d5#s4v;21;False;2;P = T2?;ST1_high_6;1;Same;high;132;96;132;f;v;1;j;v;1112.5098000011349
1d5#s4v;22;False;2;P = T2?;ST1_low_1;1;Same;low;82;132;82;f;v;1;j;n;1054.0664000000106
1d5#s4v;23;False;2;P = T2?;ST2_high_5;2;Same;high;96;132;132;f;v;1;f;v;1175.8808999984467
1d5#s4v;24;False;2;P = T1?;ST2_low_5;2;Same;low;96;154;154;f;v;1;j;v;1408.6265999994794
1d5#s4v;25;False;2;P = T1?;ST1_low_3;1;Same;low;70;112;70;f;v;1;f;v;742.3035000010714
1d5#s4v;26;False;2;P = T2?;ST1_high_5;1;Same;high;96;132;96;f;v;1;j;n;1514.0846999984205
1d5#s4v;27;False;2;P = T2?;ST1_high_1;1;Same;high;82;112;82;f;v;1;j;v;839.0555999994831
1d5#s4v;28;False;2;P = T1?;ST1_high_1;1;Same;high;82;112;82;f;v;1;f;b;3276.3417999995
1d5#s4v;29;False;2;P = T2?;ST2_high_4;2;Same;high;96;70;70;f;v;1;f;v;1500.5727000007028
1d5#s4v;30;False;2;P = T2?;ST2_high_6;2;Same;high;132;96;96;f;v;1;f;v;1039.6485999990546
1d5#s4v;31;False;2;P = T2?;ST1_low_1;1;Same;low;82;132;82;f;v;1;j;v;1450.6017999992764
1d5#s4v;32;False;2;P = T2?;DT2_low_2;2;Different;low;132;82;70;f;v;0;f;v;1106.0562000002392
1d5#s4v;33;False;2;P = T1?;ST2_low_1;2;Same;low;82;132;132;f;v;1;j;v;889.1241999990598
1d5#s4v;34;False;2;P = T1?;ST1_high_3;1;Same;high;70;96;70;f;v;1;f;v;742.0536000008724
1d5#s4v;35;False;2;P = T1?;STb_2;0;Same;None;70;70;70;f;v;1;f;v;967.8897000012512
1d5#s4v;36;False;2;P = T2?;ST2_high_3;2;Same;high;70;96;96;f;v;1;f;v;891.5506000012101
1d5#s4v;37;False;2;P = T1?;ST2_high_6;2;Same;high;132;96;96;f;v;1;j;v;1943.3647999994719
1d5#s4v;38;False;2;P = T2?;ST2_high_3;2;Same;high;70;96;96;f;v;1;f;v;1412.4934000010398
1d5#s4v;39;False;2;P = T2?;ST2_high_5;2;Same;high;96;132;132;f;v;1;f;v;821.3407000002917
1d5#s4v;40;False;2;P = T2?;ST2_low_6;2;Same;low;154;96;96;f;v;1;f;v;796.7793999996502
1d5#s4v;41;False;2;P = T1?;ST1_low_3;1;Same;low;70;112;70;f;v;1;f;v;721.5495000000374
1d5#s4v;42;False;2;P = T1?;ST2_low_1;2;Same;low;82;132;132;f;v;1;j;v;1406.3578999994206
1d5#s4v;43;False;2;P = T1?;ST1_high_4;1;Same;high;96;70;96;f;v;1;f;v;767.9619000009552
1d5#s4v;44;False;2;P = T1?;STb_5;0;Same;None;112;112;112;f;v;1;f;v;672.2472000001289
1d5#s4v;45;False;2;P = T1?;DT1_low_6;1;Different;low;154;96;180;f;v;0;f;v;720.8474000017304
1d5#s4v;46;False;2;P = T2?;ST2_high_3;2;Same;high;70;96;96;f;v;0;j;v;1639.4311000003654
1d5#s4v;47;False;2;P = T2?;ST2_low_1;2;Same;low;82;132;132;f;v;0;j;b;1410.1322000005894
1d5#s4v;48;False;2;P = T1?;ST1_low_2;1;Same;low;132;82;132;f;v;1;f;v;859.7570000001724
1d5#s4v;49;False;2;P = T1?;ST1_low_3;1;Same;low;70;112;70;f;v;0;j;n;4443.618100000094
1d5#s4v;50;False;2;P = T2?;ST2_low_3;2;Same;low;70;112;112;f;v;1;f;v;1207.7491999989434
1d5#s4v;51;False;2;P = T1?;ST2_low_6;2;Same;low;154;96;96;f;v;1;j;v;1996.9055999990815
1d5#s4v;52;False;2;P = T1?;DT2_low_5;2;Different;low;96;154;180;f;v;1;j;v;1080.8231999999407
1d5#s4v;53;False;2;P = T1?;ST2_high_2;2;Same;high;112;82;82;f;v;1;j;v;1157.2857000010117
1d5#s4v;54;False;2;P = T1?;ST1_high_1;1;Same;high;82;112;82;f;v;1;f;v;945.0944000000163
1d5#s4v;55;False;2;P = T2?;ST1_low_6;1;Same;low;154;96;154;f;v;1;j;v;915.5083000005106
1d5#s4v;56;False;2;P = T1?;ST2_high_2;2;Same;high;112;82;82;f;v;0;f;v;696.145300000353
1d5#s4v;57;False;2;P = T1?;ST2_high_6;2;Same;high;132;96;96;f;v;1;j;b;2190.6159999998636
1d5#s4v;58;False;2;P = T2?;ST1_high_5;1;Same;high;96;132;96;f;v;1;j;v;1192.4023999999918
1d5#s4v;59;False;2;P = T1?;ST1_high_5;1;Same;high;96;132;96;f;v;1;f;v;857.9289999997854
1d5#s4v;60;False;2;P = T1?;ST2_low_2;2;Same;low;132;82;82;f;v;1;j;v;1091.038299999127
1d5#s4v;61;False;2;P = T1?;DT1_low_2;1;Different;low;132;82;154;f;v;0;f;v;1027.790799998911
1d5#s4v;62;False;2;P = T1?;ST2_low_3;2;Same;low;70;112;112;f;v;1;j;v;1114.16570000074
1d5#s4v;63;False;2;P = T1?;ST1_low_4;1;Same;low;112;70;112;f;v;1;f;v;1421.4212000006228
1d5#s4v;64;False;2;P = T1?;ST2_low_5;2;Same;low;96;154;154;f;v;1;j;v;1137.606299998879
1d5#s4v;65;False;2;P = T2?;ST1_high_1;1;Same;high;82;112;82;f;v;0;f;v;1269.1045999999915
1d5#s4v;66;False;2;P = T1?;ST1_low_4;1;Same;low;112;70;112;f;v;1;f;b;7115.093100001104
1d5#s4v;67;False;2;P = T2?;ST2_low_5;2;Same;low;96;154;154;f;v;1;f;v;1853.262900000118
1d5#s4v;68;False;2;P = T2?;ST1_low_2;1;Same;low;132;82;132;f;v;0;f;v;3241.514499999539
1d5#s4v;69;False;2;P = T2?;ST1_high_2;1;Same;high;112;82;112;f;v;1;j;v;3642.6298000005772
1d5#s4v;70;False;2;P = T1?;ST2_low_4;2;Same;low;112;70;70;f;v;0;f;v;1103.6901000006765
1d5#s4v;71;False;2;P = T1?;ST2_low_5;2;Same;low;96;154;154;f;v;1;j;v;1068.8640999997006
1d5#s4v;72;False;2;P = T2?;ST2_high_2;2;Same;high;112;82;82;f;v;1;f;v;1212.7607000002172
1d5#s4v;73;False;2;P = T2?;ST2_high_2;2;Same;high;112;82;82;f;v;1;f;v;1328.741400000581
1d5#s4v;74;False;2;P = T1?;ST1_high_2;1;Same;high;112;82;112;f;v;1;f;b;1073.9806000001408
1d5#s4v;75;False;2;P = T1?;ST2_low_2;2;Same;low;132;82;82;f;v;1;j;b;2320.0653000003513
1d5#s4v;76;False;2;P = T2?;ST2_low_4;2;Same;low;112;70;70;f;v;1;f;v;1310.297599999103
1d5#s4v;77;False;2;P = T2?;ST2_high_6;2;Same;high;132;96;96;f;v;0;j;v;1200.5071000003227
1d5#s4v;78;False;2;P = T2?;ST1_high_4;1;Same;high;96;70;96;f;v;0;f;v;721.0140999995929
1d5#s4v;79;False;2;P = T1?;ST2_high_5;2;Same;high;96;132;132;f;v;1;j;v;1253.8017999995645
1d5#s4v;80;False;2;P = T1?;ST2_high_1;2;Same;high;82;112;112;f;v;1;j;v;1580.2598999998736
1d5#s4v;81;False;2;P = T1?;ST1_low_1;1;Same;low;82;132;82;f;v;1;f;b;1242.0010999994702
1d5#s4v;82;False;2;P = T1?;ST1_low_6;1;Same;low;154;96;154;f;v;1;f;v;1343.0076999993616
1d5#s4v;83;False;2;P = T1?;ST1_high_1;1;Same;high;82;112;82;f;v;1;f;v;4822.458099999494
1d5#s4v;84;False;2;P = T2?;ST1_high_6;1;Same;high;132;96;132;f;v;1;j;v;1800.1855000002251
1d5#s4v;85;False;2;P = T1?;ST2_low_6;2;Same;low;154;96;96;f;v;1;j;v;982.2925999997096
1d5#s4v;86;False;2;P = T2?;STb_6;0;Same;None;132;132;132;f;v;1;f;v;779.8043000002508
1d5#s4v;87;False;2;P = T1?;ST2_high_4;2;Same;high;96;70;70;f;v;1;j;v;800.9908999993058
1d5#s4v;88;False;2;P = T2?;ST1_low_6;1;Same;low;154;96;154;f;v;1;j;v;913.2552999999461
1d5#s4v;89;False;2;P = T2?;ST1_low_5;1;Same;low;96;154;96;f;v;1;j;v;1398.0712000011408
1d5#s4v;90;False;2;P = T2?;ST1_low_3;1;Same;low;70;112;70;f;v;1;j;v;965.818800001216
1d5#s4v;91;False;2;P = T2?;ST2_high_1;2;Same;high;82;112;112;f;v;1;f;v;1055.26269999973
1d5#s4v;92;False;2;P = T1?;ST1_low_6;1;Same;low;154;96;154;f;v;1;f;b;4026.924900001177
1d5#s4v;93;False;2;P = T2?;ST1_low_4;1;Same;low;112;70;112;f;v;0;f;v;741.6847000004054
1d5#s4v;94;False;2;P = T2?;ST1_high_5;1;Same;high;96;132;96;f;v;1;j;n;1059.0642000006483
1d5#s4v;95;False;2;P = T2?;ST2_low_2;2;Same;low;132;82;82;f;v;1;f;v;961.6625999988173
1d5#s4v;96;False;2;P = T1?;STb_1;0;Same;None;60;60;60;f;v;1;f;v;782.5042999993457
1d5#s4v;97;False;2;P = T2?;ST1_low_3;1;Same;low;70;112;70;f;v;1;j;n;5171.51179999928
1d5#s4v;98;False;2;P = T1?;ST1_low_1;1;Same;low;82;132;82;f;v;1;f;v;1052.3192000000563
1d5#s4v;99;False;2;P = T2?;ST1_high_4;1;Same;high;96;70;96;f;v;0;f;v;288.5533000007854
1d5#s4v;100;False;2;P = T2?;ST2_low_6;2;Same;low;154;96;96;f;v;1;f;v;848.0736999990768
1d5#s4v;101;False;2;P = T2?;ST2_low_5;2;Same;low;96;154;154;f;v;1;f;v;1316.9231000010768
1d5#s4v;102;False;2;P = T2?;DT1_high_3;1;Different;high;70;96;60;f;v;0;f;v;1368.4694999992644
1d5#s4v;103;False;2;P = T2?;ST1_high_3;1;Same;high;70;96;70;f;v;0;f;v;340.7262999990053
1d5#s4v;104;False;2;P = T1?;ST2_high_3;2;Same;high;70;96;96;f;v;0;f;v;728.4598999995069
1d5#s4v;105;False;2;P = T2?;ST1_high_3;1;Same;high;70;96;70;f;v;0;f;v;957.1071999998821
1d5#s4v;106;False;2;P = T2?;STb_7;0;Same;None;154;154;154;f;v;1;f;v;1448.0413000001136
1d5#s4v;107;False;2;P = T1?;ST2_low_6;2;Same;low;154;96;96;f;v;1;j;v;1767.8099000004295
1d5#s4v;108;False;2;P = T2?;ST2_low_3;2;Same;low;70;112;112;f;v;1;f;v;632.0512000002054
1d5#s4v;109;False;2;P = T1?;ST2_high_4;2;Same;high;96;70;70;f;v;1;j;n;1149.6198999993794
1d5#s4v;110;False;2;P = T2?;ST2_low_1;2;Same;low;82;132;132;f;v;0;j;n;2848.1672999987495
1d5#s4v;111;False;2;P = T2?;ST1_low_3;1;Same;low;70;112;70;f;v;1;j;v;893.337800000154
1d5#s4v;112;False;2;P = T2?;ST1_low_5;1;Same;low;96;154;96;f;v;1;j;v;4206.87259999977
1d5#s4v;113;False;2;P = T2?;DT1_high_5;1;Different;high;96;132;82;f;v;1;j;b;1218.4097999997903
1d5#s4v;114;False;2;P = T2?;ST1_high_2;1;Same;high;112;82;112;f;v;1;j;v;1182.0373000009567
1d5#s4v;115;False;2;P = T2?;DT1_low_4;1;Different;low;112;70;132;f;v;1;j;v;1872.0764000008785
1d5#s4v;116;False;2;P = T1?;ST1_low_5;1;Same;low;96;154;96;f;v;1;f;v;762.4899000002188
1d5#s4v;117;False;2;P = T1?;ST2_low_3;2;Same;low;70;112;112;f;v;1;j;n;1065.3660000007221
1d5#s4v;118;False;2;P = T2?;ST1_low_1;1;Same;low;82;132;82;f;v;0;f;v;1042.8071999995154
1d5#s4v;119;False;2;P = T1?;ST2_low_2;2;Same;low;132;82;82;f;v;1;j;v;829.3888999996852
1d5#s4v;120;False;2;P = T2?;ST2_high_1;2;Same;high;82;112;112;f;v;0;j;n;1723.5517999997683
1d5#s4v;121;False;2;P = T1?;ST2_high_3;2;Same;high;70;96;96;f;v;0;f;v;861.9830000006914
1d5#s4v;122;False;2;P = T2?;ST2_low_6;2;Same;low;154;96;96;f;v;0;j;n;9290.242500001114
1d5#s4v;123;False;2;P = T2?;ST1_low_2;1;Same;low;132;82;132;f;v;1;j;v;1059.773099999802
1d5#s4v;124;False;2;P = T1?;STb_3;0;Same;None;82;82;82;f;v;1;f;v;742.8987999992387
1d5#s4v;125;False;2;P = T1?;DT1_high_6;1;Different;high;132;96;154;f;v;0;f;v;1129.2456999999558
1d5#s4v;126;False;2;P = T2?;ST2_high_1;2;Same;high;82;112;112;f;v;1;f;v;759.0745999987121
1d5#s4v;127;False;2;P = T1?;ST1_low_6;1;Same;low;154;96;154;f;v;1;f;v;1555.373299999701
1d5#s4v;128;False;2;P = T1?;DT2_high_1;2;Different;high;82;112;132;f;v;1;j;v;1059.6690000002127
1d5#s4v;129;False;2;P = T2?;ST2_high_5;2;Same;high;96;132;132;f;v;1;f;v;1230.7112000016787
1d5#s4v;130;False;2;P = T1?;ST1_high_3;1;Same;high;70;96;70;f;v;1;f;v;728.4138000013627
1d5#s4v;131;False;2;P = T1?;STb_4;0;Same;None;96;96;96;f;v;1;f;v;1078.860600000553
1d5#s4v;132;False;2;P = T2?;ST2_low_3;2;Same;low;70;112;112;f;v;1;f;v;1785.5724000000919
1d5#s4v;133;False;2;P = T2?;ST1_low_6;1;Same;low;154;96;154;f;v;1;j;v;1590.5438000008871
1d5#s4v;134;False;2;P = T1?;ST1_high_2;1;Same;high;112;82;112;f;v;1;f;v;1334.6987999993871
1d5#s4v;135;False;2;P = T1?;ST1_high_4;1;Same;high;96;70;96;f;v;0;j;b;1939.319400000386
1d5#s4v;136;False;2;P = T1?;DT2_low_3;2;Different;low;70;112;132;f;v;1;j;v;885.037399999419
1d5#s4v;137;False;2;P = T1?;ST2_high_5;2;Same;high;96;132;132;f;v;1;j;v;1074.528500001179
1d5#s4v;138;False;2;P = T2?;ST1_low_4;1;Same;low;112;70;112;f;v;0;f;v;747.8178999990632
1d5#s4v;139;False;2;P = T1?;ST2_high_5;2;Same;high;96;132;132;f;v;1;j;n;1489.4616000001406
1d5#s4v;140;False;2;P = T1?;ST1_high_6;1;Same;high;132;96;132;f;v;1;f;v;1156.065999999555
1d5#s4v;141;False;2;P = T1?;ST2_high_4;2;Same;high;96;70;70;f;v;0;f;v;473.8394000014523
1d5#s4v;142;False;2;P = T2?;ST1_low_4;1;Same;low;112;70;112;f;v;1;j;v;1576.0669999999664
1d5#s4v;143;False;2;P = T1?;ST2_high_6;2;Same;high;132;96;96;f;v;0;f;b;1861.52519999996
1d5#s4v;144;False;2;P = T1?;STb_6;0;Same;None;132;132;132;f;v;1;f;b;1246.334299999944
1d5#s4v;145;False;2;P = T2?;DT1_low_1;1;Different;low;82;132;70;f;v;1;j;v;1986.8650999997044
1d5#s4v;146;False;2;P = T1?;ST2_high_1;2;Same;high;82;112;112;f;v;0;f;v;1306.2521000010747
1d5#s4v;147;False;2;P = T2?;ST1_low_5;1;Same;low;96;154;96;f;v;1;j;v;5075.161700000535
1d5#s4v;148;False;2;P = T2?;ST2_low_5;2;Same;low;96;154;154;f;v;1;f;v;1121.8413999995391
1d5#s4v;149;False;2;P = T1?;ST2_high_2;2;Same;high;112;82;82;f;v;1;j;b;2907.9087000009167
1d5#s4v;150;False;2;P = T1?;ST2_high_1;2;Same;high;82;112;112;f;v;1;j;v;1124.3623000009393
1d5#s4v;151;False;2;P = T2?;STb_1;0;Same;None;60;60;60;f;v;1;f;v;1241.7191000004095
1d5#s4v;152;False;2;P = T2?;STb_8;0;Same;None;180;180;180;f;v;1;f;v;1425.7803999989846
1d5#s4v;153;False;2;P = T2?;ST1_high_3;1;Same;high;70;96;70;f;v;0;f;v;1102.507699999478
1d5#s4v;154;False;2;P = T2?;ST1_high_6;1;Same;high;132;96;132;f;v;1;j;n;3912.7501000002667
1d5#s4v;155;False;2;P = T2?;ST2_high_4;2;Same;high;96;70;70;f;v;1;f;v;876.516399999673
1d5#s4v;156;False;2;P = T1?;ST1_high_4;1;Same;high;96;70;96;f;v;1;f;v;1075.676200000089
1d5#s4v;157;False;2;P = T1?;ST2_low_4;2;Same;low;112;70;70;f;v;1;j;v;1019.2955000002257
1d5#s4v;158;False;2;P = T2?;DT2_low_6;2;Different;low;154;96;82;f;v;0;f;v;1165.988800001287
1d5#s4v;159;False;2;P = T2?;ST2_high_4;2;Same;high;96;70;70;f;v;1;f;v;611.8257000016456
1d5#s4v;160;False;2;P = T2?;STb_2;0;Same;None;70;70;70;f;v;1;f;v;670.4186000006302
1d5#s4v;161;False;2;P = T1?;ST2_low_4;2;Same;low;112;70;70;f;v;1;j;v;4514.309000000139
1d5#s4v;162;False;2;P = T1?;ST1_high_6;1;Same;high;132;96;132;f;v;1;f;b;1434.6091000006709
1d5#s4v;163;False;2;P = T1?;DT2_low_1;2;Different;low;82;132;154;f;v;1;j;v;1261.3062000000355
1d5#s4v;164;False;2;P = T1?;ST1_low_2;1;Same;low;132;82;132;f;v;1;f;b;1212.9819999991014
1d5#s4v;165;False;2;P = T2?;DT1_high_6;1;Different;high;132;96;154;f;v;1;j;v;1901.981799999703
1d5#s4v;166;False;2;P = T1?;ST1_low_4;1;Same;low;112;70;112;f;v;1;f;n;1752.5566999993316
1d5#s4v;167;False;2;P = T2?;ST2_high_2;2;Same;high;112;82;82;f;v;1;f;v;818.9268999994965
1d5#s4v;168;False;2;P = T1?;ST2_low_3;2;Same;low;70;112;112;f;v;1;j;b;897.0432999994955
1d5#s4v;169;False;2;P = T1?;STb_8;0;Same;None;180;180;180;f;v;1;f;v;812.376800000493
1d5#s4v;170;False;2;P = T2?;ST2_high_6;2;Same;high;132;96;96;f;v;1;f;v;646.141200000784
1d5#s4v;171;False;2;P = T1?;DT2_high_3;2;Different;high;70;96;112;f;v;1;j;n;2481.1132999984693
1d5#s4v;172;False;2;P = T1?;STb_7;0;Same;None;154;154;154;f;v;1;f;v;744.3471000005957
1d5#s4v;173;False;2;P = T2?;ST1_low_2;1;Same;low;132;82;132;f;v;1;j;v;1336.9180999998207
1d5#s4v;174;False;2;P = T2?;ST2_low_4;2;Same;low;112;70;70;f;v;0;j;n;11263.198000000557
1d5#s4v;175;False;2;P = T2?;STb_4;0;Same;None;96;96;96;f;v;1;f;v;285.79890000037267
1d5#s4v;176;False;2;P = T1?;ST1_low_5;1;Same;low;96;154;96;f;v;1;f;v;918.5675999997329
