p_code;trial_nr;practice;block;question;condition;seqPos;Same_or_Diff;ITS;T1_hz;T2_hz;P_hz;yes_key;sure_key;correct;yes_no;rating;resp_time
3k0!xt7;1;True;1;P = T1?;STb_2;0;Same;None;70;70;70;j;n;0;f;b;3508.958800000073
3k0!xt7;2;True;1;P = T1?;DT2_high_3;2;Different;high;70;96;112;j;n;1;f;n;1754.951500000061
3k0!xt7;3;True;1;P = T2?;DT1_high_3;1;Different;high;70;96;60;j;n;1;f;b;1879.288699999961
3k0!xt7;4;True;1;P = T2?;DT2_high_4;2;Different;high;96;70;60;j;n;1;f;n;1395.9623000000647
3k0!xt7;5;True;1;P = T1?;DT2_low_4;2;Different;low;112;70;60;j;n;0;j;v;2074.9983999994583
3k0!xt7;6;True;1;P = T1?;ST1_high_4;1;Same;high;96;70;96;j;n;0;f;v;3014.6693999995477
3k0!xt7;7;True;1;P = T1?;ST2_low_6;2;Same;low;154;96;96;j;n;1;f;v;2156.738900000164
3k0!xt7;8;True;1;P = T1?;STb_3;0;Same;None;82;82;82;j;n;0;f;v;1052.1740999993199
3k0!xt7;9;True;1;P = T2?;STb_1;0;Same;None;60;60;60;j;n;1;j;b;2016.606899999715
3k0!xt7;10;True;1;P = T2?;ST2_high_2;2;Same;high;112;82;82;j;n;1;j;n;2003.6355000002004
3k0!xt7;11;True;1;P = T2?;STb_6;0;Same;None;132;132;132;j;n;1;j;n;919.8652000004586
3k0!xt7;12;True;1;P = T2?;ST1_high_4;1;Same;high;96;70;96;j;n;1;f;b;2368.933699999616
3k0!xt7;13;True;1;P = T1?;ST2_low_6;2;Same;low;154;96;96;j;n;0;j;v;2653.218000000379
3k0!xt7;14;True;1;P = T2?;ST2_low_4;2;Same;low;112;70;70;j;n;1;j;n;3308.8847000008172
3k0!xt7;15;True;1;P = T1?;ST1_high_5;1;Same;high;96;132;96;j;n;1;j;v;2803.931299999931
3k0!xt7;16;True;1;P = T2?;ST1_high_1;1;Same;high;82;112;82;j;n;1;f;v;3061.3776000000144
p_code;trial_nr;practice;block;question;condition;seqPos;Same_or_Diff;ITS;T1_hz;T2_hz;P_hz;yes_key;sure_key;correct;yes_no;rating;resp_time
3k0!xt7;1;False;1;P = T2?;ST2_low_4;2;Same;low;112;70;70;j;n;1;j;n;1494.4306999996115
3k0!xt7;2;False;1;P = T1?;ST1_high_5;1;Same;high;96;132;96;j;n;0;f;n;1892.4726999994164
3k0!xt7;3;False;1;P = T2?;STb_1;0;Same;None;60;60;60;j;n;0;f;n;1665.9206000003906
3k0!xt7;4;False;1;P = T2?;DT2_low_3;2;Different;low;70;112;132;j;n;0;j;b;1251.8823999998858
3k0!xt7;5;False;1;P = T2?;ST2_high_5;2;Same;high;96;132;132;j;n;1;j;b;1781.2048999994659
3k0!xt7;6;False;1;P = T1?;ST2_high_3;2;Same;high;70;96;96;j;n;0;j;v;3053.4480000005715
3k0!xt7;7;False;1;P = T2?;ST2_high_6;2;Same;high;132;96;96;j;n;1;j;n;1455.7504999993398
3k0!xt7;8;False;1;P = T2?;STb_4;0;Same;None;96;96;96;j;n;1;j;v;3121.077400000104
3k0!xt7;9;False;1;P = T1?;ST1_low_3;1;Same;low;70;112;70;j;n;0;f;v;1126.7637999999351
3k0!xt7;10;False;1;P = T2?;STb_7;0;Same;None;154;154;154;j;n;0;f;v;1458.0108999998629
3k0!xt7;11;False;1;P = T1?;ST2_low_6;2;Same;low;154;96;96;j;n;1;f;v;2542.4229999998715
3k0!xt7;12;False;1;P = T2?;STb_6;0;Same;None;132;132;132;j;n;0;f;v;3459.7245000004477
3k0!xt7;13;False;1;P = T1?;ST2_high_5;2;Same;high;96;132;132;j;n;1;f;v;956.3264000007621
3k0!xt7;14;False;1;P = T2?;ST2_low_4;2;Same;low;112;70;70;j;n;0;f;v;2547.689299999547
3k0!xt7;15;False;1;P = T1?;ST1_low_2;1;Same;low;132;82;132;j;n;0;f;v;1520.9316999998919
3k0!xt7;16;False;1;P = T2?;ST2_high_3;2;Same;high;70;96;96;j;n;0;f;v;5166.256600000452
3k0!xt7;17;False;1;P = T1?;ST2_low_5;2;Same;low;96;154;154;j;n;1;f;v;1450.4045000003316
3k0!xt7;18;False;1;P = T1?;ST2_high_1;2;Same;high;82;112;112;j;n;1;f;v;1755.7917000003727
3k0!xt7;19;False;1;P = T2?;STb_5;0;Same;None;112;112;112;j;n;0;f;v;1286.376900000505
3k0!xt7;20;False;1;P = T1?;ST2_low_4;2;Same;low;112;70;70;j;n;1;f;v;3304.00759999975
3k0!xt7;21;False;1;P = T1?;ST2_high_5;2;Same;high;96;132;132;j;n;1;f;v;6079.6534000000975
3k0!xt7;22;False;1;P = T1?;ST1_low_6;1;Same;low;154;96;154;j;n;0;f;v;969.4245000000592
3k0!xt7;23;False;1;P = T1?;ST2_low_3;2;Same;low;70;112;112;j;n;1;f;v;2489.9968999998237
3k0!xt7;24;False;1;P = T1?;ST2_low_2;2;Same;low;132;82;82;j;n;1;f;v;883.1973000005746
3k0!xt7;25;False;1;P = T1?;ST1_low_5;1;Same;low;96;154;96;j;n;0;f;v;1289.3229000001156
3k0!xt7;26;False;1;P = T1?;ST2_low_6;2;Same;low;154;96;96;j;n;1;f;n;1546.469299999444
3k0!xt7;27;False;1;P = T2?;ST2_low_4;2;Same;low;112;70;70;j;n;1;j;n;1735.145300000113
3k0!xt7;28;False;1;P = T1?;ST1_high_5;1;Same;high;96;132;96;j;n;1;j;b;1757.9037999994398
3k0!xt7;29;False;1;P = T2?;DT2_high_1;2;Different;high;82;112;132;j;n;0;j;n;1407.0021999996243
3k0!xt7;30;False;1;P = T2?;ST2_low_1;2;Same;low;82;132;132;j;n;1;j;b;1778.898699999445
3k0!xt7;31;False;1;P = T1?;ST2_high_2;2;Same;high;112;82;82;j;n;0;j;n;1315.898599999855
3k0!xt7;32;False;1;P = T1?;ST2_low_1;2;Same;low;82;132;132;j;n;1;f;n;3821.2832999997772
3k0!xt7;33;False;1;P = T2?;ST2_high_4;2;Same;high;96;70;70;j;n;1;j;b;1103.6481000001004
3k0!xt7;34;False;1;P = T1?;ST2_high_2;2;Same;high;112;82;82;j;n;1;f;n;1077.5758999998288
3k0!xt7;35;False;1;P = T1?;ST2_low_5;2;Same;low;96;154;154;j;n;1;f;v;1135.4873000000225
3k0!xt7;36;False;1;P = T2?;DT2_low_1;2;Different;low;82;132;154;j;n;1;f;n;2372.724100000596
3k0!xt7;37;False;1;P = T2?;ST1_low_3;1;Same;low;70;112;70;j;n;1;f;n;1565.7527000003029
3k0!xt7;38;False;1;P = T2?;ST1_high_1;1;Same;high;82;112;82;j;n;0;j;b;6331.111800000144
3k0!xt7;39;False;1;P = T2?;ST1_high_6;1;Same;high;132;96;132;j;n;0;j;n;1338.790599999811
3k0!xt7;40;False;1;P = T1?;ST1_high_3;1;Same;high;70;96;70;j;n;0;f;n;1567.7304000000731
3k0!xt7;41;False;1;P = T1?;ST1_high_2;1;Same;high;112;82;112;j;n;1;j;n;1152.0726000007926
3k0!xt7;42;False;1;P = T1?;ST2_low_3;2;Same;low;70;112;112;j;n;1;f;v;3030.314399999952
3k0!xt7;43;False;1;P = T2?;ST1_high_1;1;Same;high;82;112;82;j;n;1;f;n;2178.45429999943
3k0!xt7;44;False;1;P = T2?;DT2_high_6;2;Different;high;132;96;82;j;n;0;j;n;1488.6165999996592
3k0!xt7;45;False;1;P = T2?;ST2_high_1;2;Same;high;82;112;112;j;n;1;j;n;1073.1143000002703
3k0!xt7;46;False;1;P = T2?;ST2_high_1;2;Same;high;82;112;112;j;n;0;f;n;5987.785900000745
3k0!xt7;47;False;1;P = T1?;STb_2;0;Same;None;70;70;70;j;n;0;f;v;1269.0509999993083
3k0!xt7;48;False;1;P = T1?;ST1_high_1;1;Same;high;82;112;82;j;n;0;f;v;1113.3053000003201
3k0!xt7;49;False;1;P = T1?;ST1_high_1;1;Same;high;82;112;82;j;n;0;f;v;1417.7451999994446
3k0!xt7;50;False;1;P = T2?;ST1_high_5;1;Same;high;96;132;96;j;n;1;f;v;710.3041999998823
3k0!xt7;51;False;1;P = T2?;ST1_high_4;1;Same;high;96;70;96;j;n;1;f;v;2163.6907000001884
3k0!xt7;52;False;1;P = T2?;DT1_high_4;1;Different;high;96;70;112;j;n;1;f;v;2652.566499999921
3k0!xt7;53;False;1;P = T2?;ST1_low_3;1;Same;low;70;112;70;j;n;1;f;v;1749.1172000000006
3k0!xt7;54;False;1;P = T1?;ST1_low_2;1;Same;low;132;82;132;j;n;0;f;v;2048.4913000000233
3k0!xt7;55;False;1;P = T1?;ST1_high_1;1;Same;high;82;112;82;j;n;0;f;v;1413.2558000001154
3k0!xt7;56;False;1;P = T1?;ST2_high_5;2;Same;high;96;132;132;j;n;1;f;v;3047.559000000547
3k0!xt7;57;False;1;P = T2?;ST1_high_5;1;Same;high;96;132;96;j;n;1;f;v;834.831000000122
3k0!xt7;58;False;1;P = T2?;ST1_high_2;1;Same;high;112;82;112;j;n;1;f;v;1321.6302999999243
3k0!xt7;59;False;1;P = T1?;ST1_low_3;1;Same;low;70;112;70;j;n;0;f;v;2112.202599999364
3k0!xt7;60;False;1;P = T1?;DT1_high_4;1;Different;high;96;70;112;j;n;1;f;v;684.2685999999958
3k0!xt7;61;False;1;P = T2?;ST2_high_2;2;Same;high;112;82;82;j;n;0;f;v;913.120500000332
3k0!xt7;62;False;1;P = T1?;ST1_high_5;1;Same;high;96;132;96;j;n;0;f;n;2873.4643000007054
3k0!xt7;63;False;1;P = T2?;ST1_low_1;1;Same;low;82;132;82;j;n;1;f;n;1401.9277000006696
3k0!xt7;64;False;1;P = T1?;ST2_low_1;2;Same;low;82;132;132;j;n;1;f;n;1267.3008000001573
3k0!xt7;65;False;1;P = T2?;STb_8;0;Same;None;180;180;180;j;n;1;j;n;1852.6956999994582
3k0!xt7;66;False;1;P = T2?;STb_2;0;Same;None;70;70;70;j;n;1;j;n;1156.735700000354
3k0!xt7;67;False;1;P = T1?;ST2_high_6;2;Same;high;132;96;96;j;n;1;f;n;1671.646700000565
3k0!xt7;68;False;1;P = T1?;ST2_high_6;2;Same;high;132;96;96;j;n;0;j;n;1903.8486999997986
3k0!xt7;69;False;1;P = T1?;ST1_low_5;1;Same;low;96;154;96;j;n;1;j;n;2204.3328999998266
3k0!xt7;70;False;1;P = T2?;ST2_high_4;2;Same;high;96;70;70;j;n;1;j;n;1310.5247000003146
3k0!xt7;71;False;1;P = T2?;ST2_high_4;2;Same;high;96;70;70;j;n;1;j;n;880.1081999999951
3k0!xt7;72;False;1;P = T1?;DT2_low_3;2;Different;low;70;112;132;j;n;0;j;v;3532.4353999994855
3k0!xt7;73;False;1;P = T2?;ST1_low_2;1;Same;low;132;82;132;j;n;1;f;n;2812.5276000000667
3k0!xt7;74;False;1;P = T1?;ST2_low_2;2;Same;low;132;82;82;j;n;1;f;n;1766.1377000003995
3k0!xt7;75;False;1;P = T1?;STb_8;0;Same;None;180;180;180;j;n;1;j;n;1116.9931000003999
3k0!xt7;76;False;1;P = T2?;ST2_low_2;2;Same;low;132;82;82;j;n;1;j;n;884.0392000001884
3k0!xt7;77;False;1;P = T1?;DT1_low_1;1;Different;low;82;132;70;j;n;0;j;n;1668.7426999997115
3k0!xt7;78;False;1;P = T2?;ST2_high_3;2;Same;high;70;96;96;j;n;1;j;n;757.8791999994792
3k0!xt7;79;False;1;P = T1?;ST2_low_4;2;Same;low;112;70;70;j;n;1;f;n;1067.3738999994384
3k0!xt7;80;False;1;P = T1?;ST2_low_5;2;Same;low;96;154;154;j;n;1;f;v;5607.1577000002435
3k0!xt7;81;False;1;P = T2?;ST1_high_4;1;Same;high;96;70;96;j;n;1;f;v;2032.3028000002523
3k0!xt7;82;False;1;P = T1?;ST1_low_6;1;Same;low;154;96;154;j;n;0;f;v;520.6959000006464
3k0!xt7;83;False;1;P = T1?;ST1_low_6;1;Same;low;154;96;154;j;n;0;f;v;4261.908100000255
3k0!xt7;84;False;1;P = T2?;DT1_high_2;1;Different;high;112;82;132;j;n;1;f;v;1255.3932999999233
3k0!xt7;85;False;1;P = T2?;ST2_high_6;2;Same;high;132;96;96;j;n;0;f;v;8980.236499999592
3k0!xt7;86;False;1;P = T2?;ST2_high_6;2;Same;high;132;96;96;j;n;0;f;v;658.9170999995986
3k0!xt7;87;False;1;P = T2?;ST2_low_1;2;Same;low;82;132;132;j;n;0;f;v;1040.2500000000146
3k0!xt7;88;False;1;P = T1?;ST2_high_3;2;Same;high;70;96;96;j;n;1;f;n;1915.8756999995603
3k0!xt7;89;False;1;P = T2?;ST1_high_5;1;Same;high;96;132;96;j;n;0;j;n;1401.8439000001308
3k0!xt7;90;False;1;P = T1?;ST1_high_6;1;Same;high;132;96;132;j;n;1;j;b;2081.8011999999726
3k0!xt7;91;False;1;P = T2?;ST1_high_4;1;Same;high;96;70;96;j;n;0;j;n;1015.6031999995321
3k0!xt7;92;False;1;P = T2?;ST1_high_1;1;Same;high;82;112;82;j;n;1;f;b;3200.804199999766
3k0!xt7;93;False;1;P = T1?;ST1_high_4;1;Same;high;96;70;96;j;n;0;f;b;2442.3853999996936
3k0!xt7;94;False;1;P = T1?;ST1_low_5;1;Same;low;96;154;96;j;n;1;j;n;1512.6131999995778
3k0!xt7;95;False;1;P = T2?;ST2_high_3;2;Same;high;70;96;96;j;n;1;j;n;2171.9096000006175
3k0!xt7;96;False;1;P = T1?;ST1_low_4;1;Same;low;112;70;112;j;n;0;f;n;2985.1726999995662
3k0!xt7;97;False;1;P = T1?;ST2_low_4;2;Same;low;112;70;70;j;n;1;f;n;1472.4267000001419
3k0!xt7;98;False;1;P = T1?;ST1_low_1;1;Same;low;82;132;82;j;n;0;f;v;1520.7847000001493
3k0!xt7;99;False;1;P = T1?;STb_4;0;Same;None;96;96;96;j;n;0;f;v;7921.243599999798
3k0!xt7;100;False;1;P = T2?;ST2_high_1;2;Same;high;82;112;112;j;n;0;f;v;4154.3181999995795
3k0!xt7;101;False;1;P = T1?;STb_5;0;Same;None;112;112;112;j;n;0;f;v;1050.7134999998016
3k0!xt7;102;False;1;P = T2?;ST2_low_3;2;Same;low;70;112;112;j;n;0;f;v;1193.7120000002324
3k0!xt7;103;False;1;P = T1?;DT2_high_4;2;Different;high;96;70;60;j;n;1;f;v;1537.6015000001644
3k0!xt7;104;False;1;P = T2?;ST1_high_3;1;Same;high;70;96;70;j;n;1;f;v;1307.8540999995312
3k0!xt7;105;False;1;P = T2?;ST2_low_5;2;Same;low;96;154;154;j;n;1;j;n;1505.0952999999936
3k0!xt7;106;False;1;P = T1?;STb_7;0;Same;None;154;154;154;j;n;1;j;n;1672.3355000003721
3k0!xt7;107;False;1;P = T2?;ST1_low_6;1;Same;low;154;96;154;j;n;0;j;n;915.4056999996101
3k0!xt7;108;False;1;P = T1?;DT2_high_2;2;Different;high;112;82;70;j;n;1;f;n;1159.0030000006664
3k0!xt7;109;False;1;P = T2?;ST1_low_4;1;Same;low;112;70;112;j;n;1;f;v;2878.240099999857
3k0!xt7;110;False;1;P = T1?;ST1_high_4;1;Same;high;96;70;96;j;n;0;f;v;1512.212499999805
3k0!xt7;111;False;1;P = T1?;ST2_high_1;2;Same;high;82;112;112;j;n;1;f;v;1379.7475000001214
3k0!xt7;112;False;1;P = T1?;ST2_high_2;2;Same;high;112;82;82;j;n;1;f;v;738.0612999995719
3k0!xt7;113;False;1;P = T2?;ST1_low_1;1;Same;low;82;132;82;j;n;1;f;v;651.6547000001083
3k0!xt7;114;False;1;P = T2?;ST2_low_3;2;Same;low;70;112;112;j;n;0;f;v;783.7572999997064
3k0!xt7;115;False;1;P = T1?;ST2_high_6;2;Same;high;132;96;96;j;n;1;f;v;576.4282999998613
3k0!xt7;116;False;1;P = T2?;ST2_high_5;2;Same;high;96;132;132;j;n;1;j;n;1190.4525000009016
3k0!xt7;117;False;1;P = T2?;ST2_low_3;2;Same;low;70;112;112;j;n;1;j;n;918.7410000004093
3k0!xt7;118;False;1;P = T1?;ST1_high_2;1;Same;high;112;82;112;j;n;1;j;n;628.5404999998718
3k0!xt7;119;False;1;P = T1?;ST2_high_1;2;Same;high;82;112;112;j;n;0;j;n;2579.2013000000225
3k0!xt7;120;False;1;P = T2?;ST1_low_2;1;Same;low;132;82;132;j;n;0;j;n;2336.694599999646
3k0!xt7;121;False;1;P = T1?;ST1_low_3;1;Same;low;70;112;70;j;n;1;j;n;1798.645399999259
3k0!xt7;122;False;1;P = T2?;ST1_low_4;1;Same;low;112;70;112;j;n;0;j;n;891.0109999997076
3k0!xt7;123;False;1;P = T2?;ST2_low_2;2;Same;low;132;82;82;j;n;1;j;n;1695.9570999997595
3k0!xt7;124;False;1;P = T2?;ST1_low_5;1;Same;low;96;154;96;j;n;1;f;n;1967.2238000002835
3k0!xt7;125;False;1;P = T2?;ST1_low_4;1;Same;low;112;70;112;j;n;0;j;b;873.041199999534
3k0!xt7;126;False;1;P = T1?;ST1_low_1;1;Same;low;82;132;82;j;n;1;j;n;1100.9269000005588
3k0!xt7;127;False;1;P = T1?;ST2_high_4;2;Same;high;96;70;70;j;n;0;j;n;626.0959999999614
3k0!xt7;128;False;1;P = T1?;ST1_high_6;1;Same;high;132;96;132;j;n;1;j;b;1316.2949000006847
3k0!xt7;129;False;1;P = T2?;DT2_high_2;2;Different;high;112;82;70;j;n;0;j;n;1554.6031000003495
3k0!xt7;130;False;1;P = T2?;ST1_high_6;1;Same;high;132;96;132;j;n;1;f;v;3688.3589000008214
3k0!xt7;131;False;1;P = T2?;STb_3;0;Same;None;82;82;82;j;n;1;j;n;767.9219999999987
3k0!xt7;132;False;1;P = T1?;DT1_high_5;1;Different;high;96;132;82;j;n;0;j;n;724.4601999991573
3k0!xt7;133;False;1;P = T1?;STb_1;0;Same;None;60;60;60;j;n;1;j;n;2570.6733999995777
3k0!xt7;134;False;1;P = T2?;ST2_high_5;2;Same;high;96;132;132;j;n;1;j;n;872.9830000002039
3k0!xt7;135;False;1;P = T1?;ST2_low_3;2;Same;low;70;112;112;j;n;1;f;n;995.8967000002303
3k0!xt7;136;False;1;P = T2?;ST1_low_5;1;Same;low;96;154;96;j;n;1;f;v;1501.354199999696
3k0!xt7;137;False;1;P = T1?;ST1_low_1;1;Same;low;82;132;82;j;n;0;f;v;862.8807999994024
3k0!xt7;138;False;1;P = T1?;ST1_high_4;1;Same;high;96;70;96;j;n;0;f;v;955.8091999997487
3k0!xt7;139;False;1;P = T1?;ST1_high_3;1;Same;high;70;96;70;j;n;0;f;v;1167.6486999995177
3k0!xt7;140;False;1;P = T2?;ST1_low_5;1;Same;low;96;154;96;j;n;1;f;v;723.0189000001701
3k0!xt7;141;False;1;P = T2?;ST2_low_6;2;Same;low;154;96;96;j;n;0;f;v;739.3194000005678
3k0!xt7;142;False;1;P = T2?;ST1_low_3;1;Same;low;70;112;70;j;n;1;f;v;1734.8406000000978
3k0!xt7;143;False;1;P = T1?;ST2_high_4;2;Same;high;96;70;70;j;n;1;f;v;1825.4464999999982
3k0!xt7;144;False;1;P = T1?;ST2_low_6;2;Same;low;154;96;96;j;n;1;f;v;1934.8737000000256
3k0!xt7;145;False;1;P = T1?;ST2_high_4;2;Same;high;96;70;70;j;n;0;j;n;1653.5878000004232
3k0!xt7;146;False;1;P = T1?;DT2_low_1;2;Different;low;82;132;154;j;n;1;f;n;2534.766299999319
3k0!xt7;147;False;1;P = T2?;ST1_low_6;1;Same;low;154;96;154;j;n;1;f;n;1349.3779999998878
3k0!xt7;148;False;1;P = T2?;ST1_low_2;1;Same;low;132;82;132;j;n;1;f;n;5097.1517000007225
3k0!xt7;149;False;1;P = T2?;ST1_high_3;1;Same;high;70;96;70;j;n;1;f;n;2963.386299999911
3k0!xt7;150;False;1;P = T1?;ST2_low_2;2;Same;low;132;82;82;j;n;1;f;n;1629.8472999997102
3k0!xt7;151;False;1;P = T1?;ST1_high_3;1;Same;high;70;96;70;j;n;1;j;n;1114.4323000007716
3k0!xt7;152;False;1;P = T2?;ST1_high_2;1;Same;high;112;82;112;j;n;0;j;n;1586.7957000000388
3k0!xt7;153;False;1;P = T2?;ST2_low_6;2;Same;low;154;96;96;j;n;1;j;n;660.9055999997508
3k0!xt7;154;False;1;P = T2?;ST1_low_1;1;Same;low;82;132;82;j;n;1;f;n;1116.658400000233
3k0!xt7;155;False;1;P = T1?;ST1_low_4;1;Same;low;112;70;112;j;n;0;f;v;827.3119999994378
3k0!xt7;156;False;1;P = T2?;ST2_high_2;2;Same;high;112;82;82;j;n;0;f;v;691.7843999999604
3k0!xt7;157;False;1;P = T1?;STb_3;0;Same;None;82;82;82;j;n;0;f;v;794.7318999995332
3k0!xt7;158;False;1;P = T2?;ST2_high_2;2;Same;high;112;82;82;j;n;0;f;v;637.6844999995228
3k0!xt7;159;False;1;P = T2?;ST1_low_6;1;Same;low;154;96;154;j;n;1;f;v;630.0614000001588
3k0!xt7;160;False;1;P = T1?;ST1_low_4;1;Same;low;112;70;112;j;n;1;j;b;1273.0757999997877
3k0!xt7;161;False;1;P = T1?;DT1_low_4;1;Different;low;112;70;132;j;n;1;f;n;943.0536999998367
3k0!xt7;162;False;1;P = T1?;ST2_low_1;2;Same;low;82;132;132;j;n;1;f;b;2717.0170999997936
3k0!xt7;163;False;1;P = T2?;ST2_low_5;2;Same;low;96;154;154;j;n;0;f;n;515.2090999999928
3k0!xt7;164;False;1;P = T1?;ST1_high_2;1;Same;high;112;82;112;j;n;1;j;b;4074.578400000064
3k0!xt7;165;False;1;P = T2?;ST1_high_3;1;Same;high;70;96;70;j;n;0;j;n;482.5693999991927
3k0!xt7;166;False;1;P = T2?;ST1_high_2;1;Same;high;112;82;112;j;n;1;f;n;1587.8671000000395
3k0!xt7;167;False;1;P = T1?;STb_6;0;Same;None;132;132;132;j;n;1;j;n;860.3800999999294
3k0!xt7;168;False;1;P = T2?;ST2_low_1;2;Same;low;82;132;132;j;n;1;j;b;866.0448999999062
3k0!xt7;169;False;1;P = T2?;ST2_low_5;2;Same;low;96;154;154;j;n;0;f;b;4002.9199999999037
3k0!xt7;170;False;1;P = T1?;ST1_low_2;1;Same;low;132;82;132;j;n;1;j;n;900.8056000002398
3k0!xt7;171;False;1;P = T2?;ST1_high_6;1;Same;high;132;96;132;j;n;1;f;v;1175.9594000004654
3k0!xt7;172;False;1;P = T2?;DT1_low_5;1;Different;low;96;154;82;j;n;1;f;v;507.7314000000115
3k0!xt7;173;False;1;P = T2?;ST2_low_6;2;Same;low;154;96;96;j;n;0;f;v;1002.6362000007794
3k0!xt7;174;False;1;P = T1?;ST1_high_6;1;Same;high;132;96;132;j;n;0;f;v;611.0738999996101
3k0!xt7;175;False;1;P = T1?;ST2_high_3;2;Same;high;70;96;96;j;n;1;f;v;662.6396000001478
3k0!xt7;176;False;1;P = T2?;ST2_low_2;2;Same;low;132;82;82;j;n;0;f;v;1544.9028000002727
3k0!xt7;1;True;2;P != T1?;STb_1;0;Same;None;60;60;60;j;n;1;f;v;7713.862599999629
3k0!xt7;2;True;2;P != T1?;ST2_high_2;2;Same;high;112;82;82;j;n;0;f;v;643.4026999995694
3k0!xt7;3;True;2;P != T2?;ST2_low_2;2;Same;low;132;82;82;j;n;1;f;v;601.9505000003846
3k0!xt7;4;True;2;P != T1?;ST1_high_3;1;Same;high;70;96;70;j;n;1;f;v;761.6182000001572
3k0!xt7;5;True;2;P != T2?;DT1_low_1;1;Different;low;82;132;70;j;n;0;f;v;632.5045000003229
3k0!xt7;6;True;2;P != T1?;DT2_low_2;2;Different;low;132;82;70;j;n;0;f;v;2048.453299999892
3k0!xt7;7;True;2;P != T1?;ST1_low_6;1;Same;low;154;96;154;j;n;1;f;v;712.7215000000433
3k0!xt7;8;True;2;P != T2?;STb_8;0;Same;None;180;180;180;j;n;1;f;v;1046.6876000000411
3k0!xt7;9;True;2;P != T2?;ST1_high_4;1;Same;high;96;70;96;j;n;0;f;v;777.2391999997126
3k0!xt7;10;True;2;P != T2?;ST1_high_2;1;Same;high;112;82;112;j;n;0;f;v;1187.754099999438
3k0!xt7;11;True;2;P != T1?;STb_8;0;Same;None;180;180;180;j;n;1;f;v;3246.312599999328
3k0!xt7;12;True;2;P != T2?;STb_2;0;Same;None;70;70;70;j;n;1;f;n;3243.7559999998484
3k0!xt7;13;True;2;P != T2?;ST2_high_1;2;Same;high;82;112;112;j;n;1;f;n;1413.7061999999787
3k0!xt7;14;True;2;P != T1?;DT2_low_5;2;Different;low;96;154;180;j;n;1;j;n;2298.74000000018
3k0!xt7;15;True;2;P != T2?;DT1_low_3;1;Different;low;70;112;60;j;n;0;f;n;828.0404000006456
3k0!xt7;16;True;2;P != T1?;ST2_high_3;2;Same;high;70;96;96;j;n;0;f;n;3266.6705000001457
3k0!xt7;1;False;2;P != T1?;ST1_high_4;1;Same;high;96;70;96;j;n;1;f;n;2481.585799999266
3k0!xt7;2;False;2;P != T2?;ST1_low_6;1;Same;low;154;96;154;j;n;1;j;n;4989.099899999928
3k0!xt7;3;False;2;P != T1?;ST2_low_3;2;Same;low;70;112;112;j;n;0;f;n;3950.8853999996063
3k0!xt7;4;False;2;P != T2?;ST1_low_2;1;Same;low;132;82;132;j;n;1;j;n;3241.2747000007585
3k0!xt7;5;False;2;P != T2?;ST1_low_3;1;Same;low;70;112;70;j;n;1;j;b;1368.9264000004187
3k0!xt7;6;False;2;P != T1?;ST2_high_3;2;Same;high;70;96;96;j;n;0;f;n;771.5981999999713
3k0!xt7;7;False;2;P != T2?;ST1_high_2;1;Same;high;112;82;112;j;n;0;f;n;5882.7173999998195
3k0!xt7;8;False;2;P != T1?;ST2_high_6;2;Same;high;132;96;96;j;n;0;f;n;486.4290000004985
3k0!xt7;9;False;2;P != T1?;STb_1;0;Same;None;60;60;60;j;n;1;f;n;395.06189999974595
3k0!xt7;10;False;2;P != T1?;ST1_high_4;1;Same;high;96;70;96;j;n;1;f;n;489.36760000015056
3k0!xt7;11;False;2;P != T2?;ST1_high_6;1;Same;high;132;96;132;j;n;0;f;n;3582.405600000129
3k0!xt7;12;False;2;P != T1?;ST1_high_5;1;Same;high;96;132;96;j;n;1;f;n;2492.627000000539
3k0!xt7;13;False;2;P != T2?;ST2_low_1;2;Same;low;82;132;132;j;n;1;f;b;1934.2332000005626
3k0!xt7;14;False;2;P != T1?;ST1_low_4;1;Same;low;112;70;112;j;n;1;f;v;3067.958499999804
3k0!xt7;15;False;2;P != T1?;ST1_low_2;1;Same;low;132;82;132;j;n;0;j;v;2045.8522999997513
3k0!xt7;16;False;2;P != T1?;ST2_low_1;2;Same;low;82;132;132;j;n;1;j;v;1088.8961000000563
3k0!xt7;17;False;2;P != T2?;ST2_low_5;2;Same;low;96;154;154;j;n;0;j;v;697.7698000000601
3k0!xt7;18;False;2;P != T2?;ST2_high_2;2;Same;high;112;82;82;j;n;0;j;v;1113.6771999999837
3k0!xt7;19;False;2;P != T2?;ST1_high_5;1;Same;high;96;132;96;j;n;1;j;v;575.6265999998504
3k0!xt7;20;False;2;P != T1?;ST1_high_3;1;Same;high;70;96;70;j;n;0;j;v;2237.173000000439
3k0!xt7;21;False;2;P != T2?;ST2_low_2;2;Same;low;132;82;82;j;n;0;j;v;4132.998300000509
3k0!xt7;22;False;2;P != T1?;ST1_high_3;1;Same;high;70;96;70;j;n;0;j;v;594.1554000000906
3k0!xt7;23;False;2;P != T2?;ST1_high_6;1;Same;high;132;96;132;j;n;1;j;v;663.3838000007017
3k0!xt7;24;False;2;P != T1?;ST2_high_1;2;Same;high;82;112;112;j;n;1;j;v;385.87550000011106
3k0!xt7;25;False;2;P != T1?;ST1_low_4;1;Same;low;112;70;112;j;n;0;j;v;557.170799999767
3k0!xt7;26;False;2;P != T1?;ST2_low_1;2;Same;low;82;132;132;j;n;1;j;v;531.7858999997043
3k0!xt7;27;False;2;P != T2?;ST1_low_3;1;Same;low;70;112;70;j;n;1;j;v;3302.1515999998883
3k0!xt7;28;False;2;P != T2?;DT1_high_1;1;Different;high;82;112;70;j;n;1;j;v;2899.793400000817
3k0!xt7;29;False;2;P != T2?;ST2_high_1;2;Same;high;82;112;112;j;n;0;j;v;742.0031999999992
3k0!xt7;30;False;2;P != T2?;STb_7;0;Same;None;154;154;154;j;n;0;j;v;4767.652800000178
3k0!xt7;31;False;2;P != T1?;ST2_high_6;2;Same;high;132;96;96;j;n;1;j;v;4272.683799999868
3k0!xt7;32;False;2;P != T1?;ST1_low_1;1;Same;low;82;132;82;j;n;0;j;n;2039.5215000007738
3k0!xt7;33;False;2;P != T1?;ST2_high_3;2;Same;high;70;96;96;j;n;1;j;n;1495.32199999976
3k0!xt7;34;False;2;P != T2?;DT1_low_4;1;Different;low;112;70;132;j;n;0;f;b;3398.6745000001974
3k0!xt7;35;False;2;P != T2?;ST1_high_5;1;Same;high;96;132;96;j;n;0;f;b;1453.4306999994442
3k0!xt7;36;False;2;P != T2?;ST2_high_5;2;Same;high;96;132;132;j;n;1;f;n;1122.983700000077
3k0!xt7;37;False;2;P != T1?;ST2_high_4;2;Same;high;96;70;70;j;n;1;j;v;3715.0838999996267
3k0!xt7;38;False;2;P != T1?;ST1_high_1;1;Same;high;82;112;82;j;n;0;j;v;863.3630999993329
3k0!xt7;39;False;2;P != T2?;ST1_high_2;1;Same;high;112;82;112;j;n;1;j;v;266.2752999995064
3k0!xt7;40;False;2;P != T1?;ST2_low_2;2;Same;low;132;82;82;j;n;1;j;v;371.2471999997433
3k0!xt7;41;False;2;P != T1?;ST2_high_5;2;Same;high;96;132;132;j;n;1;j;v;687.4694999996791
3k0!xt7;42;False;2;P != T1?;ST2_low_2;2;Same;low;132;82;82;j;n;1;j;n;2577.2688999995808
3k0!xt7;43;False;2;P != T1?;ST1_high_1;1;Same;high;82;112;82;j;n;1;f;n;1946.5209999998478
3k0!xt7;44;False;2;P != T2?;ST2_high_1;2;Same;high;82;112;112;j;n;1;f;n;1420.9410000003118
3k0!xt7;45;False;2;P != T2?;ST2_high_5;2;Same;high;96;132;132;j;n;1;f;n;848.7089000000196
3k0!xt7;46;False;2;P != T1?;STb_4;0;Same;None;96;96;96;j;n;1;f;n;1775.9703000001537
3k0!xt7;47;False;2;P != T2?;ST2_low_6;2;Same;low;154;96;96;j;n;0;j;n;1669.409000000087
3k0!xt7;48;False;2;P != T1?;ST2_low_6;2;Same;low;154;96;96;j;n;0;f;b;2649.921799999902
3k0!xt7;49;False;2;P != T2?;DT1_high_5;1;Different;high;96;132;82;j;n;1;j;n;5064.834599999813
3k0!xt7;50;False;2;P != T1?;STb_6;0;Same;None;132;132;132;j;n;1;f;b;603.3715000003212
3k0!xt7;51;False;2;P != T2?;ST1_high_1;1;Same;high;82;112;82;j;n;1;j;b;1438.916799999788
3k0!xt7;52;False;2;P != T2?;ST2_low_4;2;Same;low;112;70;70;j;n;1;f;n;1793.5840000000098
3k0!xt7;53;False;2;P != T1?;ST1_high_2;1;Same;high;112;82;112;j;n;1;f;b;2030.7585999998992
3k0!xt7;54;False;2;P != T1?;ST2_high_1;2;Same;high;82;112;112;j;n;0;f;b;6501.797300000362
3k0!xt7;55;False;2;P != T2?;ST2_low_6;2;Same;low;154;96;96;j;n;1;f;n;1581.551799999943
3k0!xt7;56;False;2;P != T2?;ST1_low_2;1;Same;low;132;82;132;j;n;1;j;n;3765.1161000003412
3k0!xt7;57;False;2;P != T2?;ST2_high_4;2;Same;high;96;70;70;j;n;1;f;v;6844.909899999948
3k0!xt7;58;False;2;P != T1?;ST1_high_2;1;Same;high;112;82;112;j;n;0;j;v;357.369700000163
3k0!xt7;59;False;2;P != T2?;ST2_high_4;2;Same;high;96;70;70;j;n;0;j;v;1305.8774999999514
3k0!xt7;60;False;2;P != T2?;ST1_low_1;1;Same;low;82;132;82;j;n;1;j;v;941.8938999997408
3k0!xt7;61;False;2;P != T2?;ST1_high_3;1;Same;high;70;96;70;j;n;1;j;b;2686.6055000000415
3k0!xt7;62;False;2;P != T2?;ST1_low_6;1;Same;low;154;96;154;j;n;1;j;n;2541.4342999993096
3k0!xt7;63;False;2;P != T2?;ST1_high_4;1;Same;high;96;70;96;j;n;1;j;b;6008.277999999336
3k0!xt7;64;False;2;P != T1?;ST1_low_5;1;Same;low;96;154;96;j;n;0;j;n;672.4591000001965
3k0!xt7;65;False;2;P != T1?;ST2_high_2;2;Same;high;112;82;82;j;n;1;j;n;1638.722300000154
3k0!xt7;66;False;2;P != T1?;ST2_high_1;2;Same;high;82;112;112;j;n;1;j;n;1249.7171999993952
3k0!xt7;67;False;2;P != T2?;ST1_high_2;1;Same;high;112;82;112;j;n;0;f;b;2206.182799999624
3k0!xt7;68;False;2;P != T2?;ST2_high_5;2;Same;high;96;132;132;j;n;1;f;n;2163.4681000005003
3k0!xt7;69;False;2;P != T1?;DT1_high_6;1;Different;high;132;96;154;j;n;0;f;b;9798.408600000585
3k0!xt7;70;False;2;P != T1?;DT2_low_2;2;Different;low;132;82;70;j;n;1;j;n;5175.331700000243
3k0!xt7;71;False;2;P != T2?;ST2_low_4;2;Same;low;112;70;70;j;n;0;j;v;660.2306000004319
3k0!xt7;72;False;2;P != T2?;DT2_low_1;2;Different;low;82;132;154;j;n;1;j;v;788.6760999999751
3k0!xt7;73;False;2;P != T1?;ST2_high_4;2;Same;high;96;70;70;j;n;1;j;v;575.2661999995325
3k0!xt7;74;False;2;P != T2?;ST1_low_4;1;Same;low;112;70;112;j;n;1;j;v;804.661500000293
3k0!xt7;75;False;2;P != T1?;ST2_low_6;2;Same;low;154;96;96;j;n;1;j;v;740.5894999992597
3k0!xt7;76;False;2;P != T2?;STb_8;0;Same;None;180;180;180;j;n;0;j;v;844.6383000000424
3k0!xt7;77;False;2;P != T1?;ST2_high_3;2;Same;high;70;96;96;j;n;1;j;v;1687.4471000000995
3k0!xt7;78;False;2;P != T2?;DT1_high_2;1;Different;high;112;82;132;j;n;1;j;v;2944.484100000409
3k0!xt7;79;False;2;P != T1?;DT1_high_4;1;Different;high;96;70;112;j;n;1;j;v;577.0581000006132
3k0!xt7;80;False;2;P != T2?;STb_2;0;Same;None;70;70;70;j;n;0;j;v;1170.8441000000676
3k0!xt7;81;False;2;P != T1?;ST2_low_3;2;Same;low;70;112;112;j;n;1;j;v;437.9616000005626
3k0!xt7;82;False;2;P != T1?;DT1_low_3;1;Different;low;70;112;60;j;n;1;j;v;1197.1820999997362
3k0!xt7;83;False;2;P != T1?;ST2_low_5;2;Same;low;96;154;154;j;n;1;j;v;291.5936999997939
3k0!xt7;84;False;2;P != T1?;ST1_high_5;1;Same;high;96;132;96;j;n;0;j;v;567.1307000002344
3k0!xt7;85;False;2;P != T2?;ST2_high_2;2;Same;high;112;82;82;j;n;0;j;v;858.1281999995554
3k0!xt7;86;False;2;P != T1?;ST1_low_3;1;Same;low;70;112;70;j;n;0;j;v;1078.8772000005338
3k0!xt7;87;False;2;P != T1?;ST1_high_4;1;Same;high;96;70;96;j;n;0;j;v;345.5902000005153
3k0!xt7;88;False;2;P != T1?;ST2_high_2;2;Same;high;112;82;82;j;n;1;j;v;323.05580000047485
3k0!xt7;89;False;2;P != T2?;ST1_high_1;1;Same;high;82;112;82;j;n;1;j;v;372.05880000055913
3k0!xt7;90;False;2;P != T2?;ST2_low_5;2;Same;low;96;154;154;j;n;0;j;v;339.71329999985755
3k0!xt7;91;False;2;P != T1?;ST2_high_4;2;Same;high;96;70;70;j;n;1;j;v;1092.3896999993303
3k0!xt7;92;False;2;P != T1?;STb_7;0;Same;None;154;154;154;j;n;0;j;v;3706.4860999998928
3k0!xt7;93;False;2;P != T2?;ST2_low_5;2;Same;low;96;154;154;j;n;0;j;v;1522.8162999992492
3k0!xt7;94;False;2;P != T1?;ST1_high_6;1;Same;high;132;96;132;j;n;1;f;b;1864.7588999992877
3k0!xt7;95;False;2;P != T2?;ST2_low_2;2;Same;low;132;82;82;j;n;1;f;n;1712.1269999988726
3k0!xt7;96;False;2;P != T1?;ST2_low_4;2;Same;low;112;70;70;j;n;0;f;n;508.57209999958286
3k0!xt7;97;False;2;P != T2?;ST2_low_1;2;Same;low;82;132;132;j;n;1;f;n;1344.8492000006809
3k0!xt7;98;False;2;P != T2?;STb_5;0;Same;None;112;112;112;j;n;1;f;n;443.4025999998994
3k0!xt7;99;False;2;P != T2?;DT2_high_4;2;Different;high;96;70;60;j;n;1;j;n;5678.042199999254
3k0!xt7;100;False;2;P != T2?;STb_3;0;Same;None;82;82;82;j;n;1;f;n;4036.6556999997556
3k0!xt7;101;False;2;P != T2?;DT1_low_5;1;Different;low;96;154;82;j;n;1;j;n;927.5132000002486
3k0!xt7;102;False;2;P != T1?;DT2_high_2;2;Different;high;112;82;70;j;n;1;j;b;1887.7774000011414
3k0!xt7;103;False;2;P != T1?;STb_8;0;Same;None;180;180;180;j;n;0;j;v;1513.2453000005626
3k0!xt7;104;False;2;P != T1?;ST2_low_4;2;Same;low;112;70;70;j;n;1;j;v;2965.086100000917
3k0!xt7;105;False;2;P != T2?;ST1_low_4;1;Same;low;112;70;112;j;n;1;j;v;10340.195000000676
3k0!xt7;106;False;2;P != T1?;STb_5;0;Same;None;112;112;112;j;n;0;j;v;810.1814000001468
3k0!xt7;107;False;2;P != T1?;ST2_low_1;2;Same;low;82;132;132;j;n;1;j;v;1252.0153000004939
3k0!xt7;108;False;2;P != T2?;ST1_high_3;1;Same;high;70;96;70;j;n;1;j;v;1394.825999999739
3k0!xt7;109;False;2;P != T2?;ST1_low_2;1;Same;low;132;82;132;j;n;1;j;v;570.612200001051
3k0!xt7;110;False;2;P != T1?;ST2_high_5;2;Same;high;96;132;132;j;n;1;j;v;592.7817000010691
3k0!xt7;111;False;2;P != T1?;ST1_low_5;1;Same;low;96;154;96;j;n;0;j;v;1245.55220000002
3k0!xt7;112;False;2;P != T1?;ST1_low_1;1;Same;low;82;132;82;j;n;0;j;v;2545.2384000000166
3k0!xt7;113;False;2;P != T1?;ST1_low_5;1;Same;low;96;154;96;j;n;0;j;v;746.8683999995847
3k0!xt7;114;False;2;P != T1?;ST1_low_6;1;Same;low;154;96;154;j;n;0;j;v;3474.7633000006317
3k0!xt7;115;False;2;P != T1?;ST1_low_1;1;Same;low;82;132;82;j;n;0;j;v;3935.2537999984634
3k0!xt7;116;False;2;P != T1?;ST1_high_3;1;Same;high;70;96;70;j;n;0;j;v;695.4726999993
3k0!xt7;117;False;2;P != T1?;STb_2;0;Same;None;70;70;70;j;n;0;j;v;566.9340999993437
3k0!xt7;118;False;2;P != T1?;ST2_low_5;2;Same;low;96;154;154;j;n;1;j;b;3986.0255000003235
3k0!xt7;119;False;2;P != T2?;STb_1;0;Same;None;60;60;60;j;n;1;f;n;687.3945000006643
3k0!xt7;120;False;2;P != T1?;ST2_low_4;2;Same;low;112;70;70;j;n;0;f;n;1311.7471000005025
3k0!xt7;121;False;2;P != T2?;ST1_low_1;1;Same;low;82;132;82;j;n;1;j;n;4826.77909999984
3k0!xt7;122;False;2;P != T1?;ST2_low_6;2;Same;low;154;96;96;j;n;1;j;n;4440.552699999898
3k0!xt7;123;False;2;P != T1?;DT1_high_5;1;Different;high;96;132;82;j;n;0;f;b;577.0499000009295
3k0!xt7;124;False;2;P != T1?;ST2_high_6;2;Same;high;132;96;96;j;n;1;j;b;3263.9593000003515
3k0!xt7;125;False;2;P != T2?;ST2_low_6;2;Same;low;154;96;96;j;n;1;f;n;1303.05959999896
3k0!xt7;126;False;2;P != T1?;ST1_low_6;1;Same;low;154;96;154;j;n;0;j;n;8928.617500001565
3k0!xt7;127;False;2;P != T2?;ST1_high_4;1;Same;high;96;70;96;j;n;0;f;n;363.5357999992266
3k0!xt7;128;False;2;P != T1?;STb_3;0;Same;None;82;82;82;j;n;1;f;b;8408.71469999911
3k0!xt7;129;False;2;P != T2?;STb_4;0;Same;None;96;96;96;j;n;1;f;n;1034.3288000003668
3k0!xt7;130;False;2;P != T2?;ST1_high_4;1;Same;high;96;70;96;j;n;0;f;b;2667.4424999982875
3k0!xt7;131;False;2;P != T2?;ST1_low_5;1;Same;low;96;154;96;j;n;1;j;n;2641.544399999475
3k0!xt7;132;False;2;P != T1?;ST2_low_2;2;Same;low;132;82;82;j;n;0;f;b;2264.32720000048
3k0!xt7;133;False;2;P != T2?;ST1_high_1;1;Same;high;82;112;82;j;n;1;j;n;3676.0623999998643
3k0!xt7;134;False;2;P != T2?;ST1_high_5;1;Same;high;96;132;96;j;n;0;f;n;1854.622399998334
3k0!xt7;135;False;2;P != T1?;ST2_high_2;2;Same;high;112;82;82;j;n;1;j;n;2248.5426000002917
3k0!xt7;136;False;2;P != T2?;ST2_high_3;2;Same;high;70;96;96;j;n;1;f;n;270.51829999982147
3k0!xt7;137;False;2;P != T2?;ST2_low_2;2;Same;low;132;82;82;j;n;0;j;v;1662.1861999992689
3k0!xt7;138;False;2;P != T2?;ST2_high_2;2;Same;high;112;82;82;j;n;0;j;v;1075.3232000006392
3k0!xt7;139;False;2;P != T1?;ST2_low_3;2;Same;low;70;112;112;j;n;1;j;v;772.8482000002259
3k0!xt7;140;False;2;P != T2?;ST2_low_3;2;Same;low;70;112;112;j;n;0;j;v;563.8749000008829
3k0!xt7;141;False;2;P != T2?;ST1_low_5;1;Same;low;96;154;96;j;n;1;j;v;674.9263999990944
3k0!xt7;142;False;2;P != T2?;ST2_high_4;2;Same;high;96;70;70;j;n;0;j;v;2023.587800000314
3k0!xt7;143;False;2;P != T2?;ST2_high_3;2;Same;high;70;96;96;j;n;0;j;n;2930.4228000000876
3k0!xt7;144;False;2;P != T1?;ST2_high_5;2;Same;high;96;132;132;j;n;1;j;b;4133.207799999582
3k0!xt7;145;False;2;P != T2?;ST2_low_3;2;Same;low;70;112;112;j;n;1;f;n;1581.9111000000703
3k0!xt7;146;False;2;P != T2?;ST2_high_6;2;Same;high;132;96;96;j;n;1;f;n;1833.1020999994507
3k0!xt7;147;False;2;P != T1?;ST1_low_3;1;Same;low;70;112;70;j;n;1;f;b;3031.4168999993854
3k0!xt7;148;False;2;P != T1?;ST1_low_3;1;Same;low;70;112;70;j;n;1;f;n;1839.8796000001312
3k0!xt7;149;False;2;P != T2?;ST1_high_6;1;Same;high;132;96;132;j;n;0;f;n;376.35149999914574
3k0!xt7;150;False;2;P != T2?;ST1_low_3;1;Same;low;70;112;70;j;n;1;j;n;3154.6075999995082
3k0!xt7;151;False;2;P != T2?;STb_6;0;Same;None;132;132;132;j;n;1;f;n;554.5005000003584
3k0!xt7;152;False;2;P != T1?;ST1_high_5;1;Same;high;96;132;96;j;n;0;j;n;2343.8153000006423
3k0!xt7;153;False;2;P != T1?;ST1_low_4;1;Same;low;112;70;112;j;n;0;j;b;4845.046899999943
3k0!xt7;154;False;2;P != T2?;ST2_high_6;2;Same;high;132;96;96;j;n;1;f;n;1731.719699999303
3k0!xt7;155;False;2;P != T2?;ST2_low_3;2;Same;low;70;112;112;j;n;1;f;b;855.334000001676
3k0!xt7;156;False;2;P != T2?;ST2_high_1;2;Same;high;82;112;112;j;n;0;j;v;979.9321000009513
3k0!xt7;157;False;2;P != T1?;ST1_low_2;1;Same;low;132;82;132;j;n;0;j;v;476.1963000000833
3k0!xt7;158;False;2;P != T2?;ST1_low_5;1;Same;low;96;154;96;j;n;1;j;v;2833.744300000035
3k0!xt7;159;False;2;P != T1?;ST1_high_6;1;Same;high;132;96;132;j;n;0;j;n;2164.809100000639
3k0!xt7;160;False;2;P != T1?;ST1_high_6;1;Same;high;132;96;132;j;n;1;f;n;580.9096000011778
3k0!xt7;161;False;2;P != T2?;ST1_high_3;1;Same;high;70;96;70;j;n;0;f;n;336.7614999988291
3k0!xt7;162;False;2;P != T1?;ST1_low_2;1;Same;low;132;82;132;j;n;1;f;n;2319.668100000854
3k0!xt7;163;False;2;P != T1?;DT2_low_5;2;Different;low;96;154;180;j;n;1;j;n;3255.159000000276
3k0!xt7;164;False;2;P != T1?;ST1_high_1;1;Same;high;82;112;82;j;n;1;f;n;343.84529999988445
3k0!xt7;165;False;2;P != T1?;ST1_high_2;1;Same;high;112;82;112;j;n;0;j;v;318.6643999997614
3k0!xt7;166;False;2;P != T1?;DT2_high_1;2;Different;high;82;112;132;j;n;1;j;v;628.4058000001096
3k0!xt7;167;False;2;P != T2?;ST2_low_1;2;Same;low;82;132;132;j;n;0;j;v;585.3592999992543
3k0!xt7;168;False;2;P != T2?;ST1_low_1;1;Same;low;82;132;82;j;n;1;j;v;977.7142999992066
3k0!xt7;169;False;2;P != T2?;ST1_low_6;1;Same;low;154;96;154;j;n;1;j;v;1878.9641999992455
3k0!xt7;170;False;2;P != T2?;ST2_high_3;2;Same;high;70;96;96;j;n;0;j;v;2713.5587000011583
3k0!xt7;171;False;2;P != T2?;ST2_high_6;2;Same;high;132;96;96;j;n;0;j;v;1778.7972999994963
3k0!xt7;172;False;2;P != T2?;ST1_low_4;1;Same;low;112;70;112;j;n;1;j;v;707.0103999994899
3k0!xt7;173;False;2;P != T2?;DT1_low_6;1;Different;low;154;96;180;j;n;1;j;v;642.0608999997057
3k0!xt7;174;False;2;P != T1?;ST1_low_6;1;Same;low;154;96;154;j;n;0;j;v;600.003800000195
3k0!xt7;175;False;2;P != T1?;ST2_low_5;2;Same;low;96;154;154;j;n;1;j;v;601.0175999999774
3k0!xt7;176;False;2;P != T2?;ST2_low_4;2;Same;low;112;70;70;j;n;0;j;v;626.3954999994894
