p_code;trial_nr;practice;block;question;condition;seqPos;Same_or_Diff;ITS;T1_hz;T2_hz;P_hz;yes_key;sure_key;correct;yes_no;rating;resp_time
6xza25#;1;True;1;P = T2?;ST2_low_3;2;Same;low;70;112;112;f;n;1;f;b;3000.039600000491
6xza25#;2;True;1;P = T2?;ST1_high_5;1;Same;high;96;132;96;f;n;1;j;n;1699.7685999995156
6xza25#;3;True;1;P = T1?;STb_6;0;Same;None;132;132;132;f;n;1;f;n;1134.4488000004276
6xza25#;4;True;1;P = T1?;STb_4;0;Same;None;96;96;96;f;n;1;f;b;1098.1243999995058
6xza25#;5;True;1;P = T2?;ST1_high_4;1;Same;high;96;70;96;f;n;1;j;b;1060.3343000002496
6xza25#;6;True;1;P = T2?;STb_5;0;Same;None;112;112;112;f;n;1;f;n;1120.0473999997484
6xza25#;7;True;1;P = T1?;ST1_high_2;1;Same;high;112;82;112;f;n;1;f;n;991.8520000001081
6xza25#;8;True;1;P = T2?;DT2_high_6;2;Different;high;132;96;82;f;n;0;f;v;2623.6798999998427
6xza25#;9;True;1;P = T1?;DT2_low_6;2;Different;low;154;96;82;f;n;1;j;n;1422.1360999999888
6xza25#;10;True;1;P = T1?;ST1_high_3;1;Same;high;70;96;70;f;n;1;f;n;904.7687999991467
6xza25#;11;True;1;P = T1?;DT1_low_1;1;Different;low;82;132;70;f;n;0;f;n;852.5519000004351
6xza25#;12;True;1;P = T1?;ST2_high_2;2;Same;high;112;82;82;f;n;0;f;n;901.0670999996364
6xza25#;13;True;1;P = T2?;DT2_high_3;2;Different;high;70;96;112;f;n;1;j;v;2120.979299999817
6xza25#;14;True;1;P = T2?;ST2_low_5;2;Same;low;96;154;154;f;n;0;j;n;1834.7697999997763
6xza25#;15;True;1;P = T2?;STb_7;0;Same;None;154;154;154;f;n;1;f;n;1694.6006999996825
6xza25#;16;True;1;P = T1?;ST2_low_5;2;Same;low;96;154;154;f;n;1;j;n;1529.0267000000313
p_code;trial_nr;practice;block;question;condition;seqPos;Same_or_Diff;ITS;T1_hz;T2_hz;P_hz;yes_key;sure_key;correct;yes_no;rating;resp_time
6xza25#;1;False;1;P = T1?;ST1_high_4;1;Same;high;96;70;96;f;n;1;f;n;1607.8097999998135
6xza25#;2;False;1;P = T2?;DT1_high_4;1;Different;high;96;70;112;f;n;1;j;n;1185.6745999994018
6xza25#;3;False;1;P = T2?;ST1_high_1;1;Same;high;82;112;82;f;n;0;f;b;1508.1244000002698
6xza25#;4;False;1;P = T2?;ST2_low_2;2;Same;low;132;82;82;f;n;1;f;v;1588.4405000006154
6xza25#;5;False;1;P = T1?;ST1_high_6;1;Same;high;132;96;132;f;n;1;f;b;801.8572000000859
6xza25#;6;False;1;P = T1?;ST1_high_3;1;Same;high;70;96;70;f;n;1;f;v;915.8062000005884
6xza25#;7;False;1;P = T2?;ST2_high_2;2;Same;high;112;82;82;f;n;0;j;v;4225.619200000438
6xza25#;8;False;1;P = T1?;DT2_high_3;2;Different;high;70;96;112;f;n;0;f;b;1728.04670000005
6xza25#;9;False;1;P = T2?;STb_6;0;Same;None;132;132;132;f;n;0;j;n;1105.1360999999815
6xza25#;10;False;1;P = T1?;ST2_low_4;2;Same;low;112;70;70;f;n;1;j;n;1079.7126000006756
6xza25#;11;False;1;P = T1?;ST2_high_2;2;Same;high;112;82;82;f;n;1;j;n;1136.9653000001563
6xza25#;12;False;1;P = T2?;ST2_high_3;2;Same;high;70;96;96;f;n;1;f;n;991.6894000007233
6xza25#;13;False;1;P = T1?;ST1_low_5;1;Same;low;96;154;96;f;n;0;j;n;1080.694900000708
6xza25#;14;False;1;P = T2?;ST2_low_2;2;Same;low;132;82;82;f;n;0;j;b;1030.7149999998728
6xza25#;15;False;1;P = T1?;ST2_high_4;2;Same;high;96;70;70;f;n;0;f;b;1554.8471000001882
6xza25#;16;False;1;P = T1?;ST1_low_4;1;Same;low;112;70;112;f;n;0;j;n;774.1644999996424
6xza25#;17;False;1;P = T2?;ST2_low_6;2;Same;low;154;96;96;f;n;1;f;b;836.63179999985
6xza25#;18;False;1;P = T1?;ST1_high_5;1;Same;high;96;132;96;f;n;1;f;b;928.4592000003613
6xza25#;19;False;1;P = T2?;ST1_low_5;1;Same;low;96;154;96;f;n;0;f;n;813.2507999998779
6xza25#;20;False;1;P = T1?;ST2_high_5;2;Same;high;96;132;132;f;n;1;j;v;1841.5398999995887
6xza25#;21;False;1;P = T1?;ST1_low_3;1;Same;low;70;112;70;f;n;1;f;b;989.0082000001712
6xza25#;22;False;1;P = T1?;ST2_low_2;2;Same;low;132;82;82;f;n;0;f;n;1075.1256000003195
6xza25#;23;False;1;P = T1?;ST2_high_1;2;Same;high;82;112;112;f;n;1;j;v;1136.0978999991858
6xza25#;24;False;1;P = T2?;DT1_low_1;1;Different;low;82;132;70;f;n;0;f;v;2027.4236999994173
6xza25#;25;False;1;P = T1?;ST2_high_2;2;Same;high;112;82;82;f;n;0;f;v;1228.5696999997526
6xza25#;26;False;1;P = T2?;ST2_high_1;2;Same;high;82;112;112;f;n;1;f;v;1803.7567999999737
6xza25#;27;False;1;P = T1?;ST2_low_2;2;Same;low;132;82;82;f;n;0;f;b;941.0158000000592
6xza25#;28;False;1;P = T2?;ST1_low_6;1;Same;low;154;96;154;f;n;1;j;n;1175.6529000003866
6xza25#;29;False;1;P = T1?;ST2_low_2;2;Same;low;132;82;82;f;n;0;f;b;919.1182999993543
6xza25#;30;False;1;P = T1?;ST1_high_5;1;Same;high;96;132;96;f;n;0;j;v;1599.344199999905
6xza25#;31;False;1;P = T1?;ST2_low_6;2;Same;low;154;96;96;f;n;0;f;v;1374.7406999991654
6xza25#;32;False;1;P = T2?;ST1_low_3;1;Same;low;70;112;70;f;n;1;j;b;1432.5285000004442
6xza25#;33;False;1;P = T2?;ST1_high_4;1;Same;high;96;70;96;f;n;1;j;b;1246.0879999998724
6xza25#;34;False;1;P = T1?;DT2_low_5;2;Different;low;96;154;180;f;n;1;j;n;1307.389499999772
6xza25#;35;False;1;P = T1?;ST2_low_3;2;Same;low;70;112;112;f;n;1;j;b;1678.4617000002982
6xza25#;36;False;1;P = T1?;ST1_high_1;1;Same;high;82;112;82;f;n;1;f;n;1126.3774999997622
6xza25#;37;False;1;P = T1?;ST1_high_4;1;Same;high;96;70;96;f;n;1;f;v;1722.8125999999975
6xza25#;38;False;1;P = T1?;ST1_low_2;1;Same;low;132;82;132;f;n;0;j;v;3860.063199999786
6xza25#;39;False;1;P = T1?;ST1_high_5;1;Same;high;96;132;96;f;n;0;j;b;1023.9617999995971
6xza25#;40;False;1;P = T2?;ST2_high_5;2;Same;high;96;132;132;f;n;0;j;n;969.0075999997134
6xza25#;41;False;1;P = T2?;ST2_high_4;2;Same;high;96;70;70;f;n;1;f;n;1295.438699999977
6xza25#;42;False;1;P = T2?;ST2_high_6;2;Same;high;132;96;96;f;n;0;j;b;980.3320999999414
6xza25#;43;False;1;P = T1?;ST1_high_3;1;Same;high;70;96;70;f;n;1;f;n;886.7015000005267
6xza25#;44;False;1;P = T1?;ST2_high_6;2;Same;high;132;96;96;f;n;0;f;b;764.2931999998837
6xza25#;45;False;1;P = T2?;ST1_high_2;1;Same;high;112;82;112;f;n;1;j;b;808.3484999997381
6xza25#;46;False;1;P = T2?;ST1_low_4;1;Same;low;112;70;112;f;n;0;f;b;1117.4887000006493
6xza25#;47;False;1;P = T1?;ST2_high_1;2;Same;high;82;112;112;f;n;0;f;v;1043.2442999999694
6xza25#;48;False;1;P = T2?;STb_5;0;Same;None;112;112;112;f;n;0;j;n;918.6891999997897
6xza25#;49;False;1;P = T1?;ST2_high_5;2;Same;high;96;132;132;f;n;1;j;n;1068.1942000001072
6xza25#;50;False;1;P = T2?;ST1_low_5;1;Same;low;96;154;96;f;n;1;j;b;1892.8851000000577
6xza25#;51;False;1;P = T1?;ST1_high_2;1;Same;high;112;82;112;f;n;0;j;n;984.3100000007325
6xza25#;52;False;1;P = T1?;ST1_low_6;1;Same;low;154;96;154;f;n;1;f;n;744.3302000001495
6xza25#;53;False;1;P = T1?;ST1_low_5;1;Same;low;96;154;96;f;n;0;j;v;1111.49690000002
6xza25#;54;False;1;P = T2?;ST1_high_5;1;Same;high;96;132;96;f;n;0;f;b;768.2329999997819
6xza25#;55;False;1;P = T2?;ST1_low_2;1;Same;low;132;82;132;f;n;1;j;n;979.9471999995149
6xza25#;56;False;1;P = T2?;DT1_high_5;1;Different;high;96;132;82;f;n;1;j;n;1793.2842000000164
6xza25#;57;False;1;P = T2?;ST2_high_2;2;Same;high;112;82;82;f;n;1;f;b;805.7947000006607
6xza25#;58;False;1;P = T1?;ST1_high_3;1;Same;high;70;96;70;f;n;0;j;v;2258.4800999993604
6xza25#;59;False;1;P = T2?;ST2_high_3;2;Same;high;70;96;96;f;n;1;f;v;1957.2393999997075
6xza25#;60;False;1;P = T2?;ST1_high_2;1;Same;high;112;82;112;f;n;1;j;v;1947.4018999999316
6xza25#;61;False;1;P = T1?;STb_5;0;Same;None;112;112;112;f;n;1;f;b;1712.8406000001632
6xza25#;62;False;1;P = T2?;ST2_low_1;2;Same;low;82;132;132;f;n;1;f;n;912.5757000001613
6xza25#;63;False;1;P = T1?;ST2_high_3;2;Same;high;70;96;96;f;n;1;j;n;1705.2327999999761
6xza25#;64;False;1;P = T2?;ST1_high_6;1;Same;high;132;96;132;f;n;0;f;b;2103.3017999998265
6xza25#;65;False;1;P = T2?;ST2_low_4;2;Same;low;112;70;70;f;n;1;f;b;782.6378999998269
6xza25#;66;False;1;P = T1?;ST1_low_3;1;Same;low;70;112;70;f;n;0;j;b;1481.5361999999368
6xza25#;67;False;1;P = T2?;ST1_low_3;1;Same;low;70;112;70;f;n;1;j;b;1013.3366999998543
6xza25#;68;False;1;P = T1?;ST2_high_3;2;Same;high;70;96;96;f;n;0;f;b;677.9317000000447
6xza25#;69;False;1;P = T2?;ST2_low_3;2;Same;low;70;112;112;f;n;0;j;n;914.5896999998513
6xza25#;70;False;1;P = T1?;ST1_low_2;1;Same;low;132;82;132;f;n;1;f;b;965.9731000001557
6xza25#;71;False;1;P = T2?;ST1_high_1;1;Same;high;82;112;82;f;n;1;j;v;1103.374299999814
6xza25#;72;False;1;P = T1?;ST1_low_5;1;Same;low;96;154;96;f;n;1;f;v;801.6182000001209
6xza25#;73;False;1;P = T2?;ST2_low_1;2;Same;low;82;132;132;f;n;1;f;n;1307.6788999997007
6xza25#;74;False;1;P = T2?;ST1_high_5;1;Same;high;96;132;96;f;n;0;f;v;1630.3100000004633
6xza25#;75;False;1;P = T1?;ST2_low_4;2;Same;low;112;70;70;f;n;0;f;b;790.5564000002414
6xza25#;76;False;1;P = T2?;ST2_low_5;2;Same;low;96;154;154;f;n;0;j;n;1919.1678000006505
6xza25#;77;False;1;P = T1?;ST1_low_2;1;Same;low;132;82;132;f;n;1;f;b;682.8623999999763
6xza25#;78;False;1;P = T1?;STb_3;0;Same;None;82;82;82;f;n;0;j;v;1005.2929000003132
6xza25#;79;False;1;P = T1?;ST2_low_5;2;Same;low;96;154;154;f;n;1;j;n;1139.9582999993072
6xza25#;80;False;1;P = T2?;ST1_low_4;1;Same;low;112;70;112;f;n;1;j;n;1010.3735000002416
6xza25#;81;False;1;P = T2?;ST1_high_3;1;Same;high;70;96;70;f;n;0;f;v;1176.1651999995593
6xza25#;82;False;1;P = T1?;ST1_high_2;1;Same;high;112;82;112;f;n;1;f;v;727.9685000003155
6xza25#;83;False;1;P = T1?;ST1_low_1;1;Same;low;82;132;82;f;n;1;f;v;1086.9983000002321
6xza25#;84;False;1;P = T2?;STb_3;0;Same;None;82;82;82;f;n;1;f;b;2244.0266999992673
6xza25#;85;False;1;P = T1?;ST1_low_6;1;Same;low;154;96;154;f;n;1;f;n;839.887500000259
6xza25#;86;False;1;P = T1?;ST2_high_4;2;Same;high;96;70;70;f;n;1;j;n;1114.9177999996027
6xza25#;87;False;1;P = T1?;ST1_low_6;1;Same;low;154;96;154;f;n;1;f;n;735.095399999409
6xza25#;88;False;1;P = T2?;ST2_high_4;2;Same;high;96;70;70;f;n;1;f;v;2047.7496000003157
6xza25#;89;False;1;P = T1?;ST2_low_6;2;Same;low;154;96;96;f;n;1;j;n;1289.895200000501
6xza25#;90;False;1;P = T2?;ST1_high_6;1;Same;high;132;96;132;f;n;1;j;b;1153.266999999687
6xza25#;91;False;1;P = T1?;ST2_low_5;2;Same;low;96;154;154;f;n;1;j;n;1311.1637000001792
6xza25#;92;False;1;P = T2?;ST1_high_4;1;Same;high;96;70;96;f;n;1;j;b;1271.1896000000706
6xza25#;93;False;1;P = T2?;STb_2;0;Same;None;70;70;70;f;n;1;f;v;1218.0260999994061
6xza25#;94;False;1;P = T2?;ST2_high_1;2;Same;high;82;112;112;f;n;1;f;b;641.441699999632
6xza25#;95;False;1;P = T1?;ST2_low_1;2;Same;low;82;132;132;f;n;1;j;n;883.307899999636
6xza25#;96;False;1;P = T2?;ST2_high_5;2;Same;high;96;132;132;f;n;0;j;n;1554.5387000001938
6xza25#;97;False;1;P = T1?;DT1_low_5;1;Different;low;96;154;82;f;n;1;j;v;1690.8605999997235
6xza25#;98;False;1;P = T2?;ST1_high_6;1;Same;high;132;96;132;f;n;1;j;n;1432.6842000000397
6xza25#;99;False;1;P = T1?;ST1_high_4;1;Same;high;96;70;96;f;n;1;f;b;672.9906000000483
6xza25#;100;False;1;P = T2?;ST2_low_3;2;Same;low;70;112;112;f;n;1;f;n;692.2260000001188
6xza25#;101;False;1;P = T2?;ST1_high_3;1;Same;high;70;96;70;f;n;0;f;b;862.1886999999333
6xza25#;102;False;1;P = T1?;DT1_low_4;1;Different;low;112;70;132;f;n;0;f;b;543.5810999997557
6xza25#;103;False;1;P = T1?;ST2_low_4;2;Same;low;112;70;70;f;n;0;f;n;711.2402000002476
6xza25#;104;False;1;P = T2?;ST1_low_4;1;Same;low;112;70;112;f;n;1;j;n;1318.7199000003602
6xza25#;105;False;1;P = T2?;STb_8;0;Same;None;180;180;180;f;n;1;f;n;868.663899999774
6xza25#;106;False;1;P = T1?;ST1_low_4;1;Same;low;112;70;112;f;n;1;f;b;907.7050999994754
6xza25#;107;False;1;P = T1?;STb_1;0;Same;None;60;60;60;f;n;1;f;b;812.1885999998995
6xza25#;108;False;1;P = T2?;ST2_high_2;2;Same;high;112;82;82;f;n;0;j;v;1552.1666000004188
6xza25#;109;False;1;P = T1?;DT1_low_2;1;Different;low;132;82;154;f;n;0;f;b;1031.2229999999545
6xza25#;110;False;1;P = T1?;ST2_high_1;2;Same;high;82;112;112;f;n;0;f;b;557.6354999993782
6xza25#;111;False;1;P = T2?;ST2_high_4;2;Same;high;96;70;70;f;n;1;f;b;625.5536999997275
6xza25#;112;False;1;P = T2?;ST2_low_4;2;Same;low;112;70;70;f;n;1;f;n;648.7371000002895
6xza25#;113;False;1;P = T2?;DT2_low_4;2;Different;low;112;70;60;f;n;1;j;b;1411.8370000005598
6xza25#;114;False;1;P = T1?;ST2_high_3;2;Same;high;70;96;96;f;n;1;j;b;1228.6147000004348
6xza25#;115;False;1;P = T1?;ST1_high_6;1;Same;high;132;96;132;f;n;1;f;b;839.3233000006148
6xza25#;116;False;1;P = T1?;STb_8;0;Same;None;180;180;180;f;n;1;f;n;726.536500000293
6xza25#;117;False;1;P = T1?;STb_2;0;Same;None;70;70;70;f;n;0;j;v;1309.3746999993527
6xza25#;118;False;1;P = T2?;ST1_low_1;1;Same;low;82;132;82;f;n;1;j;n;875.3273000002082
6xza25#;119;False;1;P = T2?;ST1_low_2;1;Same;low;132;82;132;f;n;1;j;n;1591.9808999997258
6xza25#;120;False;1;P = T2?;ST2_low_2;2;Same;low;132;82;82;f;n;1;f;b;852.3030000005747
6xza25#;121;False;1;P = T1?;ST1_high_6;1;Same;high;132;96;132;f;n;1;f;n;745.5476000004637
6xza25#;122;False;1;P = T2?;ST2_low_4;2;Same;low;112;70;70;f;n;1;f;b;787.8809999992882
6xza25#;123;False;1;P = T2?;ST2_high_3;2;Same;high;70;96;96;f;n;0;j;v;963.6081999997259
6xza25#;124;False;1;P = T1?;ST1_high_1;1;Same;high;82;112;82;f;n;1;f;v;775.6151000003229
6xza25#;125;False;1;P = T1?;ST2_low_3;2;Same;low;70;112;112;f;n;1;j;b;1136.9555999999648
6xza25#;126;False;1;P = T1?;ST2_low_1;2;Same;low;82;132;132;f;n;1;j;n;1160.6277999999293
6xza25#;127;False;1;P = T1?;ST2_high_6;2;Same;high;132;96;96;f;n;0;f;b;918.2863000005455
6xza25#;128;False;1;P = T1?;STb_4;0;Same;None;96;96;96;f;n;1;f;n;573.3310999994501
6xza25#;129;False;1;P = T2?;ST1_high_2;1;Same;high;112;82;112;f;n;1;j;n;883.1946999998763
6xza25#;130;False;1;P = T2?;ST1_low_1;1;Same;low;82;132;82;f;n;1;j;n;1345.5169999997452
6xza25#;131;False;1;P = T1?;ST2_low_5;2;Same;low;96;154;154;f;n;1;j;n;1135.1934999993318
6xza25#;132;False;1;P = T2?;ST2_low_6;2;Same;low;154;96;96;f;n;1;f;b;1030.6658999998035
6xza25#;133;False;1;P = T2?;ST1_low_6;1;Same;low;154;96;154;f;n;1;j;n;983.7766999999076
6xza25#;134;False;1;P = T2?;ST2_low_3;2;Same;low;70;112;112;f;n;1;f;v;2175.447300000087
6xza25#;135;False;1;P = T1?;STb_6;0;Same;None;132;132;132;f;n;1;f;b;634.5494999995935
6xza25#;136;False;1;P = T1?;ST2_high_4;2;Same;high;96;70;70;f;n;0;f;v;1811.6104000000632
6xza25#;137;False;1;P = T1?;ST1_low_1;1;Same;low;82;132;82;f;n;1;f;b;1658.4236999997302
6xza25#;138;False;1;P = T1?;ST2_low_1;2;Same;low;82;132;132;f;n;1;j;b;1931.9077000000107
6xza25#;139;False;1;P = T2?;ST2_low_5;2;Same;low;96;154;154;f;n;1;f;n;821.8815999998696
6xza25#;140;False;1;P = T2?;ST1_low_6;1;Same;low;154;96;154;f;n;1;j;n;892.7942999998777
6xza25#;141;False;1;P = T1?;ST2_low_3;2;Same;low;70;112;112;f;n;0;f;b;865.6286000004911
6xza25#;142;False;1;P = T2?;STb_4;0;Same;None;96;96;96;f;n;1;f;n;938.496099999611
6xza25#;143;False;1;P = T2?;STb_1;0;Same;None;60;60;60;f;n;1;f;v;2069.9851000008493
6xza25#;144;False;1;P = T1?;ST2_high_5;2;Same;high;96;132;132;f;n;1;j;b;1127.2793000007368
6xza25#;145;False;1;P = T2?;ST1_low_5;1;Same;low;96;154;96;f;n;1;j;n;1795.6472000005306
6xza25#;146;False;1;P = T2?;DT2_high_4;2;Different;high;96;70;60;f;n;0;f;b;1188.9474999998129
6xza25#;147;False;1;P = T1?;DT2_low_3;2;Different;low;70;112;132;f;n;0;f;n;475.3331000001708
6xza25#;148;False;1;P = T2?;ST2_low_6;2;Same;low;154;96;96;f;n;1;f;b;747.4323000005825
6xza25#;149;False;1;P = T2?;ST1_high_5;1;Same;high;96;132;96;f;n;0;f;b;638.076600000204
6xza25#;150;False;1;P = T1?;ST1_high_1;1;Same;high;82;112;82;f;n;1;f;b;545.975200000612
6xza25#;151;False;1;P = T2?;DT1_high_3;1;Different;high;70;96;60;f;n;1;j;b;997.6909999995769
6xza25#;152;False;1;P = T2?;ST1_low_1;1;Same;low;82;132;82;f;n;1;j;n;913.7457999995604
6xza25#;153;False;1;P = T1?;ST1_low_1;1;Same;low;82;132;82;f;n;0;j;n;2021.8868000001748
6xza25#;154;False;1;P = T1?;ST1_high_2;1;Same;high;112;82;112;f;n;1;f;b;540.9432000005836
6xza25#;155;False;1;P = T2?;ST2_high_6;2;Same;high;132;96;96;f;n;0;j;b;865.574799998285
6xza25#;156;False;1;P = T2?;DT1_low_2;1;Different;low;132;82;154;f;n;1;j;n;917.3816000002262
6xza25#;157;False;1;P = T2?;ST1_high_4;1;Same;high;96;70;96;f;n;1;j;b;2324.8265000001993
6xza25#;158;False;1;P = T1?;ST2_low_6;2;Same;low;154;96;96;f;n;1;j;n;888.5893000006035
6xza25#;159;False;1;P = T1?;DT1_low_6;1;Different;low;154;96;180;f;n;1;j;b;1970.8885999989434
6xza25#;160;False;1;P = T2?;ST1_high_1;1;Same;high;82;112;82;f;n;0;f;b;533.5283999993408
6xza25#;161;False;1;P = T1?;ST2_high_2;2;Same;high;112;82;82;f;n;0;f;v;1375.5607000002783
6xza25#;162;False;1;P = T1?;STb_7;0;Same;None;154;154;154;f;n;1;f;n;616.0522999998648
6xza25#;163;False;1;P = T2?;ST2_high_6;2;Same;high;132;96;96;f;n;0;j;b;718.2898999999452
6xza25#;164;False;1;P = T2?;ST2_low_5;2;Same;low;96;154;154;f;n;1;f;b;2723.482100000183
6xza25#;165;False;1;P = T2?;ST2_high_5;2;Same;high;96;132;132;f;n;1;f;b;1499.5546999998624
6xza25#;166;False;1;P = T2?;STb_7;0;Same;None;154;154;154;f;n;1;f;n;741.8531000002986
6xza25#;167;False;1;P = T2?;ST2_high_1;2;Same;high;82;112;112;f;n;0;j;n;839.9293999991642
6xza25#;168;False;1;P = T2?;ST2_low_1;2;Same;low;82;132;132;f;n;0;j;v;1215.059600001041
6xza25#;169;False;1;P = T2?;DT1_low_4;1;Different;low;112;70;132;f;n;1;j;n;832.7919999992446
6xza25#;170;False;1;P = T2?;ST1_low_3;1;Same;low;70;112;70;f;n;0;f;b;1788.021899999876
6xza25#;171;False;1;P = T1?;ST2_high_6;2;Same;high;132;96;96;f;n;0;f;n;586.3202000000456
6xza25#;172;False;1;P = T2?;ST1_high_3;1;Same;high;70;96;70;f;n;1;j;v;1611.7066000006162
6xza25#;173;False;1;P = T1?;ST1_low_3;1;Same;low;70;112;70;f;n;1;f;v;2386.855100001412
6xza25#;174;False;1;P = T2?;ST1_low_2;1;Same;low;132;82;132;f;n;1;j;n;940.3946999991604
6xza25#;175;False;1;P = T1?;DT1_high_5;1;Different;high;96;132;82;f;n;0;f;b;941.6565999999875
6xza25#;176;False;1;P = T1?;ST1_low_4;1;Same;low;112;70;112;f;n;1;f;n;495.9693000000698
6xza25#;1;True;2;P != T2?;DT1_high_1;1;Different;high;82;112;70;f;n;0;j;v;3031.09989999939
6xza25#;2;True;2;P != T1?;ST2_high_2;2;Same;high;112;82;82;f;n;1;f;b;1741.4601999989827
6xza25#;3;True;2;P != T1?;ST2_low_3;2;Same;low;70;112;112;f;n;0;j;b;1153.4235999988596
6xza25#;4;True;2;P != T1?;ST1_high_3;1;Same;high;70;96;70;f;n;0;f;b;1379.2468000010558
6xza25#;5;True;2;P != T2?;ST1_low_5;1;Same;low;96;154;96;f;n;1;f;n;2038.543499998923
6xza25#;6;True;2;P != T1?;STb_7;0;Same;None;154;154;154;f;n;1;j;n;622.147699999914
6xza25#;7;True;2;P != T2?;ST1_low_6;1;Same;low;154;96;154;f;n;1;f;n;1212.4972000001435
6xza25#;8;True;2;P != T2?;STb_2;0;Same;None;70;70;70;f;n;1;j;n;1645.2563000002556
6xza25#;9;True;2;P != T2?;STb_5;0;Same;None;112;112;112;f;n;0;f;v;1912.5703999998223
6xza25#;10;True;2;P != T1?;DT1_low_5;1;Different;low;96;154;82;f;n;0;j;n;1112.9697000014858
6xza25#;11;True;2;P != T2?;DT2_low_2;2;Different;low;132;82;70;f;n;0;j;n;939.6080000005895
6xza25#;12;True;2;P != T2?;ST2_high_5;2;Same;high;96;132;132;f;n;1;j;n;627.7215999998589
6xza25#;13;True;2;P != T1?;ST1_high_5;1;Same;high;96;132;96;f;n;1;j;b;1892.2545000004902
6xza25#;14;True;2;P != T1?;STb_3;0;Same;None;82;82;82;f;n;1;j;b;1576.6103000005387
6xza25#;15;True;2;P != T2?;ST2_high_4;2;Same;high;96;70;70;f;n;1;j;b;1090.5524999998306
6xza25#;16;True;2;P != T1?;DT2_high_5;2;Different;high;96;132;154;f;n;1;f;n;1204.9122999997053
6xza25#;1;False;2;P != T1?;ST1_low_1;1;Same;low;82;132;82;f;n;1;j;v;2564.9909999992815
6xza25#;2;False;2;P != T1?;ST2_high_3;2;Same;high;70;96;96;f;n;0;j;n;1771.6331000010541
6xza25#;3;False;2;P != T1?;ST1_high_5;1;Same;high;96;132;96;f;n;0;f;b;1219.2862000010791
6xza25#;4;False;2;P != T2?;ST2_low_2;2;Same;low;132;82;82;f;n;1;j;n;1507.913200000985
6xza25#;5;False;2;P != T2?;DT1_low_4;1;Different;low;112;70;132;f;n;1;f;b;1151.5204999996058
6xza25#;6;False;2;P != T1?;DT1_low_3;1;Different;low;70;112;60;f;n;0;j;b;2994.157600000108
6xza25#;7;False;2;P != T1?;ST1_high_4;1;Same;high;96;70;96;f;n;1;j;b;759.5270000001619
6xza25#;8;False;2;P != T1?;ST1_high_2;1;Same;high;112;82;112;f;n;1;j;b;835.0694000000658
6xza25#;9;False;2;P != T1?;ST1_high_6;1;Same;high;132;96;132;f;n;1;j;b;733.9957999993203
6xza25#;10;False;2;P != T2?;STb_1;0;Same;None;60;60;60;f;n;1;j;n;398.63680000053137
6xza25#;11;False;2;P != T2?;ST2_high_3;2;Same;high;70;96;96;f;n;1;j;b;665.8379000000423
6xza25#;12;False;2;P != T1?;ST1_high_6;1;Same;high;132;96;132;f;n;1;j;n;891.8649999995978
6xza25#;13;False;2;P != T2?;ST1_low_4;1;Same;low;112;70;112;f;n;0;j;v;1971.9106999982614
6xza25#;14;False;2;P != T1?;ST1_high_5;1;Same;high;96;132;96;f;n;1;j;n;900.403900001038
6xza25#;15;False;2;P != T1?;ST2_low_5;2;Same;low;96;154;154;f;n;1;f;n;1204.671600000438
6xza25#;16;False;2;P != T2?;ST1_high_6;1;Same;high;132;96;132;f;n;1;f;b;1368.8084000004892
6xza25#;17;False;2;P != T2?;ST2_high_4;2;Same;high;96;70;70;f;n;1;j;v;2453.3807000007073
6xza25#;18;False;2;P != T2?;STb_7;0;Same;None;154;154;154;f;n;1;j;n;560.8974000006128
6xza25#;19;False;2;P != T1?;ST1_low_2;1;Same;low;132;82;132;f;n;1;j;b;2845.7236000012927
6xza25#;20;False;2;P != T2?;ST1_low_1;1;Same;low;82;132;82;f;n;0;j;b;1845.3996000007464
6xza25#;21;False;2;P != T2?;STb_8;0;Same;None;180;180;180;f;n;1;j;n;727.042699998492
6xza25#;22;False;2;P != T2?;ST1_low_6;1;Same;low;154;96;154;f;n;0;j;b;2473.117600000478
6xza25#;23;False;2;P != T1?;ST1_low_4;1;Same;low;112;70;112;f;n;1;j;n;1481.1910999997053
6xza25#;24;False;2;P != T2?;ST2_high_5;2;Same;high;96;132;132;f;n;0;f;v;2092.0114000000467
6xza25#;25;False;2;P != T2?;ST1_high_4;1;Same;high;96;70;96;f;n;1;f;b;1316.1545000002661
6xza25#;26;False;2;P != T1?;ST1_low_5;1;Same;low;96;154;96;f;n;0;f;n;1365.1100000006409
6xza25#;27;False;2;P != T1?;ST2_low_2;2;Same;low;132;82;82;f;n;1;f;b;1328.806200001054
6xza25#;28;False;2;P != T2?;DT2_high_1;2;Different;high;82;112;132;f;n;0;j;b;1687.5939999990806
6xza25#;29;False;2;P != T1?;ST1_high_5;1;Same;high;96;132;96;f;n;1;j;n;684.7003999992012
6xza25#;30;False;2;P != T1?;DT1_high_4;1;Different;high;96;70;112;f;n;0;j;n;946.5623999985837
6xza25#;31;False;2;P != T1?;ST1_low_6;1;Same;low;154;96;154;f;n;1;j;n;1682.490199998938
6xza25#;32;False;2;P != T1?;ST1_low_3;1;Same;low;70;112;70;f;n;1;j;v;2339.8335999991104
6xza25#;33;False;2;P != T2?;ST1_low_3;1;Same;low;70;112;70;f;n;1;f;b;1433.2615999992413
6xza25#;34;False;2;P != T1?;ST2_high_4;2;Same;high;96;70;70;f;n;1;f;n;661.0522999999375
6xza25#;35;False;2;P != T2?;ST2_low_3;2;Same;low;70;112;112;f;n;0;f;b;1193.1662999995751
6xza25#;36;False;2;P != T2?;ST1_high_2;1;Same;high;112;82;112;f;n;0;j;v;1396.35300000009
6xza25#;37;False;2;P != T2?;ST1_high_6;1;Same;high;132;96;132;f;n;0;j;v;1958.0263000007108
6xza25#;38;False;2;P != T2?;STb_2;0;Same;None;70;70;70;f;n;1;j;n;843.3527999986836
6xza25#;39;False;2;P != T1?;DT2_high_2;2;Different;high;112;82;70;f;n;0;j;n;884.5827000004647
6xza25#;40;False;2;P != T2?;ST1_low_5;1;Same;low;96;154;96;f;n;0;j;v;2615.502700000434
6xza25#;41;False;2;P != T2?;ST2_low_2;2;Same;low;132;82;82;f;n;1;j;b;1947.0965000000433
6xza25#;42;False;2;P != T1?;ST1_low_1;1;Same;low;82;132;82;f;n;1;j;n;1036.2786000005144
6xza25#;43;False;2;P != T1?;ST1_low_2;1;Same;low;132;82;132;f;n;1;j;n;1142.4060000008467
6xza25#;44;False;2;P != T2?;DT2_high_6;2;Different;high;132;96;82;f;n;0;j;v;2593.092200000683
6xza25#;45;False;2;P != T2?;STb_4;0;Same;None;96;96;96;f;n;0;f;n;1171.1669000014808
6xza25#;46;False;2;P != T1?;ST2_high_4;2;Same;high;96;70;70;f;n;1;f;v;1783.838500001366
6xza25#;47;False;2;P != T1?;ST1_low_3;1;Same;low;70;112;70;f;n;0;f;n;1000.8144000003085
6xza25#;48;False;2;P != T1?;DT1_high_3;1;Different;high;70;96;60;f;n;0;j;n;900.6845000003523
6xza25#;49;False;2;P != T2?;ST2_low_6;2;Same;low;154;96;96;f;n;1;j;n;736.1836000000039
6xza25#;50;False;2;P != T1?;ST2_high_5;2;Same;high;96;132;132;f;n;1;f;v;3325.1954000006663
6xza25#;51;False;2;P != T1?;ST2_high_5;2;Same;high;96;132;132;f;n;1;f;n;1188.5335000006307
6xza25#;52;False;2;P != T2?;ST2_low_5;2;Same;low;96;154;154;f;n;0;f;v;2867.2998000001826
6xza25#;53;False;2;P != T1?;ST1_high_2;1;Same;high;112;82;112;f;n;0;f;b;1287.7862000004825
6xza25#;54;False;2;P != T1?;ST1_high_2;1;Same;high;112;82;112;f;n;1;j;b;3447.089799999958
6xza25#;55;False;2;P != T2?;ST1_high_5;1;Same;high;96;132;96;f;n;0;j;n;839.144399998986
6xza25#;56;False;2;P != T2?;ST1_high_6;1;Same;high;132;96;132;f;n;0;j;n;1239.5785999997315
6xza25#;57;False;2;P != T1?;ST1_low_1;1;Same;low;82;132;82;f;n;1;j;n;2093.886400001793
6xza25#;58;False;2;P != T1?;DT1_low_5;1;Different;low;96;154;82;f;n;0;j;n;813.7337999996817
6xza25#;59;False;2;P != T1?;ST2_high_2;2;Same;high;112;82;82;f;n;0;j;n;782.2261000001163
6xza25#;60;False;2;P != T1?;DT1_low_4;1;Different;low;112;70;132;f;n;1;f;n;1506.998000000749
6xza25#;61;False;2;P != T2?;STb_5;0;Same;None;112;112;112;f;n;0;f;v;2165.813400000843
6xza25#;62;False;2;P != T2?;ST2_high_6;2;Same;high;132;96;96;f;n;1;j;b;2121.229800000947
6xza25#;63;False;2;P != T2?;ST1_low_2;1;Same;low;132;82;132;f;n;1;f;b;1062.1487999997044
6xza25#;64;False;2;P != T2?;ST2_low_3;2;Same;low;70;112;112;f;n;0;f;b;1819.7529999997641
6xza25#;65;False;2;P != T1?;ST2_low_4;2;Same;low;112;70;70;f;n;0;j;b;2753.1680000010965
6xza25#;66;False;2;P != T1?;ST2_low_3;2;Same;low;70;112;112;f;n;0;j;v;1893.889400000262
6xza25#;67;False;2;P != T1?;ST2_low_2;2;Same;low;132;82;82;f;n;0;j;b;1206.7566999994597
6xza25#;68;False;2;P != T2?;ST2_low_5;2;Same;low;96;154;154;f;n;0;f;b;1224.3385999991006
6xza25#;69;False;2;P != T2?;ST2_low_5;2;Same;low;96;154;154;f;n;1;j;b;2346.9805999993696
6xza25#;70;False;2;P != T1?;ST1_low_2;1;Same;low;132;82;132;f;n;1;j;v;1516.2842999998247
6xza25#;71;False;2;P != T1?;ST2_high_6;2;Same;high;132;96;96;f;n;0;j;b;977.2400999991078
6xza25#;72;False;2;P != T2?;ST1_high_4;1;Same;high;96;70;96;f;n;0;j;n;650.9218999999575
6xza25#;73;False;2;P != T2?;ST2_low_6;2;Same;low;154;96;96;f;n;1;j;b;1589.3938999997772
6xza25#;74;False;2;P != T1?;ST2_low_5;2;Same;low;96;154;154;f;n;1;f;b;779.9396999998862
6xza25#;75;False;2;P != T1?;ST2_low_6;2;Same;low;154;96;96;f;n;1;f;v;1591.2726000005932
6xza25#;76;False;2;P != T1?;ST1_high_3;1;Same;high;70;96;70;f;n;1;j;n;1404.4377999998687
6xza25#;77;False;2;P != T2?;ST2_low_1;2;Same;low;82;132;132;f;n;0;f;v;2748.4196000004886
6xza25#;78;False;2;P != T1?;ST1_low_5;1;Same;low;96;154;96;f;n;1;j;b;840.9287000013137
6xza25#;79;False;2;P != T2?;DT2_high_2;2;Different;high;112;82;70;f;n;1;f;v;2426.273200000651
6xza25#;80;False;2;P != T1?;ST2_low_3;2;Same;low;70;112;112;f;n;0;j;n;1201.1515000012878
6xza25#;81;False;2;P != T2?;ST1_low_4;1;Same;low;112;70;112;f;n;1;f;b;1408.3367999992333
6xza25#;82;False;2;P != T2?;ST1_low_3;1;Same;low;70;112;70;f;n;0;j;b;2745.886299999256
6xza25#;83;False;2;P != T2?;ST1_low_5;1;Same;low;96;154;96;f;n;1;f;v;1766.3303000008455
6xza25#;84;False;2;P != T2?;DT1_low_6;1;Different;low;154;96;180;f;n;1;f;n;925.3119999993942
6xza25#;85;False;2;P != T1?;ST1_low_6;1;Same;low;154;96;154;f;n;1;j;v;990.2297999997245
6xza25#;86;False;2;P != T1?;STb_3;0;Same;None;82;82;82;f;n;1;j;n;1089.8144999991928
6xza25#;87;False;2;P != T1?;ST2_high_4;2;Same;high;96;70;70;f;n;1;f;n;1198.1273000001238
6xza25#;88;False;2;P != T2?;ST1_high_1;1;Same;high;82;112;82;f;n;1;f;v;1999.970900000335
6xza25#;89;False;2;P != T1?;ST2_low_2;2;Same;low;132;82;82;f;n;1;f;b;1490.0864999999612
6xza25#;90;False;2;P != T2?;ST2_high_6;2;Same;high;132;96;96;f;n;1;j;v;1687.6700000011624
6xza25#;91;False;2;P != T1?;ST1_low_4;1;Same;low;112;70;112;f;n;1;j;n;660.8185999994021
6xza25#;92;False;2;P != T2?;ST1_high_5;1;Same;high;96;132;96;f;n;0;j;b;1622.9464000007283
6xza25#;93;False;2;P != T2?;ST1_low_5;1;Same;low;96;154;96;f;n;1;f;b;1302.812100000665
6xza25#;94;False;2;P != T2?;ST2_high_3;2;Same;high;70;96;96;f;n;1;j;b;2247.8592000006756
6xza25#;95;False;2;P != T1?;ST2_high_3;2;Same;high;70;96;96;f;n;0;j;b;2458.5858000009466
6xza25#;96;False;2;P != T1?;ST2_low_3;2;Same;low;70;112;112;f;n;0;j;b;1158.4139999995386
6xza25#;97;False;2;P != T2?;ST1_low_1;1;Same;low;82;132;82;f;n;0;j;n;521.8241000002308
6xza25#;98;False;2;P != T1?;DT1_high_1;1;Different;high;82;112;70;f;n;0;j;b;1565.1373000000603
6xza25#;99;False;2;P != T2?;ST2_low_4;2;Same;low;112;70;70;f;n;1;j;b;811.3821000006283
6xza25#;100;False;2;P != T1?;ST2_high_6;2;Same;high;132;96;96;f;n;0;j;v;1555.0474000010581
6xza25#;101;False;2;P != T1?;ST1_high_1;1;Same;high;82;112;82;f;n;1;j;v;3635.49889999922
6xza25#;102;False;2;P != T1?;ST1_low_6;1;Same;low;154;96;154;f;n;1;j;n;320.20600000032573
6xza25#;103;False;2;P != T2?;ST2_low_1;2;Same;low;82;132;132;f;n;1;j;v;4706.27119999881
6xza25#;104;False;2;P != T2?;ST2_high_2;2;Same;high;112;82;82;f;n;1;j;v;946.0904999996274
6xza25#;105;False;2;P != T1?;ST2_high_1;2;Same;high;82;112;112;f;n;0;j;b;1130.635199999233
6xza25#;106;False;2;P != T2?;ST1_high_3;1;Same;high;70;96;70;f;n;0;j;b;639.6020000011049
6xza25#;107;False;2;P != T2?;ST1_low_6;1;Same;low;154;96;154;f;n;1;f;n;737.2388999992836
6xza25#;108;False;2;P != T1?;ST2_low_5;2;Same;low;96;154;154;f;n;1;f;v;1569.6275000009337
6xza25#;109;False;2;P != T1?;ST2_low_4;2;Same;low;112;70;70;f;n;0;j;n;1206.4946999998938
6xza25#;110;False;2;P != T2?;ST1_low_3;1;Same;low;70;112;70;f;n;0;j;n;1390.9198999990622
6xza25#;111;False;2;P != T2?;ST1_high_2;1;Same;high;112;82;112;f;n;0;j;n;1354.8974000004819
6xza25#;112;False;2;P != T2?;ST1_high_1;1;Same;high;82;112;82;f;n;1;f;n;1068.6413000003085
6xza25#;113;False;2;P != T1?;STb_4;0;Same;None;96;96;96;f;n;1;j;b;3306.2300000001414
6xza25#;114;False;2;P != T2?;DT1_low_3;1;Different;low;70;112;60;f;n;0;j;v;1856.6546000001836
6xza25#;115;False;2;P != T2?;ST1_high_4;1;Same;high;96;70;96;f;n;0;j;b;682.566700001189
6xza25#;116;False;2;P != T1?;ST2_high_2;2;Same;high;112;82;82;f;n;0;j;n;717.8709999989223
6xza25#;117;False;2;P != T2?;ST2_high_2;2;Same;high;112;82;82;f;n;1;j;b;626.7760999999155
6xza25#;118;False;2;P != T2?;ST2_low_2;2;Same;low;132;82;82;f;n;1;j;b;1117.6438000002236
6xza25#;119;False;2;P != T2?;ST1_high_5;1;Same;high;96;132;96;f;n;1;f;v;1487.071499999729
6xza25#;120;False;2;P != T2?;ST2_high_6;2;Same;high;132;96;96;f;n;1;j;b;914.7952000002988
6xza25#;121;False;2;P != T2?;ST2_high_5;2;Same;high;96;132;132;f;n;1;j;b;879.616400001396
6xza25#;122;False;2;P != T1?;ST2_high_5;2;Same;high;96;132;132;f;n;0;j;b;667.0802000007825
6xza25#;123;False;2;P != T2?;ST1_low_2;1;Same;low;132;82;132;f;n;1;f;b;758.8726999983919
6xza25#;124;False;2;P != T1?;ST2_low_6;2;Same;low;154;96;96;f;n;1;f;n;1759.4212999993033
6xza25#;125;False;2;P != T2?;ST2_high_3;2;Same;high;70;96;96;f;n;1;j;v;4684.466699998666
6xza25#;126;False;2;P != T1?;ST2_low_6;2;Same;low;154;96;96;f;n;0;j;n;568.1012999993982
6xza25#;127;False;2;P != T2?;ST2_high_2;2;Same;high;112;82;82;f;n;0;f;v;1281.1148000000685
6xza25#;128;False;2;P != T1?;STb_7;0;Same;None;154;154;154;f;n;1;j;n;421.1894999989454
6xza25#;129;False;2;P != T2?;ST1_low_4;1;Same;low;112;70;112;f;n;0;j;n;594.3224000002374
6xza25#;130;False;2;P != T1?;ST2_low_1;2;Same;low;82;132;132;f;n;0;j;n;655.1276999998663
6xza25#;131;False;2;P != T2?;ST2_low_1;2;Same;low;82;132;132;f;n;1;j;b;966.8602000001556
6xza25#;132;False;2;P != T1?;ST2_high_1;2;Same;high;82;112;112;f;n;0;j;v;1309.661600000254
6xza25#;133;False;2;P != T2?;ST2_high_4;2;Same;high;96;70;70;f;n;0;f;v;3708.6918000004516
6xza25#;134;False;2;P != T1?;ST1_high_6;1;Same;high;132;96;132;f;n;1;j;n;1004.6486999999615
6xza25#;135;False;2;P != T2?;ST2_high_1;2;Same;high;82;112;112;f;n;0;f;b;867.131299999528
6xza25#;136;False;2;P != T2?;STb_3;0;Same;None;82;82;82;f;n;0;f;b;1270.0924000000668
6xza25#;137;False;2;P != T1?;ST1_high_4;1;Same;high;96;70;96;f;n;1;j;n;1059.4927000001917
6xza25#;138;False;2;P != T1?;ST1_high_3;1;Same;high;70;96;70;f;n;1;j;b;1743.2102999991912
6xza25#;139;False;2;P != T2?;ST1_high_1;1;Same;high;82;112;82;f;n;0;j;v;1648.7938999998732
6xza25#;140;False;2;P != T2?;ST2_low_4;2;Same;low;112;70;70;f;n;1;j;n;2702.1456000002217
6xza25#;141;False;2;P != T1?;STb_5;0;Same;None;112;112;112;f;n;0;f;b;1017.1343999991223
6xza25#;142;False;2;P != T1?;DT2_low_1;2;Different;low;82;132;154;f;n;1;f;b;894.1787000003387
6xza25#;143;False;2;P != T1?;STb_2;0;Same;None;70;70;70;f;n;1;j;v;3937.3627999993914
6xza25#;144;False;2;P != T2?;DT1_low_1;1;Different;low;82;132;70;f;n;0;j;b;1025.091200001043
6xza25#;145;False;2;P != T2?;ST2_low_4;2;Same;low;112;70;70;f;n;0;f;b;1024.9869999988732
6xza25#;146;False;2;P != T2?;ST2_high_1;2;Same;high;82;112;112;f;n;1;j;b;2111.8840999988606
6xza25#;147;False;2;P != T1?;STb_8;0;Same;None;180;180;180;f;n;1;j;b;940.4711999995925
6xza25#;148;False;2;P != T1?;ST1_low_3;1;Same;low;70;112;70;f;n;1;j;n;1401.1460000001534
6xza25#;149;False;2;P != T2?;ST1_high_3;1;Same;high;70;96;70;f;n;0;j;b;1174.9724999990576
6xza25#;150;False;2;P != T2?;ST1_high_2;1;Same;high;112;82;112;f;n;1;f;v;2120.699400000376
6xza25#;151;False;2;P != T2?;ST1_high_3;1;Same;high;70;96;70;f;n;0;j;n;1089.2811999983678
6xza25#;152;False;2;P != T1?;ST1_high_3;1;Same;high;70;96;70;f;n;1;j;n;866.6246000011597
6xza25#;153;False;2;P != T2?;ST2_low_3;2;Same;low;70;112;112;f;n;0;f;b;996.1406000002171
6xza25#;154;False;2;P != T1?;ST2_low_1;2;Same;low;82;132;132;f;n;1;f;b;1456.6685000008874
6xza25#;155;False;2;P != T1?;ST1_low_5;1;Same;low;96;154;96;f;n;1;j;n;1393.1315999998333
6xza25#;156;False;2;P != T2?;STb_6;0;Same;None;132;132;132;f;n;0;f;v;946.7383000010159
6xza25#;157;False;2;P != T1?;ST2_high_3;2;Same;high;70;96;96;f;n;1;f;v;2100.1976000006835
6xza25#;158;False;2;P != T2?;ST2_high_4;2;Same;high;96;70;70;f;n;1;j;n;989.8587000006955
6xza25#;159;False;2;P != T2?;ST2_low_6;2;Same;low;154;96;96;f;n;1;j;v;4189.395000001241
6xza25#;160;False;2;P != T1?;ST1_high_1;1;Same;high;82;112;82;f;n;1;j;v;2718.3542999991914
6xza25#;161;False;2;P != T1?;ST2_low_1;2;Same;low;82;132;132;f;n;0;j;n;1163.9126999998552
6xza25#;162;False;2;P != T1?;ST1_high_4;1;Same;high;96;70;96;f;n;0;f;v;1516.6485999998258
6xza25#;163;False;2;P != T2?;ST2_high_5;2;Same;high;96;132;132;f;n;1;j;n;897.6632000012614
6xza25#;164;False;2;P != T2?;DT1_low_5;1;Different;low;96;154;82;f;n;1;f;n;815.5256999998528
6xza25#;165;False;2;P != T1?;ST2_high_6;2;Same;high;132;96;96;f;n;0;j;b;1115.8427999998821
6xza25#;166;False;2;P != T2?;ST1_low_1;1;Same;low;82;132;82;f;n;1;f;v;1298.4970999987127
6xza25#;167;False;2;P != T1?;ST1_high_1;1;Same;high;82;112;82;f;n;1;j;v;5289.451099999496
6xza25#;168;False;2;P != T2?;ST2_high_1;2;Same;high;82;112;112;f;n;1;j;v;3334.8138999990624
6xza25#;169;False;2;P != T1?;ST2_high_1;2;Same;high;82;112;112;f;n;0;j;b;2433.359200000268
6xza25#;170;False;2;P != T1?;STb_6;0;Same;None;132;132;132;f;n;1;j;n;380.9753000005003
6xza25#;171;False;2;P != T1?;STb_1;0;Same;None;60;60;60;f;n;1;j;n;666.5843000009772
6xza25#;172;False;2;P != T2?;ST1_low_2;1;Same;low;132;82;132;f;n;0;j;b;2378.8705999995727
6xza25#;173;False;2;P != T2?;ST1_low_6;1;Same;low;154;96;154;f;n;1;f;n;1067.5860999999713
6xza25#;174;False;2;P != T1?;ST2_high_2;2;Same;high;112;82;82;f;n;0;j;b;1326.182599999811
6xza25#;175;False;2;P != T1?;ST1_low_4;1;Same;low;112;70;112;f;n;1;j;b;4434.601500001008
6xza25#;176;False;2;P != T1?;ST2_low_4;2;Same;low;112;70;70;f;n;0;j;n;1143.8253999986046
