p_code;trial_nr;practice;block;question;condition;seqPos;Same_or_Diff;ITS;T1_hz;T2_hz;P_hz;yes_key;sure_key;correct;yes_no;rating;resp_time
tin740#;1;True;1;P != T1?;DT2_high_3;2;Different;high;70;96;112;j;v;0;f;n;3574.4902000005823
tin740#;2;True;1;P != T2?;ST2_high_6;2;Same;high;132;96;96;j;v;0;j;b;6026.065199999721
tin740#;3;True;1;P != T2?;ST1_high_3;1;Same;high;70;96;70;j;v;1;j;n;5764.641400004621
tin740#;4;True;1;P != T1?;ST1_high_5;1;Same;high;96;132;96;j;v;1;f;b;3201.4673000085168
tin740#;5;True;1;P != T1?;STb_1;0;Same;None;60;60;60;j;v;1;f;b;1886.4368999929866
tin740#;6;True;1;P != T2?;ST1_high_6;1;Same;high;132;96;132;j;v;0;f;b;2792.1170000045095
tin740#;7;True;1;P != T1?;DT2_low_4;2;Different;low;112;70;60;j;v;0;f;v;2574.6183000010205
tin740#;8;True;1;P != T1?;STb_6;0;Same;None;132;132;132;j;v;0;j;n;5496.884499996668
tin740#;9;True;1;P != T2?;STb_6;0;Same;None;132;132;132;j;v;1;f;b;2893.819799995981
tin740#;10;True;1;P != T1?;ST2_low_6;2;Same;low;154;96;96;j;v;0;f;b;2008.7539999949513
tin740#;11;True;1;P != T2?;DT2_high_6;2;Different;high;132;96;82;j;v;0;f;n;1979.8055999999633
tin740#;12;True;1;P != T2?;DT1_high_2;1;Different;high;112;82;132;j;v;1;j;n;1784.6701000089524
tin740#;13;True;1;P != T2?;STb_7;0;Same;None;154;154;154;j;v;1;f;b;1476.401200008695
tin740#;14;True;1;P != T1?;ST2_low_3;2;Same;low;70;112;112;j;v;0;f;n;1921.100600011414
tin740#;15;True;1;P != T2?;ST2_low_6;2;Same;low;154;96;96;j;v;0;j;n;1765.086200000951
tin740#;16;True;1;P != T1?;ST1_low_4;1;Same;low;112;70;112;j;v;0;j;n;1667.9069000092568
p_code;trial_nr;practice;block;question;condition;seqPos;Same_or_Diff;ITS;T1_hz;T2_hz;P_hz;yes_key;sure_key;correct;yes_no;rating;resp_time
tin740#;1;False;1;P != T2?;ST1_low_5;1;Same;low;96;154;96;j;v;0;f;n;1728.1621000001905
tin740#;2;False;1;P != T2?;ST2_high_3;2;Same;high;70;96;96;j;v;1;f;n;1977.9054000100587
tin740#;3;False;1;P != T2?;ST2_low_2;2;Same;low;132;82;82;j;v;0;j;n;2605.5143999983557
tin740#;4;False;1;P != T1?;ST1_low_3;1;Same;low;70;112;70;j;v;0;j;b;1738.1454999995185
tin740#;5;False;1;P != T2?;ST1_low_6;1;Same;low;154;96;154;j;v;0;f;n;1762.7995000075316
tin740#;6;False;1;P != T2?;DT1_low_4;1;Different;low;112;70;132;j;v;1;j;n;2580.9314000071026
tin740#;7;False;1;P != T1?;ST2_low_4;2;Same;low;112;70;70;j;v;1;j;n;2010.940699998173
tin740#;8;False;1;P != T2?;ST2_high_6;2;Same;high;132;96;96;j;v;0;j;b;1892.430100007914
tin740#;9;False;1;P != T1?;STb_8;0;Same;None;180;180;180;j;v;0;j;n;2030.1324000029126
tin740#;10;False;1;P != T1?;ST2_low_5;2;Same;low;96;154;154;j;v;0;f;b;1906.153700008872
tin740#;11;False;1;P != T2?;ST2_high_4;2;Same;high;96;70;70;j;v;1;f;n;1916.7597000050591
tin740#;12;False;1;P != T1?;ST2_high_1;2;Same;high;82;112;112;j;v;0;f;n;2523.351600000751
tin740#;13;False;1;P != T1?;ST2_high_4;2;Same;high;96;70;70;j;v;1;j;n;2082.0860999956494
tin740#;14;False;1;P != T1?;ST1_low_4;1;Same;low;112;70;112;j;v;0;j;n;1925.0986000115518
tin740#;15;False;1;P != T2?;ST1_high_2;1;Same;high;112;82;112;j;v;0;f;n;2325.4639000078896
tin740#;16;False;1;P != T1?;ST1_high_6;1;Same;high;132;96;132;j;v;1;f;n;3662.6417000079527
tin740#;17;False;1;P != T1?;ST2_high_4;2;Same;high;96;70;70;j;v;1;j;n;2563.9872000028845
tin740#;18;False;1;P != T2?;STb_2;0;Same;None;70;70;70;j;v;1;f;n;2250.823299997137
tin740#;19;False;1;P != T2?;ST1_high_4;1;Same;high;96;70;96;j;v;1;j;n;1675.7904999976745
tin740#;20;False;1;P != T2?;ST2_low_3;2;Same;low;70;112;112;j;v;1;f;b;2114.3081999907736
tin740#;21;False;1;P != T1?;ST1_high_4;1;Same;high;96;70;96;j;v;0;j;b;1254.4981999963056
tin740#;22;False;1;P != T1?;ST2_low_3;2;Same;low;70;112;112;j;v;1;j;n;1175.0516000029165
tin740#;23;False;1;P != T1?;ST2_low_4;2;Same;low;112;70;70;j;v;0;f;n;1330.956599995261
tin740#;24;False;1;P != T2?;ST2_low_6;2;Same;low;154;96;96;j;v;0;j;n;1692.3160000005737
tin740#;25;False;1;P != T1?;ST2_high_5;2;Same;high;96;132;132;j;v;0;f;b;1441.9263000017963
tin740#;26;False;1;P != T2?;ST1_low_2;1;Same;low;132;82;132;j;v;0;f;v;2022.8870999999344
tin740#;27;False;1;P != T1?;DT2_high_2;2;Different;high;112;82;70;j;v;1;j;n;1851.4367000025231
tin740#;28;False;1;P != T2?;ST2_low_6;2;Same;low;154;96;96;j;v;0;j;n;1285.6098000047496
tin740#;29;False;1;P != T2?;ST1_low_5;1;Same;low;96;154;96;j;v;0;f;n;1651.0845000011614
tin740#;30;False;1;P != T1?;ST1_high_3;1;Same;high;70;96;70;j;v;0;j;n;1841.3072999974247
tin740#;31;False;1;P != T2?;STb_8;0;Same;None;180;180;180;j;v;0;j;n;3329.411799990339
tin740#;32;False;1;P != T2?;ST1_high_3;1;Same;high;70;96;70;j;v;1;j;n;1592.2753000049852
tin740#;33;False;1;P != T2?;DT1_low_1;1;Different;low;82;132;70;j;v;0;f;b;1477.8924999991432
tin740#;34;False;1;P != T1?;ST1_low_6;1;Same;low;154;96;154;j;v;0;j;n;1484.9783000099706
tin740#;35;False;1;P != T1?;STb_2;0;Same;None;70;70;70;j;v;0;j;n;1164.8325999994995
tin740#;36;False;1;P != T2?;ST2_high_2;2;Same;high;112;82;82;j;v;1;f;n;1504.6158000041032
tin740#;37;False;1;P != T1?;STb_5;0;Same;None;112;112;112;j;v;0;j;n;1631.2825000059092
tin740#;38;False;1;P != T2?;ST2_high_2;2;Same;high;112;82;82;j;v;1;f;n;1432.1463000087533
tin740#;39;False;1;P != T2?;ST1_high_2;1;Same;high;112;82;112;j;v;1;j;n;827.7843999967445
tin740#;40;False;1;P != T1?;ST2_low_5;2;Same;low;96;154;154;j;v;0;f;b;1467.4524000001838
tin740#;41;False;1;P != T2?;ST2_high_5;2;Same;high;96;132;132;j;v;0;j;n;1054.3004000064684
tin740#;42;False;1;P != T2?;ST2_low_5;2;Same;low;96;154;154;j;v;0;j;b;758.0658999941079
tin740#;43;False;1;P != T1?;ST1_low_1;1;Same;low;82;132;82;j;v;0;j;n;2484.9900000117486
tin740#;44;False;1;P != T1?;ST2_high_5;2;Same;high;96;132;132;j;v;1;j;n;1153.0162999988534
tin740#;45;False;1;P != T2?;ST1_high_4;1;Same;high;96;70;96;j;v;1;j;n;803.7744999892311
tin740#;46;False;1;P != T1?;ST2_high_6;2;Same;high;132;96;96;j;v;1;j;n;1976.9397999916691
tin740#;47;False;1;P != T1?;ST2_low_1;2;Same;low;82;132;132;j;v;0;f;n;1224.314699997194
tin740#;48;False;1;P != T2?;ST2_low_1;2;Same;low;82;132;132;j;v;0;j;n;829.4936000020243
tin740#;49;False;1;P != T1?;ST2_low_6;2;Same;low;154;96;96;j;v;0;f;n;1376.9310000061523
tin740#;50;False;1;P != T1?;ST1_low_1;1;Same;low;82;132;82;j;v;0;j;n;2492.290199996205
tin740#;51;False;1;P != T2?;ST2_high_4;2;Same;high;96;70;70;j;v;1;f;n;1749.1643999965163
tin740#;52;False;1;P != T2?;STb_1;0;Same;None;60;60;60;j;v;0;j;n;680.5953000002773
tin740#;53;False;1;P != T1?;ST1_low_4;1;Same;low;112;70;112;j;v;0;j;b;1327.4627999926452
tin740#;54;False;1;P != T2?;STb_4;0;Same;None;96;96;96;j;v;0;j;n;1688.4209999989253
tin740#;55;False;1;P != T1?;ST2_high_3;2;Same;high;70;96;96;j;v;0;f;n;1987.756000002264
tin740#;56;False;1;P != T1?;ST2_low_3;2;Same;low;70;112;112;j;v;1;j;n;1576.5716999885626
tin740#;57;False;1;P != T1?;DT1_high_1;1;Different;high;82;112;70;j;v;1;j;n;1557.8130999929272
tin740#;58;False;1;P != T1?;ST2_low_6;2;Same;low;154;96;96;j;v;1;j;n;1042.8491000056965
tin740#;59;False;1;P != T2?;ST1_high_5;1;Same;high;96;132;96;j;v;1;j;n;1443.4349999937695
tin740#;60;False;1;P != T1?;ST2_low_4;2;Same;low;112;70;70;j;v;0;f;n;824.1114999982528
tin740#;61;False;1;P != T1?;STb_7;0;Same;None;154;154;154;j;v;0;j;b;790.9322999912547
tin740#;62;False;1;P != T2?;ST2_high_2;2;Same;high;112;82;82;j;v;1;f;n;2571.159200000693
tin740#;63;False;1;P != T1?;DT1_low_6;1;Different;low;154;96;180;j;v;0;f;n;1337.0183999941219
tin740#;64;False;1;P != T1?;ST1_low_1;1;Same;low;82;132;82;j;v;1;f;n;3003.591000000597
tin740#;65;False;1;P != T2?;ST1_low_6;1;Same;low;154;96;154;j;v;0;f;b;1238.8855000026524
tin740#;66;False;1;P != T1?;ST2_low_5;2;Same;low;96;154;154;j;v;0;f;b;1067.0683999924222
tin740#;67;False;1;P != T2?;ST1_high_1;1;Same;high;82;112;82;j;v;0;f;n;1103.4096000075806
tin740#;68;False;1;P != T1?;DT2_low_6;2;Different;low;154;96;82;j;v;0;f;n;1093.6953000054928
tin740#;69;False;1;P != T2?;ST2_high_3;2;Same;high;70;96;96;j;v;0;j;n;1127.9121999978088
tin740#;70;False;1;P != T2?;STb_7;0;Same;None;154;154;154;j;v;1;f;n;1176.0762000048999
tin740#;71;False;1;P != T1?;STb_3;0;Same;None;82;82;82;j;v;1;f;n;1969.4446999928914
tin740#;72;False;1;P != T2?;ST2_low_3;2;Same;low;70;112;112;j;v;0;j;n;1957.9302999918582
tin740#;73;False;1;P != T2?;ST1_low_2;1;Same;low;132;82;132;j;v;0;f;n;1103.161999999429
tin740#;74;False;1;P != T1?;ST1_low_2;1;Same;low;132;82;132;j;v;0;j;n;993.516799993813
tin740#;75;False;1;P != T1?;ST2_high_4;2;Same;high;96;70;70;j;v;0;f;n;1520.4271000111476
tin740#;76;False;1;P != T2?;ST2_high_1;2;Same;high;82;112;112;j;v;1;f;n;1212.1637999953236
tin740#;77;False;1;P != T1?;ST1_high_1;1;Same;high;82;112;82;j;v;0;j;n;896.2207000004128
tin740#;78;False;1;P != T2?;ST1_low_4;1;Same;low;112;70;112;j;v;1;j;n;1672.8694000048563
tin740#;79;False;1;P != T1?;ST2_low_1;2;Same;low;82;132;132;j;v;1;j;n;1148.5418999945978
tin740#;80;False;1;P != T2?;ST2_low_4;2;Same;low;112;70;70;j;v;0;j;n;869.0430999995442
tin740#;81;False;1;P != T2?;ST2_high_1;2;Same;high;82;112;112;j;v;0;j;n;1042.6627999986522
tin740#;82;False;1;P != T1?;ST2_high_6;2;Same;high;132;96;96;j;v;1;j;n;1288.8447000004817
tin740#;83;False;1;P != T2?;ST1_high_1;1;Same;high;82;112;82;j;v;0;f;n;1093.1953999970574
tin740#;84;False;1;P != T2?;ST1_low_1;1;Same;low;82;132;82;j;v;0;f;n;1082.9768999974476
tin740#;85;False;1;P != T1?;ST1_high_5;1;Same;high;96;132;96;j;v;1;f;n;4012.4620999995386
tin740#;86;False;1;P != T1?;ST2_high_3;2;Same;high;70;96;96;j;v;0;f;n;952.749699994456
tin740#;87;False;1;P != T2?;STb_5;0;Same;None;112;112;112;j;v;0;j;n;840.8412999997381
tin740#;88;False;1;P != T2?;ST2_high_6;2;Same;high;132;96;96;j;v;0;j;n;830.7345000066562
tin740#;89;False;1;P != T1?;ST1_low_6;1;Same;low;154;96;154;j;v;0;j;n;917.5124000030337
tin740#;90;False;1;P != T1?;ST1_high_6;1;Same;high;132;96;132;j;v;1;f;n;1839.2067000095267
tin740#;91;False;1;P != T1?;DT1_high_6;1;Different;high;132;96;154;j;v;0;f;n;890.5837000056636
tin740#;92;False;1;P != T2?;STb_6;0;Same;None;132;132;132;j;v;0;j;n;1657.3108000011416
tin740#;93;False;1;P != T2?;ST1_high_6;1;Same;high;132;96;132;j;v;0;f;n;934.0057999943383
tin740#;94;False;1;P != T2?;ST2_low_1;2;Same;low;82;132;132;j;v;0;j;n;892.1831999905407
tin740#;95;False;1;P != T2?;ST2_low_1;2;Same;low;82;132;132;j;v;0;j;n;761.9643999933032
tin740#;96;False;1;P != T1?;ST2_low_2;2;Same;low;132;82;82;j;v;0;f;n;816.2263999984134
tin740#;97;False;1;P != T2?;ST2_high_6;2;Same;high;132;96;96;j;v;0;j;n;797.8283000120427
tin740#;98;False;1;P != T1?;ST1_high_6;1;Same;high;132;96;132;j;v;1;f;n;794.4310000020778
tin740#;99;False;1;P != T2?;ST2_low_2;2;Same;low;132;82;82;j;v;1;f;n;1145.9678000101121
tin740#;100;False;1;P != T2?;ST1_low_1;1;Same;low;82;132;82;j;v;1;j;n;2109.0722999942955
tin740#;101;False;1;P != T2?;DT2_high_5;2;Different;high;96;132;154;j;v;0;f;n;926.5825000038603
tin740#;102;False;1;P != T2?;ST1_high_3;1;Same;high;70;96;70;j;v;0;f;n;1503.0795999919064
tin740#;103;False;1;P != T2?;ST1_low_6;1;Same;low;154;96;154;j;v;0;f;n;1140.8394000027329
tin740#;104;False;1;P != T1?;ST2_high_1;2;Same;high;82;112;112;j;v;0;f;n;1107.3736999969697
tin740#;105;False;1;P != T2?;DT1_high_3;1;Different;high;70;96;60;j;v;1;j;n;1213.0547999986447
tin740#;106;False;1;P != T2?;DT2_high_6;2;Different;high;132;96;82;j;v;1;j;n;764.8177999944892
tin740#;107;False;1;P != T1?;ST2_low_1;2;Same;low;82;132;132;j;v;0;f;n;1033.8848999963375
tin740#;108;False;1;P != T1?;ST2_high_2;2;Same;high;112;82;82;j;v;0;f;n;890.8959000109462
tin740#;109;False;1;P != T2?;ST1_low_3;1;Same;low;70;112;70;j;v;1;j;n;684.5883000059985
tin740#;110;False;1;P != T1?;ST2_high_1;2;Same;high;82;112;112;j;v;0;f;n;1024.5321999973385
tin740#;111;False;1;P != T1?;ST1_low_6;1;Same;low;154;96;154;j;v;0;j;n;746.5893999906257
tin740#;112;False;1;P != T1?;ST1_high_2;1;Same;high;112;82;112;j;v;1;f;n;1764.5407000090927
tin740#;113;False;1;P != T2?;ST2_low_5;2;Same;low;96;154;154;j;v;0;j;n;735.6871000083629
tin740#;114;False;1;P != T2?;STb_3;0;Same;None;82;82;82;j;v;1;f;n;1136.9143000047188
tin740#;115;False;1;P != T2?;ST2_high_1;2;Same;high;82;112;112;j;v;0;j;n;690.4346999945119
tin740#;116;False;1;P != T2?;ST2_high_3;2;Same;high;70;96;96;j;v;1;f;n;910.9121999936178
tin740#;117;False;1;P != T2?;ST1_high_3;1;Same;high;70;96;70;j;v;1;j;n;1042.6753999927314
tin740#;118;False;1;P != T2?;ST1_high_5;1;Same;high;96;132;96;j;v;0;f;n;998.8101999915671
tin740#;119;False;1;P != T2?;ST2_low_5;2;Same;low;96;154;154;j;v;0;j;n;539.48870000022
tin740#;120;False;1;P != T2?;ST2_low_3;2;Same;low;70;112;112;j;v;1;f;n;933.4951000055298
tin740#;121;False;1;P != T1?;ST1_low_5;1;Same;low;96;154;96;j;v;0;j;n;1184.2552999878535
tin740#;122;False;1;P != T2?;ST1_high_6;1;Same;high;132;96;132;j;v;0;f;n;1079.816999990726
tin740#;123;False;1;P != T2?;ST1_high_5;1;Same;high;96;132;96;j;v;0;f;n;1715.6623000046238
tin740#;124;False;1;P != T1?;ST1_high_2;1;Same;high;112;82;112;j;v;0;j;n;1380.6207000016002
tin740#;125;False;1;P != T1?;DT1_high_5;1;Different;high;96;132;82;j;v;1;j;n;7772.754999998142
tin740#;126;False;1;P != T1?;ST2_low_6;2;Same;low;154;96;96;j;v;1;j;n;880.8868000051007
tin740#;127;False;1;P != T2?;ST2_high_4;2;Same;high;96;70;70;j;v;1;f;n;1194.006099991384
tin740#;128;False;1;P != T1?;STb_4;0;Same;None;96;96;96;j;v;1;f;n;1577.2135000006529
tin740#;129;False;1;P != T1?;ST2_high_3;2;Same;high;70;96;96;j;v;0;f;n;1222.5603999977466
tin740#;130;False;1;P != T2?;ST2_low_4;2;Same;low;112;70;70;j;v;1;f;n;761.6318000073079
tin740#;131;False;1;P != T1?;ST1_high_4;1;Same;high;96;70;96;j;v;1;f;n;1208.4390000090934
tin740#;132;False;1;P != T2?;ST1_low_1;1;Same;low;82;132;82;j;v;0;f;n;854.7560000006342
tin740#;133;False;1;P != T2?;ST1_low_3;1;Same;low;70;112;70;j;v;0;f;n;985.031500007608
tin740#;134;False;1;P != T2?;ST2_high_5;2;Same;high;96;132;132;j;v;1;f;n;1272.4487999948906
tin740#;135;False;1;P != T2?;ST1_low_4;1;Same;low;112;70;112;j;v;1;j;n;1533.7902000028407
tin740#;136;False;1;P != T1?;DT1_high_4;1;Different;high;96;70;112;j;v;0;f;n;1659.683000005316
tin740#;137;False;1;P != T1?;ST2_low_2;2;Same;low;132;82;82;j;v;1;j;n;1502.5852000107989
tin740#;138;False;1;P != T2?;ST2_low_2;2;Same;low;132;82;82;j;v;0;j;n;805.605799992918
tin740#;139;False;1;P != T2?;DT2_low_5;2;Different;low;96;154;180;j;v;0;f;n;1160.879200004274
tin740#;140;False;1;P != T2?;ST2_high_5;2;Same;high;96;132;132;j;v;0;j;n;994.014399999287
tin740#;141;False;1;P != T1?;ST2_high_6;2;Same;high;132;96;96;j;v;0;f;n;2968.0756000016117
tin740#;142;False;1;P != T2?;ST2_low_4;2;Same;low;112;70;70;j;v;0;j;n;410.8712999877753
tin740#;143;False;1;P != T1?;ST1_high_4;1;Same;high;96;70;96;j;v;1;f;n;1682.2928000037791
tin740#;144;False;1;P != T1?;ST1_low_2;1;Same;low;132;82;132;j;v;0;j;n;2173.9844999974594
tin740#;145;False;1;P != T1?;ST1_low_3;1;Same;low;70;112;70;j;v;1;f;n;917.4693000095431
tin740#;146;False;1;P != T2?;ST1_high_2;1;Same;high;112;82;112;j;v;1;j;n;1160.6288000039058
tin740#;147;False;1;P != T1?;ST1_high_2;1;Same;high;112;82;112;j;v;1;f;n;1007.869799999753
tin740#;148;False;1;P != T2?;ST1_high_1;1;Same;high;82;112;82;j;v;1;j;n;1089.4777000066824
tin740#;149;False;1;P != T1?;ST1_low_5;1;Same;low;96;154;96;j;v;0;j;n;1412.963700000546
tin740#;150;False;1;P != T1?;ST2_high_5;2;Same;high;96;132;132;j;v;0;f;n;1222.524600001634
tin740#;151;False;1;P != T1?;ST2_high_2;2;Same;high;112;82;82;j;v;0;f;n;1133.4195000090403
tin740#;152;False;1;P != T2?;ST1_low_4;1;Same;low;112;70;112;j;v;0;f;n;1049.9875999958022
tin740#;153;False;1;P != T2?;ST2_low_6;2;Same;low;154;96;96;j;v;0;j;n;886.8590000056429
tin740#;154;False;1;P != T2?;ST1_low_3;1;Same;low;70;112;70;j;v;0;f;n;886.8920000095386
tin740#;155;False;1;P != T1?;ST1_high_5;1;Same;high;96;132;96;j;v;0;j;n;1033.6490999907255
tin740#;156;False;1;P != T1?;ST1_low_2;1;Same;low;132;82;132;j;v;1;f;n;1444.6641000104137
tin740#;157;False;1;P != T1?;ST1_high_5;1;Same;high;96;132;96;j;v;1;f;n;1148.1241000001319
tin740#;158;False;1;P != T2?;DT1_low_2;1;Different;low;132;82;154;j;v;0;f;n;1298.9890000026207
tin740#;159;False;1;P != T1?;ST1_high_1;1;Same;high;82;112;82;j;v;0;j;n;2070.0225999898976
tin740#;160;False;1;P != T1?;STb_6;0;Same;None;132;132;132;j;v;1;f;n;3506.0365999961505
tin740#;161;False;1;P != T1?;ST2_low_2;2;Same;low;132;82;82;j;v;1;j;n;678.5443999979179
tin740#;162;False;1;P != T1?;ST1_high_3;1;Same;high;70;96;70;j;v;0;j;n;2269.0678000071784
tin740#;163;False;1;P != T1?;ST1_low_4;1;Same;low;112;70;112;j;v;1;f;n;1063.063499997952
tin740#;164;False;1;P != T1?;ST1_low_5;1;Same;low;96;154;96;j;v;1;f;n;2315.883400005987
tin740#;165;False;1;P != T1?;DT2_low_5;2;Different;low;96;154;180;j;v;0;f;n;957.8244000003906
tin740#;166;False;1;P != T2?;ST1_low_2;1;Same;low;132;82;132;j;v;0;f;n;1104.029800000717
tin740#;167;False;1;P != T1?;STb_1;0;Same;None;60;60;60;j;v;1;f;n;975.7175000122515
tin740#;168;False;1;P != T2?;ST1_high_4;1;Same;high;96;70;96;j;v;1;j;n;762.7104999992298
tin740#;169;False;1;P != T1?;ST2_low_3;2;Same;low;70;112;112;j;v;0;f;n;886.9620000041323
tin740#;170;False;1;P != T1?;ST1_low_3;1;Same;low;70;112;70;j;v;0;j;n;1120.0496000092244
tin740#;171;False;1;P != T1?;ST2_high_2;2;Same;high;112;82;82;j;v;1;j;n;1066.998299997067
tin740#;172;False;1;P != T2?;ST1_low_5;1;Same;low;96;154;96;j;v;0;f;n;755.0119999941671
tin740#;173;False;1;P != T2?;ST1_high_6;1;Same;high;132;96;132;j;v;0;f;n;1049.1234999935841
tin740#;174;False;1;P != T1?;ST1_high_3;1;Same;high;70;96;70;j;v;0;j;n;922.8464999905555
tin740#;175;False;1;P != T2?;DT1_high_6;1;Different;high;132;96;154;j;v;0;f;n;1072.0900000014808
tin740#;176;False;1;P != T1?;ST1_high_1;1;Same;high;82;112;82;j;v;0;j;n;839.1092999954708
tin740#;1;True;2;P = T1?;STb_7;0;Same;None;154;154;154;j;v;0;f;n;2582.6263000053586
tin740#;2;True;2;P = T2?;ST2_high_5;2;Same;high;96;132;132;j;v;1;j;n;3924.7633000049973
tin740#;3;True;2;P = T2?;DT1_low_5;1;Different;low;96;154;82;j;v;1;f;n;1169.9212999956217
tin740#;4;True;2;P = T2?;ST1_low_4;1;Same;low;112;70;112;j;v;0;j;n;1705.83120000083
tin740#;5;True;2;P = T1?;ST1_low_6;1;Same;low;154;96;154;j;v;1;j;n;952.8811000054702
tin740#;6;True;2;P = T1?;ST1_high_5;1;Same;high;96;132;96;j;v;1;j;n;944.1531999909785
tin740#;7;True;2;P = T2?;STb_5;0;Same;None;112;112;112;j;v;1;j;n;741.2344000040321
tin740#;8;True;2;P = T1?;STb_1;0;Same;None;60;60;60;j;v;1;j;n;989.3503000057535
tin740#;9;True;2;P = T1?;ST2_low_1;2;Same;low;82;132;132;j;v;1;f;n;841.9944999914151
tin740#;10;True;2;P = T2?;STb_2;0;Same;None;70;70;70;j;v;1;j;n;658.4053999977186
tin740#;11;True;2;P = T1?;DT1_low_3;1;Different;low;70;112;60;j;v;0;j;n;745.8769000077154
tin740#;12;True;2;P = T2?;ST2_low_6;2;Same;low;154;96;96;j;v;1;j;n;769.8171000083676
tin740#;13;True;2;P = T1?;DT2_high_4;2;Different;high;96;70;60;j;v;1;f;n;1314.3676000036066
tin740#;14;True;2;P = T2?;ST1_high_3;1;Same;high;70;96;70;j;v;0;j;n;1635.5743000021903
tin740#;15;True;2;P = T1?;ST2_low_3;2;Same;low;70;112;112;j;v;1;f;n;922.20489999454
tin740#;16;True;2;P = T2?;DT2_high_6;2;Different;high;132;96;82;j;v;0;j;n;1459.242600001744
tin740#;1;False;2;P = T2?;ST1_high_2;1;Same;high;112;82;112;j;v;1;f;n;1461.6494000074454
tin740#;2;False;2;P = T2?;ST2_low_5;2;Same;low;96;154;154;j;v;1;j;n;821.4478000008967
tin740#;3;False;2;P = T2?;STb_8;0;Same;None;180;180;180;j;v;1;j;n;988.4252000047127
tin740#;4;False;2;P = T2?;ST2_high_2;2;Same;high;112;82;82;j;v;0;f;n;798.6242999904789
tin740#;5;False;2;P = T2?;DT2_low_5;2;Different;low;96;154;180;j;v;0;j;n;783.6884999996983
tin740#;6;False;2;P = T2?;ST1_low_5;1;Same;low;96;154;96;j;v;1;f;n;914.1680999891832
tin740#;7;False;2;P = T1?;ST1_low_4;1;Same;low;112;70;112;j;v;0;f;n;1102.0104000053834
tin740#;8;False;2;P = T1?;DT1_low_1;1;Different;low;82;132;70;j;v;1;f;n;907.7080999995815
tin740#;9;False;2;P = T1?;ST2_low_4;2;Same;low;112;70;70;j;v;1;f;n;887.6789000059944
tin740#;10;False;2;P = T2?;ST2_high_4;2;Same;high;96;70;70;j;v;1;j;n;922.8359999979148
tin740#;11;False;2;P = T2?;ST1_low_1;1;Same;low;82;132;82;j;v;1;f;n;1215.4650000011316
tin740#;12;False;2;P = T2?;ST1_low_2;1;Same;low;132;82;132;j;v;1;f;b;961.938000007649
tin740#;13;False;2;P = T1?;ST2_low_5;2;Same;low;96;154;154;j;v;1;f;b;1184.8728000040865
tin740#;14;False;2;P = T2?;ST2_high_1;2;Same;high;82;112;112;j;v;1;j;n;1128.911000007065
tin740#;15;False;2;P = T1?;STb_4;0;Same;None;96;96;96;j;v;1;j;n;947.1702000009827
tin740#;16;False;2;P = T2?;ST1_low_3;1;Same;low;70;112;70;j;v;1;f;n;1097.1933999971952
tin740#;17;False;2;P = T2?;ST1_low_1;1;Same;low;82;132;82;j;v;1;f;b;929.5354999921983
tin740#;18;False;2;P = T1?;DT1_high_3;1;Different;high;70;96;60;j;v;0;j;n;867.5609999918379
tin740#;19;False;2;P = T2?;STb_7;0;Same;None;154;154;154;j;v;1;j;n;860.9253999893554
tin740#;20;False;2;P = T1?;ST1_low_6;1;Same;low;154;96;154;j;v;1;j;n;1028.3108000003267
tin740#;21;False;2;P = T2?;ST2_high_4;2;Same;high;96;70;70;j;v;1;j;n;721.7303000070387
tin740#;22;False;2;P = T2?;STb_6;0;Same;None;132;132;132;j;v;0;f;n;827.9285000025993
tin740#;23;False;2;P = T1?;DT1_low_4;1;Different;low;112;70;132;j;v;0;j;n;633.2481999997981
tin740#;24;False;2;P = T2?;DT1_low_4;1;Different;low;112;70;132;j;v;1;f;n;763.9169000030961
tin740#;25;False;2;P = T1?;ST1_high_2;1;Same;high;112;82;112;j;v;0;f;n;747.3637999937637
tin740#;26;False;2;P = T2?;ST2_high_6;2;Same;high;132;96;96;j;v;1;j;n;839.4056999968598
tin740#;27;False;2;P = T2?;ST2_low_2;2;Same;low;132;82;82;j;v;1;j;n;818.1712000077823
tin740#;28;False;2;P = T2?;ST2_high_5;2;Same;high;96;132;132;j;v;1;j;n;826.2544000026537
tin740#;29;False;2;P = T1?;ST2_low_3;2;Same;low;70;112;112;j;v;1;f;n;887.2369000018807
tin740#;30;False;2;P = T1?;ST1_low_1;1;Same;low;82;132;82;j;v;1;j;n;1091.49890000117
tin740#;31;False;2;P = T2?;ST1_low_5;1;Same;low;96;154;96;j;v;1;f;b;795.3696999902604
tin740#;32;False;2;P = T1?;ST2_low_3;2;Same;low;70;112;112;j;v;1;f;n;1022.717100000591
tin740#;33;False;2;P = T2?;ST1_high_3;1;Same;high;70;96;70;j;v;0;j;n;1191.1882999993395
tin740#;34;False;2;P = T1?;DT2_low_3;2;Different;low;70;112;132;j;v;1;f;n;1061.0291000048164
tin740#;35;False;2;P = T1?;ST2_high_3;2;Same;high;70;96;96;j;v;0;j;n;1157.6887000119314
tin740#;36;False;2;P = T2?;DT1_high_3;1;Different;high;70;96;60;j;v;0;j;n;1132.704100004048
tin740#;37;False;2;P = T1?;ST1_high_4;1;Same;high;96;70;96;j;v;1;j;n;1147.4742999998853
tin740#;38;False;2;P = T2?;ST1_high_4;1;Same;high;96;70;96;j;v;1;f;n;881.4494000107516
tin740#;39;False;2;P = T2?;ST1_high_6;1;Same;high;132;96;132;j;v;1;f;n;912.723300003563
tin740#;40;False;2;P = T1?;ST2_low_1;2;Same;low;82;132;132;j;v;1;f;n;1290.568099997472
tin740#;41;False;2;P = T1?;ST1_low_3;1;Same;low;70;112;70;j;v;1;j;n;1070.5995000025723
tin740#;42;False;2;P = T1?;ST1_high_4;1;Same;high;96;70;96;j;v;0;f;n;1590.8936000050744
tin740#;43;False;2;P = T1?;ST2_high_2;2;Same;high;112;82;82;j;v;0;j;n;1935.3693000011845
tin740#;44;False;2;P = T2?;ST2_low_1;2;Same;low;82;132;132;j;v;1;j;n;880.3967999992892
tin740#;45;False;2;P = T1?;ST1_high_6;1;Same;high;132;96;132;j;v;1;j;n;867.9272000008496
tin740#;46;False;2;P = T2?;ST2_high_4;2;Same;high;96;70;70;j;v;0;f;n;2075.8792999986326
tin740#;47;False;2;P = T2?;STb_3;0;Same;None;82;82;82;j;v;0;f;n;1320.7616999861784
tin740#;48;False;2;P = T2?;ST2_low_5;2;Same;low;96;154;154;j;v;1;j;n;890.778600005433
tin740#;49;False;2;P = T2?;DT1_low_5;1;Different;low;96;154;82;j;v;0;j;n;2337.31020000414
tin740#;50;False;2;P = T2?;STb_1;0;Same;None;60;60;60;j;v;1;j;n;19.234099992900155
tin740#;51;False;2;P = T2?;DT2_low_4;2;Different;low;112;70;60;j;v;0;j;n;958.7092000001576
tin740#;52;False;2;P = T1?;ST1_high_5;1;Same;high;96;132;96;j;v;1;j;n;959.6612000023015
tin740#;53;False;2;P = T1?;ST2_high_4;2;Same;high;96;70;70;j;v;0;j;n;927.3054000077536
tin740#;54;False;2;P = T1?;ST1_low_2;1;Same;low;132;82;132;j;v;1;j;n;977.5755999871762
tin740#;55;False;2;P = T2?;ST2_high_2;2;Same;high;112;82;82;j;v;1;j;n;1811.9010000082199
tin740#;56;False;2;P = T2?;ST2_low_6;2;Same;low;154;96;96;j;v;1;j;n;1029.9766000098316
tin740#;57;False;2;P = T1?;STb_2;0;Same;None;70;70;70;j;v;1;j;n;944.634400002542
tin740#;58;False;2;P = T1?;DT1_low_6;1;Different;low;154;96;180;j;v;0;j;n;862.1064000035403
tin740#;59;False;2;P = T1?;ST1_high_1;1;Same;high;82;112;82;j;v;1;j;n;860.5813000031048
tin740#;60;False;2;P = T2?;ST2_low_2;2;Same;low;132;82;82;j;v;1;j;n;707.527000005939
tin740#;61;False;2;P = T2?;ST1_low_6;1;Same;low;154;96;154;j;v;1;f;n;2331.8590999988373
tin740#;62;False;2;P = T1?;ST2_low_6;2;Same;low;154;96;96;j;v;1;f;n;887.6598000060767
tin740#;63;False;2;P = T1?;ST1_low_5;1;Same;low;96;154;96;j;v;0;f;n;881.1016000108793
tin740#;64;False;2;P = T1?;DT2_low_1;2;Different;low;82;132;154;j;v;1;f;n;875.8432999893557
tin740#;65;False;2;P = T1?;ST2_low_5;2;Same;low;96;154;154;j;v;1;f;n;1121.286900000996
tin740#;66;False;2;P = T2?;ST1_high_3;1;Same;high;70;96;70;j;v;0;j;n;626.7212999955518
tin740#;67;False;2;P = T2?;ST1_high_4;1;Same;high;96;70;96;j;v;0;j;n;1592.2074999980396
tin740#;68;False;2;P = T2?;ST2_low_4;2;Same;low;112;70;70;j;v;0;f;n;992.8369999979623
tin740#;69;False;2;P = T1?;ST2_high_1;2;Same;high;82;112;112;j;v;1;f;n;857.1855000045616
tin740#;70;False;2;P = T1?;ST2_high_6;2;Same;high;132;96;96;j;v;1;f;n;1096.8069000082323
tin740#;71;False;2;P = T2?;ST1_low_3;1;Same;low;70;112;70;j;v;0;j;n;853.217299998505
tin740#;72;False;2;P = T1?;ST1_high_2;1;Same;high;112;82;112;j;v;0;f;n;1816.231599994353
tin740#;73;False;2;P = T1?;ST2_high_1;2;Same;high;82;112;112;j;v;0;j;n;1381.716600008076
tin740#;74;False;2;P = T2?;ST2_high_3;2;Same;high;70;96;96;j;v;0;f;n;1330.585699994117
tin740#;75;False;2;P = T1?;ST1_high_2;1;Same;high;112;82;112;j;v;1;j;n;1492.375500005437
tin740#;76;False;2;P = T1?;ST2_high_5;2;Same;high;96;132;132;j;v;1;f;n;826.5585000044666
tin740#;77;False;2;P = T1?;STb_1;0;Same;None;60;60;60;j;v;1;j;n;951.8379000073764
tin740#;78;False;2;P = T2?;ST2_low_3;2;Same;low;70;112;112;j;v;1;j;n;1151.1972000007518
tin740#;79;False;2;P = T2?;ST1_low_4;1;Same;low;112;70;112;j;v;1;f;n;931.3259000045946
tin740#;80;False;2;P = T2?;ST1_high_5;1;Same;high;96;132;96;j;v;1;f;n;835.2876999997534
tin740#;81;False;2;P = T2?;DT2_high_2;2;Different;high;112;82;70;j;v;0;j;n;460.4003999993438
tin740#;82;False;2;P = T1?;STb_6;0;Same;None;132;132;132;j;v;1;j;n;870.814199995948
tin740#;83;False;2;P = T2?;ST2_high_5;2;Same;high;96;132;132;j;v;0;f;n;1325.9232999989763
tin740#;84;False;2;P = T2?;ST1_high_1;1;Same;high;82;112;82;j;v;0;j;n;1174.675100002787
tin740#;85;False;2;P = T1?;DT1_high_5;1;Different;high;96;132;82;j;v;0;j;n;918.3168000017758
tin740#;86;False;2;P = T2?;ST2_high_1;2;Same;high;82;112;112;j;v;0;f;n;1289.7329999977956
tin740#;87;False;2;P = T1?;ST1_low_2;1;Same;low;132;82;132;j;v;1;j;n;806.8060999939917
tin740#;88;False;2;P = T2?;DT1_low_2;1;Different;low;132;82;154;j;v;1;f;n;811.9729000027291
tin740#;89;False;2;P = T1?;ST2_high_6;2;Same;high;132;96;96;j;v;1;f;n;936.7415000015171
tin740#;90;False;2;P = T2?;ST1_low_1;1;Same;low;82;132;82;j;v;1;f;n;846.2627999979304
tin740#;91;False;2;P = T1?;STb_7;0;Same;None;154;154;154;j;v;1;j;n;728.4864999965066
tin740#;92;False;2;P = T2?;ST1_low_3;1;Same;low;70;112;70;j;v;1;f;n;857.4540999979945
tin740#;93;False;2;P = T2?;ST2_high_1;2;Same;high;82;112;112;j;v;0;f;n;1371.1214999930235
tin740#;94;False;2;P = T2?;ST1_low_5;1;Same;low;96;154;96;j;v;1;f;n;895.6906000094023
tin740#;95;False;2;P = T1?;ST1_high_5;1;Same;high;96;132;96;j;v;1;j;n;1117.9909000056796
tin740#;96;False;2;P = T1?;ST2_low_1;2;Same;low;82;132;132;j;v;1;f;n;858.5023000050569
tin740#;97;False;2;P = T2?;ST2_low_1;2;Same;low;82;132;132;j;v;1;j;n;1201.185899990378
tin740#;98;False;2;P = T1?;ST1_high_6;1;Same;high;132;96;132;j;v;0;f;n;872.9653999907896
tin740#;99;False;2;P = T2?;ST2_high_3;2;Same;high;70;96;96;j;v;0;f;n;1180.2488999965135
tin740#;100;False;2;P = T1?;DT2_high_3;2;Different;high;70;96;112;j;v;1;f;n;1436.5948000049684
tin740#;101;False;2;P = T1?;ST2_high_1;2;Same;high;82;112;112;j;v;1;f;n;1249.6721999923466
tin740#;102;False;2;P = T1?;ST1_low_1;1;Same;low;82;132;82;j;v;1;j;n;819.0590999874985
tin740#;103;False;2;P = T2?;ST2_low_4;2;Same;low;112;70;70;j;v;1;j;n;881.5756999974838
tin740#;104;False;2;P = T2?;ST1_high_2;1;Same;high;112;82;112;j;v;0;j;n;981.1914000019897
tin740#;105;False;2;P = T1?;ST1_high_3;1;Same;high;70;96;70;j;v;1;j;n;1170.2955999935511
tin740#;106;False;2;P = T2?;ST2_high_5;2;Same;high;96;132;132;j;v;1;j;n;692.2258999984479
tin740#;107;False;2;P = T2?;ST1_high_6;1;Same;high;132;96;132;j;v;1;f;n;1014.2107000137912
tin740#;108;False;2;P = T2?;ST1_high_5;1;Same;high;96;132;96;j;v;0;j;n;1861.4086999878054
tin740#;109;False;2;P = T1?;ST1_low_1;1;Same;low;82;132;82;j;v;0;f;n;1011.4709000044968
tin740#;110;False;2;P = T1?;ST2_high_2;2;Same;high;112;82;82;j;v;0;j;n;879.4310000084806
tin740#;111;False;2;P = T1?;ST2_low_5;2;Same;low;96;154;154;j;v;1;f;n;1707.746699990821
tin740#;112;False;2;P = T2?;ST1_low_2;1;Same;low;132;82;132;j;v;1;f;n;816.5540999907535
tin740#;113;False;2;P = T1?;ST2_high_4;2;Same;high;96;70;70;j;v;0;j;n;745.3683999920031
tin740#;114;False;2;P = T1?;ST1_low_5;1;Same;low;96;154;96;j;v;1;j;n;782.2980000055395
tin740#;115;False;2;P = T1?;ST2_low_4;2;Same;low;112;70;70;j;v;1;f;n;902.7255999972112
tin740#;116;False;2;P = T1?;ST2_low_2;2;Same;low;132;82;82;j;v;0;j;n;927.9967999900691
tin740#;117;False;2;P = T2?;ST1_high_2;1;Same;high;112;82;112;j;v;1;f;n;1036.5296999952989
tin740#;118;False;2;P = T1?;ST2_low_6;2;Same;low;154;96;96;j;v;1;f;n;975.2370000060182
tin740#;119;False;2;P = T1?;ST1_low_2;1;Same;low;132;82;132;j;v;1;j;n;1458.9348000008613
tin740#;120;False;2;P = T2?;ST1_low_6;1;Same;low;154;96;154;j;v;1;f;n;1237.1009000053164
tin740#;121;False;2;P = T1?;ST1_high_4;1;Same;high;96;70;96;j;v;1;j;n;1201.4019999915035
tin740#;122;False;2;P = T2?;ST2_high_6;2;Same;high;132;96;96;j;v;1;j;n;787.7423000027193
tin740#;123;False;2;P = T2?;ST2_low_3;2;Same;low;70;112;112;j;v;1;j;n;722.1492999960901
tin740#;124;False;2;P = T2?;ST1_high_4;1;Same;high;96;70;96;j;v;1;f;n;955.9905000060098
tin740#;125;False;2;P = T2?;ST1_high_1;1;Same;high;82;112;82;j;v;1;f;n;2134.60849999683
tin740#;126;False;2;P = T2?;ST1_high_3;1;Same;high;70;96;70;j;v;0;j;n;607.6157999923453
tin740#;127;False;2;P = T1?;ST1_high_1;1;Same;high;82;112;82;j;v;1;j;n;743.6146999971243
tin740#;128;False;2;P = T1?;ST2_high_2;2;Same;high;112;82;82;j;v;1;f;n;884.4248999957927
tin740#;129;False;2;P = T2?;ST1_low_4;1;Same;low;112;70;112;j;v;1;f;n;916.7669000016758
tin740#;130;False;2;P = T2?;ST2_high_2;2;Same;high;112;82;82;j;v;1;j;n;846.5987999952631
tin740#;131;False;2;P = T1?;ST1_low_5;1;Same;low;96;154;96;j;v;1;j;n;898.5973000089871
tin740#;132;False;2;P = T1?;ST1_high_3;1;Same;high;70;96;70;j;v;1;j;n;4247.73569998797
tin740#;133;False;2;P = T2?;ST2_low_3;2;Same;low;70;112;112;j;v;0;f;n;932.5503000000026
tin740#;134;False;2;P = T2?;ST1_low_4;1;Same;low;112;70;112;j;v;0;j;n;714.7215000004508
tin740#;135;False;2;P = T2?;DT1_high_2;1;Different;high;112;82;132;j;v;1;f;n;1165.9087000007275
tin740#;136;False;2;P = T1?;ST2_low_1;2;Same;low;82;132;132;j;v;1;f;n;1043.2261999958428
tin740#;137;False;2;P = T2?;ST1_low_2;1;Same;low;132;82;132;j;v;1;f;n;2598.514900004375
tin740#;138;False;2;P = T2?;STb_2;0;Same;None;70;70;70;j;v;0;f;n;1064.904499988188
tin740#;139;False;2;P = T1?;ST2_low_2;2;Same;low;132;82;82;j;v;1;f;n;1165.2446999942185
tin740#;140;False;2;P = T1?;ST1_high_5;1;Same;high;96;132;96;j;v;1;j;n;1426.9946999993408
tin740#;141;False;2;P = T1?;ST2_high_3;2;Same;high;70;96;96;j;v;1;f;n;906.9373999955133
tin740#;142;False;2;P = T1?;ST2_high_3;2;Same;high;70;96;96;j;v;0;j;n;1013.5895999992499
tin740#;143;False;2;P = T1?;ST1_high_3;1;Same;high;70;96;70;j;v;0;f;n;1068.204399998649
tin740#;144;False;2;P = T2?;ST1_high_1;1;Same;high;82;112;82;j;v;1;f;n;956.7683000059333
tin740#;145;False;2;P = T1?;ST2_low_4;2;Same;low;112;70;70;j;v;1;f;n;1306.5871999860974
tin740#;146;False;2;P = T2?;ST2_low_5;2;Same;low;96;154;154;j;v;1;j;n;721.7952999926638
tin740#;147;False;2;P = T1?;ST1_low_4;1;Same;low;112;70;112;j;v;1;j;n;1115.857100012363
tin740#;148;False;2;P = T1?;ST1_high_1;1;Same;high;82;112;82;j;v;0;f;n;1185.321799988742
tin740#;149;False;2;P = T2?;ST2_low_4;2;Same;low;112;70;70;j;v;1;j;n;939.7371999948518
tin740#;150;False;2;P = T1?;ST1_low_6;1;Same;low;154;96;154;j;v;0;f;n;1263.2815999968443
tin740#;151;False;2;P = T2?;ST1_low_6;1;Same;low;154;96;154;j;v;1;f;n;1157.0121999975527
tin740#;152;False;2;P = T2?;STb_4;0;Same;None;96;96;96;j;v;1;j;n;729.8655000049621
tin740#;153;False;2;P = T1?;ST1_high_6;1;Same;high;132;96;132;j;v;1;j;n;836.8986999994377
tin740#;154;False;2;P = T1?;STb_3;0;Same;None;82;82;82;j;v;1;j;n;1342.5759999954607
tin740#;155;False;2;P = T1?;ST2_high_4;2;Same;high;96;70;70;j;v;0;j;n;777.8326000116067
tin740#;156;False;2;P = T1?;ST1_low_3;1;Same;low;70;112;70;j;v;1;j;n;1011.9472000078531
tin740#;157;False;2;P = T1?;ST1_low_6;1;Same;low;154;96;154;j;v;1;j;n;762.2923999879276
tin740#;158;False;2;P = T1?;STb_8;0;Same;None;180;180;180;j;v;1;j;n;921.9681999966269
tin740#;159;False;2;P = T2?;ST1_high_6;1;Same;high;132;96;132;j;v;1;f;n;879.0065000066534
tin740#;160;False;2;P = T1?;STb_5;0;Same;None;112;112;112;j;v;1;j;n;2077.9546999983722
tin740#;161;False;2;P = T2?;STb_5;0;Same;None;112;112;112;j;v;1;j;b;860.8889000024647
tin740#;162;False;2;P = T1?;ST1_low_4;1;Same;low;112;70;112;j;v;1;j;n;697.4259999988135
tin740#;163;False;2;P = T2?;ST2_low_2;2;Same;low;132;82;82;j;v;1;j;n;1100.291599999764
tin740#;164;False;2;P = T1?;ST2_high_5;2;Same;high;96;132;132;j;v;1;f;b;1240.1544000022113
tin740#;165;False;2;P = T2?;ST2_low_6;2;Same;low;154;96;96;j;v;1;j;n;1285.6392999965465
tin740#;166;False;2;P = T1?;ST2_low_6;2;Same;low;154;96;96;j;v;1;f;b;1184.642400010489
tin740#;167;False;2;P = T2?;ST2_low_1;2;Same;low;82;132;132;j;v;1;j;n;766.9178000069223
tin740#;168;False;2;P = T2?;ST2_high_3;2;Same;high;70;96;96;j;v;1;j;n;1276.762299996335
tin740#;169;False;2;P = T2?;ST1_high_5;1;Same;high;96;132;96;j;v;0;j;n;1036.7412000050535
tin740#;170;False;2;P = T1?;ST2_low_2;2;Same;low;132;82;82;j;v;0;j;n;1395.2523000043584
tin740#;171;False;2;P = T2?;ST2_low_6;2;Same;low;154;96;96;j;v;1;j;n;972.4915000115288
tin740#;172;False;2;P = T1?;ST2_high_5;2;Same;high;96;132;132;j;v;1;f;n;1108.9161000127206
tin740#;173;False;2;P = T1?;ST2_high_6;2;Same;high;132;96;96;j;v;1;f;b;1032.933900001808
tin740#;174;False;2;P = T1?;ST2_low_3;2;Same;low;70;112;112;j;v;1;f;n;1141.8761999957496
tin740#;175;False;2;P = T2?;ST2_high_6;2;Same;high;132;96;96;j;v;1;j;n;886.055299997679
tin740#;176;False;2;P = T1?;ST1_low_3;1;Same;low;70;112;70;j;v;1;j;n;969.2111999902409
