p_code;trial_nr;practice;block;question;condition;seqPos;Same_or_Diff;ITS;T1_hz;T2_hz;P_hz;yes_key;sure_key;correct;yes_no;rating;resp_time
15deq3!;1;True;1;P = T1?;DT2_low_1;2;Different;low;82;132;154;f;n;1;j;v;4511.939200000029
15deq3!;2;True;1;P = T2?;STb_6;0;Same;None;132;132;132;f;n;1;f;b;1181.6851999999471
15deq3!;3;True;1;P = T2?;ST1_low_5;1;Same;low;96;154;96;f;n;1;j;n;2201.229299999909
15deq3!;4;True;1;P = T1?;ST2_high_3;2;Same;high;70;96;96;f;n;0;f;b;2319.425899999942
15deq3!;5;True;1;P = T1?;ST1_high_3;1;Same;high;70;96;70;f;n;1;f;b;1479.3026000000964
15deq3!;6;True;1;P = T2?;ST2_high_6;2;Same;high;132;96;96;f;n;0;j;v;9938.072899999952
15deq3!;7;True;1;P = T2?;DT1_high_6;1;Different;high;132;96;154;f;n;1;j;n;1208.4197000000358
15deq3!;8;True;1;P = T2?;STb_5;0;Same;None;112;112;112;f;n;1;f;b;3407.454100000109
15deq3!;9;True;1;P = T1?;DT1_high_5;1;Different;high;96;132;82;f;n;0;f;n;905.6348999999955
15deq3!;10;True;1;P = T2?;ST2_low_2;2;Same;low;132;82;82;f;n;1;f;b;1294.5153000000573
15deq3!;11;True;1;P = T2?;DT2_low_2;2;Different;low;132;82;70;f;n;1;j;b;2690.768300000059
15deq3!;12;True;1;P = T1?;STb_8;0;Same;None;180;180;180;f;n;1;f;n;784.1262000000597
15deq3!;13;True;1;P = T1?;ST2_low_1;2;Same;low;82;132;132;f;n;0;f;b;1015.3388999999606
15deq3!;14;True;1;P = T1?;ST1_low_1;1;Same;low;82;132;82;f;n;0;j;b;5535.581900000011
15deq3!;15;True;1;P = T2?;ST1_high_4;1;Same;high;96;70;96;f;n;1;j;b;817.6766000000271
15deq3!;16;True;1;P = T1?;STb_5;0;Same;None;112;112;112;f;n;1;f;v;732.7543000000105
p_code;trial_nr;practice;block;question;condition;seqPos;Same_or_Diff;ITS;T1_hz;T2_hz;P_hz;yes_key;sure_key;correct;yes_no;rating;resp_time
15deq3!;1;False;1;P = T1?;ST1_high_5;1;Same;high;96;132;96;f;n;1;f;n;961.0747000000401
15deq3!;2;False;1;P = T1?;ST1_high_6;1;Same;high;132;96;132;f;n;1;f;b;2844.7431000000734
15deq3!;3;False;1;P = T1?;ST2_low_2;2;Same;low;132;82;82;f;n;1;j;n;1219.2912000000433
15deq3!;4;False;1;P = T2?;STb_4;0;Same;None;96;96;96;f;n;1;f;n;699.8477999999295
15deq3!;5;False;1;P = T1?;DT2_high_2;2;Different;high;112;82;70;f;n;1;j;b;1160.0685999999314
15deq3!;6;False;1;P = T1?;ST2_low_4;2;Same;low;112;70;70;f;n;1;j;b;2750.4926000000296
15deq3!;7;False;1;P = T2?;ST2_low_5;2;Same;low;96;154;154;f;n;1;f;b;996.3845999999421
15deq3!;8;False;1;P = T2?;ST2_low_2;2;Same;low;132;82;82;f;n;1;f;b;1004.742100000044
15deq3!;9;False;1;P = T1?;ST2_high_4;2;Same;high;96;70;70;f;n;0;f;b;762.5289000000066
15deq3!;10;False;1;P = T2?;ST1_high_6;1;Same;high;132;96;132;f;n;0;f;b;2413.658499999997
15deq3!;11;False;1;P = T2?;ST2_low_2;2;Same;low;132;82;82;f;n;1;f;b;2943.8228999999865
15deq3!;12;False;1;P = T2?;ST2_low_5;2;Same;low;96;154;154;f;n;0;j;b;900.1662000000579
15deq3!;13;False;1;P = T2?;ST1_high_1;1;Same;high;82;112;82;f;n;1;j;b;1953.9830999999594
15deq3!;14;False;1;P = T2?;ST2_low_2;2;Same;low;132;82;82;f;n;0;j;b;1037.3213000000305
15deq3!;15;False;1;P = T1?;ST1_high_5;1;Same;high;96;132;96;f;n;1;f;b;3468.1106000000455
15deq3!;16;False;1;P = T2?;ST2_low_4;2;Same;low;112;70;70;f;n;0;j;v;7056.495199999972
15deq3!;17;False;1;P = T2?;ST1_high_5;1;Same;high;96;132;96;f;n;0;f;b;1101.1695000000827
15deq3!;18;False;1;P = T2?;ST2_high_3;2;Same;high;70;96;96;f;n;1;f;b;1833.7516999999934
15deq3!;19;False;1;P = T2?;STb_5;0;Same;None;112;112;112;f;n;1;f;n;879.4171999999207
15deq3!;20;False;1;P = T2?;ST2_low_5;2;Same;low;96;154;154;f;n;1;f;n;920.4270000000179
15deq3!;21;False;1;P = T2?;ST1_high_6;1;Same;high;132;96;132;f;n;0;f;v;7631.1392999999725
15deq3!;22;False;1;P = T1?;ST2_low_2;2;Same;low;132;82;82;f;n;0;f;n;1732.3374000000058
15deq3!;23;False;1;P = T2?;ST1_high_6;1;Same;high;132;96;132;f;n;1;j;b;1717.5088000000187
15deq3!;24;False;1;P = T1?;STb_6;0;Same;None;132;132;132;f;n;1;f;b;942.1328999999332
15deq3!;25;False;1;P = T2?;DT1_high_5;1;Different;high;96;132;82;f;n;1;j;n;1524.8160999999527
15deq3!;26;False;1;P = T2?;ST2_high_2;2;Same;high;112;82;82;f;n;1;f;n;736.8661000000429
15deq3!;27;False;1;P = T1?;ST1_high_2;1;Same;high;112;82;112;f;n;1;f;b;1457.250599999952
15deq3!;28;False;1;P = T1?;ST1_high_2;1;Same;high;112;82;112;f;n;1;f;n;805.867500000204
15deq3!;29;False;1;P = T1?;ST1_high_3;1;Same;high;70;96;70;f;n;1;f;n;659.1327999999521
15deq3!;30;False;1;P = T2?;ST1_high_5;1;Same;high;96;132;96;f;n;0;f;b;714.7449999999935
15deq3!;31;False;1;P = T2?;ST2_high_4;2;Same;high;96;70;70;f;n;1;f;n;681.9914000000153
15deq3!;32;False;1;P = T1?;STb_3;0;Same;None;82;82;82;f;n;1;f;n;607.7751000000262
15deq3!;33;False;1;P = T2?;ST1_high_3;1;Same;high;70;96;70;f;n;0;f;n;953.1288999999106
15deq3!;34;False;1;P = T2?;ST2_low_3;2;Same;low;70;112;112;f;n;1;f;b;3659.8827000000256
15deq3!;35;False;1;P = T1?;ST1_low_6;1;Same;low;154;96;154;f;n;1;f;b;654.9490999998397
15deq3!;36;False;1;P = T1?;ST2_low_4;2;Same;low;112;70;70;f;n;1;j;n;1153.647200000023
15deq3!;37;False;1;P = T1?;ST2_low_1;2;Same;low;82;132;132;f;n;0;f;n;827.8135000000475
15deq3!;38;False;1;P = T2?;ST1_low_2;1;Same;low;132;82;132;f;n;0;f;n;1402.4567999999817
15deq3!;39;False;1;P = T1?;ST2_high_5;2;Same;high;96;132;132;f;n;0;f;n;1090.5569999999898
15deq3!;40;False;1;P = T2?;ST2_low_4;2;Same;low;112;70;70;f;n;1;f;n;989.9035999999342
15deq3!;41;False;1;P = T1?;ST2_low_5;2;Same;low;96;154;154;f;n;0;f;v;2735.7685000001766
15deq3!;42;False;1;P = T2?;ST2_low_1;2;Same;low;82;132;132;f;n;1;f;b;1579.234599999836
15deq3!;43;False;1;P = T1?;ST1_high_4;1;Same;high;96;70;96;f;n;1;f;n;1634.8862999998346
15deq3!;44;False;1;P = T2?;ST2_low_6;2;Same;low;154;96;96;f;n;1;f;n;1145.772900000111
15deq3!;45;False;1;P = T2?;ST2_high_1;2;Same;high;82;112;112;f;n;1;f;v;2440.2400000001307
15deq3!;46;False;1;P = T1?;ST2_low_3;2;Same;low;70;112;112;f;n;0;f;v;5130.682400000069
15deq3!;47;False;1;P = T2?;ST2_low_3;2;Same;low;70;112;112;f;n;1;f;v;2594.6003999999903
15deq3!;48;False;1;P = T2?;ST1_low_4;1;Same;low;112;70;112;f;n;1;j;n;1012.792200000149
15deq3!;49;False;1;P = T1?;ST2_high_1;2;Same;high;82;112;112;f;n;0;f;b;1533.1807000000026
15deq3!;50;False;1;P = T2?;STb_7;0;Same;None;154;154;154;f;n;1;f;n;1021.7299999999341
15deq3!;51;False;1;P = T1?;ST2_low_5;2;Same;low;96;154;154;f;n;0;f;n;842.5812000000406
15deq3!;52;False;1;P = T2?;ST1_low_3;1;Same;low;70;112;70;f;n;0;f;b;1122.0302000001539
15deq3!;53;False;1;P = T2?;DT2_high_5;2;Different;high;96;132;154;f;n;0;f;b;886.1761999999089
15deq3!;54;False;1;P = T1?;ST2_high_3;2;Same;high;70;96;96;f;n;1;j;b;1018.4449999999288
15deq3!;55;False;1;P = T2?;ST1_high_2;1;Same;high;112;82;112;f;n;1;j;n;958.8542999999845
15deq3!;56;False;1;P = T2?;ST1_low_4;1;Same;low;112;70;112;f;n;1;j;n;1071.6420999999627
15deq3!;57;False;1;P = T1?;ST2_high_3;2;Same;high;70;96;96;f;n;0;f;b;2337.537999999995
15deq3!;58;False;1;P = T2?;ST2_low_4;2;Same;low;112;70;70;f;n;1;f;v;3103.609099999858
15deq3!;59;False;1;P = T1?;ST2_high_1;2;Same;high;82;112;112;f;n;1;j;v;7344.550900000058
15deq3!;60;False;1;P = T2?;ST1_low_1;1;Same;low;82;132;82;f;n;0;f;n;846.668099999988
15deq3!;61;False;1;P = T1?;ST2_high_6;2;Same;high;132;96;96;f;n;0;f;b;1802.7966000001925
15deq3!;62;False;1;P = T1?;ST2_high_5;2;Same;high;96;132;132;f;n;0;f;v;4180.736300000035
15deq3!;63;False;1;P = T2?;DT1_low_6;1;Different;low;154;96;180;f;n;1;j;b;976.183600000013
15deq3!;64;False;1;P = T2?;ST2_high_6;2;Same;high;132;96;96;f;n;1;f;b;1510.2489999999307
15deq3!;65;False;1;P = T2?;ST1_high_1;1;Same;high;82;112;82;f;n;1;j;b;2272.8331999999227
15deq3!;66;False;1;P = T2?;ST2_low_6;2;Same;low;154;96;96;f;n;1;f;b;3517.879799999946
15deq3!;67;False;1;P = T1?;STb_7;0;Same;None;154;154;154;f;n;1;f;v;4121.297899999945
15deq3!;68;False;1;P = T1?;ST2_low_6;2;Same;low;154;96;96;f;n;1;j;v;5039.129400000093
15deq3!;69;False;1;P = T1?;ST1_high_1;1;Same;high;82;112;82;f;n;1;f;n;714.5050000001447
15deq3!;70;False;1;P = T2?;ST2_high_4;2;Same;high;96;70;70;f;n;1;f;n;1054.9572999998418
15deq3!;71;False;1;P = T2?;STb_1;0;Same;None;60;60;60;f;n;1;f;n;2236.3768000000164
15deq3!;72;False;1;P = T2?;ST1_high_3;1;Same;high;70;96;70;f;n;0;f;n;855.1132000000052
15deq3!;73;False;1;P = T1?;STb_8;0;Same;None;180;180;180;f;n;1;f;n;844.4167999998626
15deq3!;74;False;1;P = T2?;ST1_high_4;1;Same;high;96;70;96;f;n;0;f;n;595.432499999788
15deq3!;75;False;1;P = T1?;ST1_high_3;1;Same;high;70;96;70;f;n;1;f;n;1009.5120999999381
15deq3!;76;False;1;P = T2?;ST2_high_5;2;Same;high;96;132;132;f;n;1;f;n;892.2049000000243
15deq3!;77;False;1;P = T2?;ST1_high_4;1;Same;high;96;70;96;f;n;0;f;n;1142.5475999999435
15deq3!;78;False;1;P = T1?;ST2_low_1;2;Same;low;82;132;132;f;n;1;j;b;1843.9493999999286
15deq3!;79;False;1;P = T2?;ST2_low_1;2;Same;low;82;132;132;f;n;1;f;b;836.2452999999732
15deq3!;80;False;1;P = T2?;DT1_low_2;1;Different;low;132;82;154;f;n;1;j;v;8082.25090000019
15deq3!;81;False;1;P = T2?;ST1_low_5;1;Same;low;96;154;96;f;n;1;j;b;1000.160600000072
15deq3!;82;False;1;P = T2?;DT1_low_4;1;Different;low;112;70;132;f;n;0;f;n;1114.4125999999233
15deq3!;83;False;1;P = T1?;ST1_low_3;1;Same;low;70;112;70;f;n;1;f;b;1907.7720000000227
15deq3!;84;False;1;P = T2?;ST2_low_3;2;Same;low;70;112;112;f;n;1;f;b;2069.9129000001903
15deq3!;85;False;1;P = T2?;ST1_high_2;1;Same;high;112;82;112;f;n;1;j;v;7322.857300000123
15deq3!;86;False;1;P = T1?;ST2_high_2;2;Same;high;112;82;82;f;n;1;j;v;9185.518800000182
15deq3!;87;False;1;P = T1?;ST1_low_5;1;Same;low;96;154;96;f;n;1;f;n;703.7116999999853
15deq3!;88;False;1;P = T1?;ST2_low_3;2;Same;low;70;112;112;f;n;1;j;v;9926.368700000012
15deq3!;89;False;1;P = T1?;DT1_low_5;1;Different;low;96;154;82;f;n;1;j;b;5178.108600000087
15deq3!;90;False;1;P = T2?;DT1_high_4;1;Different;high;96;70;112;f;n;1;j;b;4372.313800000029
15deq3!;91;False;1;P = T1?;ST1_low_2;1;Same;low;132;82;132;f;n;1;f;n;739.373599999908
15deq3!;92;False;1;P = T1?;ST1_high_4;1;Same;high;96;70;96;f;n;0;j;b;994.2810000000009
15deq3!;93;False;1;P = T2?;STb_3;0;Same;None;82;82;82;f;n;1;f;n;3020.8359999999175
15deq3!;94;False;1;P = T2?;ST1_high_4;1;Same;high;96;70;96;f;n;0;f;n;1570.4831000000468
15deq3!;95;False;1;P = T1?;ST1_low_1;1;Same;low;82;132;82;f;n;1;f;n;804.8504000000776
15deq3!;96;False;1;P = T1?;ST1_high_2;1;Same;high;112;82;112;f;n;1;f;n;1031.0261999998147
15deq3!;97;False;1;P = T2?;ST2_high_6;2;Same;high;132;96;96;f;n;1;f;n;912.4747999999272
15deq3!;98;False;1;P = T1?;ST1_low_6;1;Same;low;154;96;154;f;n;1;f;n;681.9269000000077
15deq3!;99;False;1;P = T2?;ST1_low_3;1;Same;low;70;112;70;f;n;1;j;n;1160.098699999935
15deq3!;100;False;1;P = T1?;ST1_high_6;1;Same;high;132;96;132;f;n;0;j;b;3246.9153000001825
15deq3!;101;False;1;P = T2?;ST2_high_1;2;Same;high;82;112;112;f;n;1;f;n;1930.9350000000904
15deq3!;102;False;1;P = T1?;ST2_high_6;2;Same;high;132;96;96;f;n;1;j;b;839.1968999999335
15deq3!;103;False;1;P = T1?;ST1_low_3;1;Same;low;70;112;70;f;n;0;j;b;3612.7661999998963
15deq3!;104;False;1;P = T1?;ST1_low_6;1;Same;low;154;96;154;f;n;1;f;b;4597.849499999938
15deq3!;105;False;1;P = T1?;ST1_low_3;1;Same;low;70;112;70;f;n;1;f;n;810.431600000129
15deq3!;106;False;1;P = T2?;ST1_low_1;1;Same;low;82;132;82;f;n;1;j;n;796.0498999998435
15deq3!;107;False;1;P = T1?;STb_1;0;Same;None;60;60;60;f;n;1;f;n;808.4636999999475
15deq3!;108;False;1;P = T1?;ST2_high_5;2;Same;high;96;132;132;f;n;1;j;b;1054.968899999949
15deq3!;109;False;1;P = T1?;ST1_high_4;1;Same;high;96;70;96;f;n;1;f;b;3905.1237999999557
15deq3!;110;False;1;P = T2?;ST2_high_4;2;Same;high;96;70;70;f;n;1;f;n;595.710199999985
15deq3!;111;False;1;P = T1?;ST1_low_4;1;Same;low;112;70;112;f;n;1;f;n;787.7363000000059
15deq3!;112;False;1;P = T2?;ST1_low_6;1;Same;low;154;96;154;f;n;0;f;b;4291.79309999995
15deq3!;113;False;1;P = T1?;ST2_low_6;2;Same;low;154;96;96;f;n;1;j;b;794.0280000000257
15deq3!;114;False;1;P = T1?;ST2_high_2;2;Same;high;112;82;82;f;n;1;j;b;893.6227000001509
15deq3!;115;False;1;P = T2?;STb_2;0;Same;None;70;70;70;f;n;1;f;n;1444.7448999999324
15deq3!;116;False;1;P = T1?;ST1_low_5;1;Same;low;96;154;96;f;n;1;f;b;2383.94019999987
15deq3!;117;False;1;P = T2?;ST1_low_1;1;Same;low;82;132;82;f;n;0;f;v;5107.133400000066
15deq3!;118;False;1;P = T1?;STb_5;0;Same;None;112;112;112;f;n;1;f;n;708.0912000001263
15deq3!;119;False;1;P = T1?;ST1_high_1;1;Same;high;82;112;82;f;n;1;f;v;3401.6973000000235
15deq3!;120;False;1;P = T2?;ST1_low_6;1;Same;low;154;96;154;f;n;1;j;b;987.1141999999509
15deq3!;121;False;1;P = T2?;ST2_high_5;2;Same;high;96;132;132;f;n;1;f;b;2625.706700000137
15deq3!;122;False;1;P = T1?;ST1_high_3;1;Same;high;70;96;70;f;n;1;f;b;866.1597999998776
15deq3!;123;False;1;P = T2?;ST1_low_2;1;Same;low;132;82;132;f;n;1;j;b;1731.7700999999488
15deq3!;124;False;1;P = T1?;ST2_high_3;2;Same;high;70;96;96;f;n;1;j;v;4275.090699999964
15deq3!;125;False;1;P = T1?;ST2_low_4;2;Same;low;112;70;70;f;n;1;j;n;833.2451999999648
15deq3!;126;False;1;P = T1?;STb_4;0;Same;None;96;96;96;f;n;1;f;b;854.5483000000331
15deq3!;127;False;1;P = T1?;ST2_high_4;2;Same;high;96;70;70;f;n;0;f;v;2857.481000000007
15deq3!;128;False;1;P = T2?;ST1_low_4;1;Same;low;112;70;112;f;n;1;j;v;1971.261300000151
15deq3!;129;False;1;P = T2?;ST2_high_6;2;Same;high;132;96;96;f;n;0;j;b;810.4698000001918
15deq3!;130;False;1;P = T2?;ST2_high_2;2;Same;high;112;82;82;f;n;1;f;b;810.6080000002294
15deq3!;131;False;1;P = T1?;ST1_low_1;1;Same;low;82;132;82;f;n;1;f;n;2652.867999999671
15deq3!;132;False;1;P = T2?;ST2_high_3;2;Same;high;70;96;96;f;n;0;j;v;5014.379799999915
15deq3!;133;False;1;P = T2?;ST1_high_2;1;Same;high;112;82;112;f;n;0;f;b;1176.8200999999863
15deq3!;134;False;1;P = T2?;ST1_high_5;1;Same;high;96;132;96;f;n;0;f;v;7936.266199999864
15deq3!;135;False;1;P = T1?;ST1_low_5;1;Same;low;96;154;96;f;n;1;f;n;769.623799999863
15deq3!;136;False;1;P = T1?;DT1_high_3;1;Different;high;70;96;60;f;n;0;f;b;925.947200000337
15deq3!;137;False;1;P = T2?;ST2_high_2;2;Same;high;112;82;82;f;n;1;f;b;1910.6517000000167
15deq3!;138;False;1;P = T1?;DT1_low_3;1;Different;low;70;112;60;f;n;0;f;n;691.0042999998041
15deq3!;139;False;1;P = T2?;ST1_low_5;1;Same;low;96;154;96;f;n;1;j;n;828.0045000001337
15deq3!;140;False;1;P = T1?;ST1_high_1;1;Same;high;82;112;82;f;n;1;f;b;778.033300000061
15deq3!;141;False;1;P = T2?;ST2_high_3;2;Same;high;70;96;96;f;n;0;j;v;6825.44420000022
15deq3!;142;False;1;P = T2?;STb_8;0;Same;None;180;180;180;f;n;1;f;n;3570.5870000001596
15deq3!;143;False;1;P = T1?;ST2_high_1;2;Same;high;82;112;112;f;n;0;f;n;1161.7259999998168
15deq3!;144;False;1;P = T1?;ST1_low_2;1;Same;low;132;82;132;f;n;1;f;b;1510.6950999997935
15deq3!;145;False;1;P = T1?;ST1_low_4;1;Same;low;112;70;112;f;n;1;f;b;3984.2720999999983
15deq3!;146;False;1;P = T1?;ST2_high_2;2;Same;high;112;82;82;f;n;1;j;b;1516.466600000058
15deq3!;147;False;1;P = T2?;ST2_low_6;2;Same;low;154;96;96;f;n;0;j;v;3944.129200000134
15deq3!;148;False;1;P = T2?;ST2_high_5;2;Same;high;96;132;132;f;n;0;j;v;5448.4691000002385
15deq3!;149;False;1;P = T1?;ST2_high_6;2;Same;high;132;96;96;f;n;0;f;v;5212.573700000121
15deq3!;150;False;1;P = T1?;ST1_low_4;1;Same;low;112;70;112;f;n;1;f;b;1990.1296999996703
15deq3!;151;False;1;P = T2?;DT2_low_6;2;Different;low;154;96;82;f;n;0;f;b;1894.42710000003
15deq3!;152;False;1;P = T1?;ST2_low_3;2;Same;low;70;112;112;f;n;0;f;n;763.221600000179
15deq3!;153;False;1;P = T1?;ST2_low_5;2;Same;low;96;154;154;f;n;1;j;b;983.7538000001587
15deq3!;154;False;1;P = T1?;STb_2;0;Same;None;70;70;70;f;n;0;j;b;1295.7906999999977
15deq3!;155;False;1;P = T2?;ST1_low_3;1;Same;low;70;112;70;f;n;1;j;n;834.2797000000246
15deq3!;156;False;1;P = T2?;ST1_high_3;1;Same;high;70;96;70;f;n;1;j;v;5878.97299999986
15deq3!;157;False;1;P = T1?;ST1_low_2;1;Same;low;132;82;132;f;n;1;f;n;776.4825999997811
15deq3!;158;False;1;P = T2?;ST2_low_1;2;Same;low;82;132;132;f;n;1;f;n;1018.4282999998686
15deq3!;159;False;1;P = T2?;ST2_high_1;2;Same;high;82;112;112;f;n;1;f;b;1635.8883000002606
15deq3!;160;False;1;P = T2?;STb_6;0;Same;None;132;132;132;f;n;1;f;b;643.4300999999323
15deq3!;161;False;1;P = T1?;ST2_low_1;2;Same;low;82;132;132;f;n;0;f;b;1271.8009000000166
15deq3!;162;False;1;P = T1?;ST2_low_6;2;Same;low;154;96;96;f;n;0;f;b;1769.8691000000508
15deq3!;163;False;1;P = T1?;DT1_high_4;1;Different;high;96;70;112;f;n;0;f;b;950.3827999997156
15deq3!;164;False;1;P = T1?;DT1_high_6;1;Different;high;132;96;154;f;n;0;f;b;733.158800000183
15deq3!;165;False;1;P = T1?;ST1_low_1;1;Same;low;82;132;82;f;n;1;f;n;729.7450000000936
15deq3!;166;False;1;P = T2?;ST1_high_1;1;Same;high;82;112;82;f;n;1;j;v;1968.568100000084
15deq3!;167;False;1;P = T2?;ST1_low_6;1;Same;low;154;96;154;f;n;1;j;v;6476.496599999791
15deq3!;168;False;1;P = T2?;ST1_low_5;1;Same;low;96;154;96;f;n;0;f;b;1576.0694999999032
15deq3!;169;False;1;P = T1?;ST2_low_2;2;Same;low;132;82;82;f;n;0;f;v;1682.9266999998254
15deq3!;170;False;1;P = T1?;ST1_high_5;1;Same;high;96;132;96;f;n;1;f;b;960.3355999997802
15deq3!;171;False;1;P = T1?;ST1_high_6;1;Same;high;132;96;132;f;n;0;j;v;6650.563099999999
15deq3!;172;False;1;P = T2?;ST1_low_2;1;Same;low;132;82;132;f;n;1;j;b;1387.9625999998098
15deq3!;173;False;1;P = T1?;DT1_low_4;1;Different;low;112;70;132;f;n;1;j;b;4869.782799999939
15deq3!;174;False;1;P = T1?;ST2_high_4;2;Same;high;96;70;70;f;n;1;j;n;793.4497999999621
15deq3!;175;False;1;P = T1?;DT2_low_2;2;Different;low;132;82;70;f;n;0;f;b;921.0558999998284
15deq3!;176;False;1;P = T2?;DT2_high_4;2;Different;high;96;70;60;f;n;1;j;n;824.9042999996163
15deq3!;1;True;2;P != T1?;DT2_low_1;2;Different;low;82;132;154;f;n;0;j;v;8664.224399999966
15deq3!;2;True;2;P != T1?;STb_8;0;Same;None;180;180;180;f;n;1;j;n;2053.2673000002433
15deq3!;3;True;2;P != T2?;STb_2;0;Same;None;70;70;70;f;n;1;j;n;1502.5662999996712
15deq3!;4;True;2;P != T1?;STb_5;0;Same;None;112;112;112;f;n;1;j;n;523.0879999999161
15deq3!;5;True;2;P != T2?;DT1_high_6;1;Different;high;132;96;154;f;n;1;f;b;3163.499799999954
15deq3!;6;True;2;P != T2?;DT2_high_1;2;Different;high;82;112;132;f;n;1;f;b;4484.404199999972
15deq3!;7;True;2;P != T2?;ST2_low_1;2;Same;low;82;132;132;f;n;1;j;b;3079.4114999998783
15deq3!;8;True;2;P != T1?;ST1_high_4;1;Same;high;96;70;96;f;n;0;f;n;1508.5045999999238
15deq3!;9;True;2;P != T2?;ST2_high_3;2;Same;high;70;96;96;f;n;1;j;b;1624.7806999999739
15deq3!;10;True;2;P != T1?;ST2_high_6;2;Same;high;132;96;96;f;n;0;j;b;2623.1167999999343
15deq3!;11;True;2;P != T1?;DT2_high_5;2;Different;high;96;132;154;f;n;0;j;b;4147.0454000000245
15deq3!;12;True;2;P != T2?;ST1_high_2;1;Same;high;112;82;112;f;n;0;j;v;4550.047799999902
15deq3!;13;True;2;P != T2?;ST1_low_6;1;Same;low;154;96;154;f;n;1;f;b;5847.612600000048
15deq3!;14;True;2;P != T1?;ST2_low_5;2;Same;low;96;154;154;f;n;1;f;n;1022.5513000000319
15deq3!;15;True;2;P != T1?;ST1_low_3;1;Same;low;70;112;70;f;n;0;f;b;5024.483600000167
15deq3!;16;True;2;P != T2?;STb_4;0;Same;None;96;96;96;f;n;0;f;b;2455.6208000003608
15deq3!;1;False;2;P != T2?;ST2_high_1;2;Same;high;82;112;112;f;n;1;j;b;1848.9331000000675
15deq3!;2;False;2;P != T2?;ST1_low_4;1;Same;low;112;70;112;f;n;1;f;b;2912.289800000053
15deq3!;3;False;2;P != T2?;ST2_low_2;2;Same;low;132;82;82;f;n;1;j;b;965.1354000002357
15deq3!;4;False;2;P != T2?;ST1_high_1;1;Same;high;82;112;82;f;n;0;j;b;2427.3454000003767
15deq3!;5;False;2;P != T2?;ST1_low_1;1;Same;low;82;132;82;f;n;0;j;b;4599.53859999996
15deq3!;6;False;2;P != T2?;ST2_low_1;2;Same;low;82;132;132;f;n;0;f;b;2299.053300000196
15deq3!;7;False;2;P != T2?;DT1_high_6;1;Different;high;132;96;154;f;n;1;f;b;3651.351599999998
15deq3!;8;False;2;P != T1?;ST2_high_2;2;Same;high;112;82;82;f;n;0;j;v;4104.756700000053
15deq3!;9;False;2;P != T2?;ST1_high_6;1;Same;high;132;96;132;f;n;1;f;b;1298.4102000000348
15deq3!;10;False;2;P != T2?;ST2_low_3;2;Same;low;70;112;112;f;n;0;f;b;3771.776200000204
15deq3!;11;False;2;P != T2?;ST2_low_4;2;Same;low;112;70;70;f;n;1;j;b;1864.1201000000365
15deq3!;12;False;2;P != T2?;DT1_low_2;1;Different;low;132;82;154;f;n;1;f;n;1127.9000999998061
15deq3!;13;False;2;P != T2?;ST2_low_5;2;Same;low;96;154;154;f;n;1;j;n;1196.0536999999931
15deq3!;14;False;2;P != T1?;ST2_high_3;2;Same;high;70;96;96;f;n;0;j;b;1522.7222999997139
15deq3!;15;False;2;P != T2?;ST2_high_4;2;Same;high;96;70;70;f;n;0;f;n;3855.391199999758
15deq3!;16;False;2;P != T2?;ST1_high_5;1;Same;high;96;132;96;f;n;1;f;n;863.7975000001461
15deq3!;17;False;2;P != T2?;DT2_low_4;2;Different;low;112;70;60;f;n;1;f;b;5108.747499999936
15deq3!;18;False;2;P != T2?;ST1_high_3;1;Same;high;70;96;70;f;n;0;j;b;760.7422999999471
15deq3!;19;False;2;P != T2?;ST1_high_4;1;Same;high;96;70;96;f;n;1;f;b;2644.071199999871
15deq3!;20;False;2;P != T1?;STb_3;0;Same;None;82;82;82;f;n;1;j;b;1345.2954999997928
15deq3!;21;False;2;P != T2?;ST1_high_3;1;Same;high;70;96;70;f;n;0;j;b;14263.508900000033
15deq3!;22;False;2;P != T1?;ST2_high_4;2;Same;high;96;70;70;f;n;0;j;n;1665.3753999999026
15deq3!;23;False;2;P != T2?;ST1_high_6;1;Same;high;132;96;132;f;n;0;j;n;871.5574000002562
15deq3!;24;False;2;P != T1?;ST2_low_5;2;Same;low;96;154;154;f;n;1;f;n;802.4504999998499
15deq3!;25;False;2;P != T1?;ST2_low_4;2;Same;low;112;70;70;f;n;1;f;b;2661.066000000119
15deq3!;26;False;2;P != T1?;ST2_high_1;2;Same;high;82;112;112;f;n;0;j;v;4121.23580000025
15deq3!;27;False;2;P != T2?;ST1_high_3;1;Same;high;70;96;70;f;n;0;j;b;2307.5831999999536
15deq3!;28;False;2;P != T1?;ST1_high_2;1;Same;high;112;82;112;f;n;1;j;b;2515.3768000000127
15deq3!;29;False;2;P != T2?;ST1_high_1;1;Same;high;82;112;82;f;n;0;j;n;893.9031999998406
15deq3!;30;False;2;P != T1?;ST2_low_1;2;Same;low;82;132;132;f;n;0;j;n;449.8168000000078
15deq3!;31;False;2;P != T1?;ST2_high_6;2;Same;high;132;96;96;f;n;0;j;n;1142.4286999999822
15deq3!;32;False;2;P != T2?;ST1_low_2;1;Same;low;132;82;132;f;n;1;f;b;2669.7456000001694
15deq3!;33;False;2;P != T1?;ST2_high_6;2;Same;high;132;96;96;f;n;0;j;b;1077.2985999997218
15deq3!;34;False;2;P != T2?;STb_5;0;Same;None;112;112;112;f;n;1;j;b;3394.9806000000535
15deq3!;35;False;2;P != T1?;ST1_low_4;1;Same;low;112;70;112;f;n;1;j;v;2588.279600000078
15deq3!;36;False;2;P != T1?;STb_4;0;Same;None;96;96;96;f;n;1;j;v;1253.248099999837
15deq3!;37;False;2;P != T2?;ST2_high_5;2;Same;high;96;132;132;f;n;1;j;n;1338.504599999851
15deq3!;38;False;2;P != T2?;ST1_low_4;1;Same;low;112;70;112;f;n;1;f;n;4225.783699999738
15deq3!;39;False;2;P != T1?;ST1_low_2;1;Same;low;132;82;132;f;n;0;f;n;5944.697100000212
15deq3!;40;False;2;P != T2?;DT2_low_2;2;Different;low;132;82;70;f;n;1;f;b;1292.1139999998559
15deq3!;41;False;2;P != T1?;ST1_high_2;1;Same;high;112;82;112;f;n;1;j;b;1003.3224999997401
15deq3!;42;False;2;P != T2?;ST1_low_2;1;Same;low;132;82;132;f;n;1;f;n;893.0950999997549
15deq3!;43;False;2;P != T2?;STb_4;0;Same;None;96;96;96;f;n;1;j;n;754.7495999997409
15deq3!;44;False;2;P != T1?;ST1_high_6;1;Same;high;132;96;132;f;n;1;j;n;2829.0286999999807
15deq3!;45;False;2;P != T1?;ST2_high_1;2;Same;high;82;112;112;f;n;1;f;v;3482.0674000002327
15deq3!;46;False;2;P != T1?;ST2_high_2;2;Same;high;112;82;82;f;n;1;f;b;1559.9622999998246
15deq3!;47;False;2;P != T1?;DT2_low_1;2;Different;low;82;132;154;f;n;0;j;v;9188.441400000102
15deq3!;48;False;2;P != T1?;ST1_low_3;1;Same;low;70;112;70;f;n;1;j;b;2380.8208999998897
15deq3!;49;False;2;P != T1?;ST2_high_1;2;Same;high;82;112;112;f;n;0;j;b;889.7846999998364
15deq3!;50;False;2;P != T2?;ST2_low_4;2;Same;low;112;70;70;f;n;1;j;n;6330.619099999694
15deq3!;51;False;2;P != T2?;ST2_high_2;2;Same;high;112;82;82;f;n;1;j;v;2906.7742000002
15deq3!;52;False;2;P != T1?;ST2_low_3;2;Same;low;70;112;112;f;n;0;j;b;1709.903899999972
15deq3!;53;False;2;P != T2?;ST1_low_3;1;Same;low;70;112;70;f;n;0;j;v;5638.216999999713
15deq3!;54;False;2;P != T1?;STb_1;0;Same;None;60;60;60;f;n;1;j;v;414.88950000029945
15deq3!;55;False;2;P != T1?;STb_8;0;Same;None;180;180;180;f;n;1;j;n;1883.2039000003533
15deq3!;56;False;2;P != T1?;ST1_high_2;1;Same;high;112;82;112;f;n;1;j;v;1221.3320999999269
15deq3!;57;False;2;P != T1?;ST1_high_3;1;Same;high;70;96;70;f;n;1;j;v;1661.7927000002055
15deq3!;58;False;2;P != T1?;ST1_low_5;1;Same;low;96;154;96;f;n;1;j;b;2002.5189000002683
15deq3!;59;False;2;P != T1?;ST2_low_6;2;Same;low;154;96;96;f;n;1;f;b;2949.3290000000343
15deq3!;60;False;2;P != T2?;ST1_low_5;1;Same;low;96;154;96;f;n;1;f;n;1888.970900000004
15deq3!;61;False;2;P != T2?;ST1_high_4;1;Same;high;96;70;96;f;n;0;j;n;1346.8769000000975
15deq3!;62;False;2;P != T1?;ST1_low_4;1;Same;low;112;70;112;f;n;1;j;v;6963.542800000141
15deq3!;63;False;2;P != T1?;ST2_low_1;2;Same;low;82;132;132;f;n;1;f;n;848.377199999959
15deq3!;64;False;2;P != T2?;ST1_high_5;1;Same;high;96;132;96;f;n;0;j;v;3109.926799999812
15deq3!;65;False;2;P != T2?;ST1_high_1;1;Same;high;82;112;82;f;n;0;j;n;1982.9083000004175
15deq3!;66;False;2;P != T1?;ST1_high_5;1;Same;high;96;132;96;f;n;1;j;n;1046.5361000001394
15deq3!;67;False;2;P != T2?;ST1_high_2;1;Same;high;112;82;112;f;n;1;f;b;1429.5325000002777
15deq3!;68;False;2;P != T1?;ST1_low_3;1;Same;low;70;112;70;f;n;1;j;v;3501.98249999994
15deq3!;69;False;2;P != T2?;ST1_low_6;1;Same;low;154;96;154;f;n;0;j;v;6013.481299999967
15deq3!;70;False;2;P != T2?;ST2_high_2;2;Same;high;112;82;82;f;n;1;j;n;952.5332999996863
15deq3!;71;False;2;P != T2?;DT1_high_2;1;Different;high;112;82;132;f;n;1;f;b;5304.785300000276
15deq3!;72;False;2;P != T2?;STb_6;0;Same;None;132;132;132;f;n;1;j;n;628.7955000002512
15deq3!;73;False;2;P != T2?;ST1_low_3;1;Same;low;70;112;70;f;n;1;f;b;1276.4538000001266
15deq3!;74;False;2;P != T2?;ST2_low_5;2;Same;low;96;154;154;f;n;0;f;b;886.1884999996619
15deq3!;75;False;2;P != T2?;ST2_low_3;2;Same;low;70;112;112;f;n;1;j;n;852.3821000003409
15deq3!;76;False;2;P != T1?;ST2_low_2;2;Same;low;132;82;82;f;n;1;f;b;5275.441399999636
15deq3!;77;False;2;P != T2?;ST1_high_2;1;Same;high;112;82;112;f;n;1;f;b;1090.8411999998862
15deq3!;78;False;2;P != T2?;ST2_high_4;2;Same;high;96;70;70;f;n;1;j;b;1717.9360999998607
15deq3!;79;False;2;P != T1?;ST2_low_5;2;Same;low;96;154;154;f;n;1;f;b;4896.054800000002
15deq3!;80;False;2;P != T1?;DT2_low_6;2;Different;low;154;96;82;f;n;0;j;v;4192.750400000023
15deq3!;81;False;2;P != T1?;ST2_high_5;2;Same;high;96;132;132;f;n;0;j;v;3749.976600000082
15deq3!;82;False;2;P != T1?;ST1_low_5;1;Same;low;96;154;96;f;n;1;j;v;4976.608400000259
15deq3!;83;False;2;P != T1?;ST2_low_1;2;Same;low;82;132;132;f;n;0;j;b;1492.7875999997013
15deq3!;84;False;2;P != T2?;ST2_low_1;2;Same;low;82;132;132;f;n;0;f;b;859.6539000000121
15deq3!;85;False;2;P != T1?;STb_5;0;Same;None;112;112;112;f;n;1;j;b;585.3695000000698
15deq3!;86;False;2;P != T2?;ST1_low_2;1;Same;low;132;82;132;f;n;0;j;n;843.8981000003878
15deq3!;87;False;2;P != T2?;ST2_high_5;2;Same;high;96;132;132;f;n;0;f;b;1817.2740000004524
15deq3!;88;False;2;P != T2?;ST2_low_6;2;Same;low;154;96;96;f;n;1;j;b;1080.3155999997216
15deq3!;89;False;2;P != T1?;ST2_high_3;2;Same;high;70;96;96;f;n;0;j;b;925.5656999998791
15deq3!;90;False;2;P != T1?;DT1_high_4;1;Different;high;96;70;112;f;n;0;j;b;4689.4355000004
15deq3!;91;False;2;P != T1?;ST2_low_3;2;Same;low;70;112;112;f;n;0;j;v;1325.017900000148
15deq3!;92;False;2;P != T2?;ST2_high_6;2;Same;high;132;96;96;f;n;0;f;b;1373.4650000001238
15deq3!;93;False;2;P != T1?;ST2_low_3;2;Same;low;70;112;112;f;n;1;f;b;2444.1225999999006
15deq3!;94;False;2;P != T1?;ST1_low_2;1;Same;low;132;82;132;f;n;0;f;b;4990.534500000194
15deq3!;95;False;2;P != T2?;DT1_low_5;1;Different;low;96;154;82;f;n;0;j;v;4675.550900000417
15deq3!;96;False;2;P != T1?;ST1_high_5;1;Same;high;96;132;96;f;n;1;j;b;3113.5878999998567
15deq3!;97;False;2;P != T2?;ST2_high_5;2;Same;high;96;132;132;f;n;1;j;v;2319.540699999834
15deq3!;98;False;2;P != T1?;ST1_low_1;1;Same;low;82;132;82;f;n;0;f;b;5835.311100000126
15deq3!;99;False;2;P != T2?;ST1_low_6;1;Same;low;154;96;154;f;n;1;f;n;1055.7880999999725
15deq3!;100;False;2;P != T1?;DT2_low_2;2;Different;low;132;82;70;f;n;1;f;n;1434.6002000002045
15deq3!;101;False;2;P != T1?;ST1_low_6;1;Same;low;154;96;154;f;n;0;f;b;2378.577299999961
15deq3!;102;False;2;P != T1?;ST1_low_3;1;Same;low;70;112;70;f;n;1;j;n;3715.0179999998727
15deq3!;103;False;2;P != T1?;STb_2;0;Same;None;70;70;70;f;n;1;j;n;688.0959999998595
15deq3!;104;False;2;P != T1?;ST2_low_6;2;Same;low;154;96;96;f;n;1;f;b;1313.0068999998912
15deq3!;105;False;2;P != T2?;ST2_high_6;2;Same;high;132;96;96;f;n;0;f;b;7847.888700000112
15deq3!;106;False;2;P != T1?;ST1_high_6;1;Same;high;132;96;132;f;n;0;f;b;1406.5294000001813
15deq3!;107;False;2;P != T2?;ST2_low_6;2;Same;low;154;96;96;f;n;1;j;n;1152.74189999991
15deq3!;108;False;2;P != T1?;ST2_low_2;2;Same;low;132;82;82;f;n;1;f;b;884.1081999999005
15deq3!;109;False;2;P != T1?;ST2_high_4;2;Same;high;96;70;70;f;n;0;j;n;990.929099999903
15deq3!;110;False;2;P != T1?;ST1_high_4;1;Same;high;96;70;96;f;n;1;j;n;288.24119999990216
15deq3!;111;False;2;P != T2?;ST2_high_4;2;Same;high;96;70;70;f;n;1;j;n;1238.7351000002127
15deq3!;112;False;2;P != T2?;ST2_high_3;2;Same;high;70;96;96;f;n;1;j;n;278.2941000000392
15deq3!;113;False;2;P != T2?;ST2_low_1;2;Same;low;82;132;132;f;n;1;j;n;792.8409000001011
15deq3!;114;False;2;P != T2?;ST1_high_5;1;Same;high;96;132;96;f;n;0;j;v;5513.300500000241
15deq3!;115;False;2;P != T1?;ST2_low_4;2;Same;low;112;70;70;f;n;1;f;b;751.2981999998374
15deq3!;116;False;2;P != T2?;ST1_low_5;1;Same;low;96;154;96;f;n;1;f;b;677.2194999998646
15deq3!;117;False;2;P != T1?;ST1_high_6;1;Same;high;132;96;132;f;n;1;j;n;764.0799000000698
15deq3!;118;False;2;P != T2?;ST2_high_3;2;Same;high;70;96;96;f;n;1;j;n;2311.1840999999913
15deq3!;119;False;2;P != T1?;ST2_low_4;2;Same;low;112;70;70;f;n;0;j;n;330.24169999998776
15deq3!;120;False;2;P != T1?;ST2_high_4;2;Same;high;96;70;70;f;n;0;j;n;1353.4499999996115
15deq3!;121;False;2;P != T1?;ST2_high_6;2;Same;high;132;96;96;f;n;0;j;b;1934.2897999999877
15deq3!;122;False;2;P != T2?;ST2_high_2;2;Same;high;112;82;82;f;n;1;j;n;823.7696999999571
15deq3!;123;False;2;P != T1?;ST1_high_1;1;Same;high;82;112;82;f;n;1;j;n;974.0947000000233
15deq3!;124;False;2;P != T1?;DT1_low_4;1;Different;low;112;70;132;f;n;0;j;n;2884.7429000002194
15deq3!;125;False;2;P != T2?;ST1_high_4;1;Same;high;96;70;96;f;n;1;f;v;2353.956500000095
15deq3!;126;False;2;P != T1?;STb_7;0;Same;None;154;154;154;f;n;1;j;n;973.3347000001231
15deq3!;127;False;2;P != T1?;ST2_low_6;2;Same;low;154;96;96;f;n;1;f;b;1350.9681000000455
15deq3!;128;False;2;P != T2?;ST1_low_1;1;Same;low;82;132;82;f;n;1;f;b;2867.1911999999793
15deq3!;129;False;2;P != T1?;ST1_low_1;1;Same;low;82;132;82;f;n;1;j;b;1865.5155999999806
15deq3!;130;False;2;P != T1?;ST2_high_3;2;Same;high;70;96;96;f;n;0;j;b;643.9609000003657
15deq3!;131;False;2;P != T1?;ST1_low_4;1;Same;low;112;70;112;f;n;1;j;b;2334.065600000031
15deq3!;132;False;2;P != T1?;ST1_low_5;1;Same;low;96;154;96;f;n;1;j;n;1283.3681000001889
15deq3!;133;False;2;P != T2?;ST2_low_6;2;Same;low;154;96;96;f;n;1;j;n;1061.625400000139
15deq3!;134;False;2;P != T2?;ST2_low_3;2;Same;low;70;112;112;f;n;0;f;v;11712.004099999831
15deq3!;135;False;2;P != T2?;STb_3;0;Same;None;82;82;82;f;n;1;j;n;1052.2800999997344
15deq3!;136;False;2;P != T1?;DT2_high_2;2;Different;high;112;82;70;f;n;1;f;b;833.8603000001967
15deq3!;137;False;2;P != T1?;ST2_low_2;2;Same;low;132;82;82;f;n;1;f;b;881.0919999996258
15deq3!;138;False;2;P != T2?;ST2_high_6;2;Same;high;132;96;96;f;n;1;j;b;1040.788899999825
15deq3!;139;False;2;P != T1?;ST1_low_1;1;Same;low;82;132;82;f;n;1;j;b;1026.702799999839
15deq3!;140;False;2;P != T2?;STb_8;0;Same;None;180;180;180;f;n;1;j;n;709.5127000002321
15deq3!;141;False;2;P != T2?;ST1_low_6;1;Same;low;154;96;154;f;n;0;j;v;2405.873800000336
15deq3!;142;False;2;P != T1?;ST1_high_5;1;Same;high;96;132;96;f;n;1;j;v;2264.5802999995794
15deq3!;143;False;2;P != T2?;DT2_low_5;2;Different;low;96;154;180;f;n;0;j;v;2140.625699999873
15deq3!;144;False;2;P != T1?;DT1_high_6;1;Different;high;132;96;154;f;n;0;j;n;937.1946000001117
15deq3!;145;False;2;P != T2?;ST2_low_2;2;Same;low;132;82;82;f;n;1;j;b;2842.580700000326
15deq3!;146;False;2;P != T1?;ST2_high_5;2;Same;high;96;132;132;f;n;1;f;n;1178.7866000004215
15deq3!;147;False;2;P != T1?;ST1_low_2;1;Same;low;132;82;132;f;n;0;f;b;1239.1391000001022
15deq3!;148;False;2;P != T1?;ST2_high_2;2;Same;high;112;82;82;f;n;0;j;n;1045.4084000002695
15deq3!;149;False;2;P != T2?;ST1_low_4;1;Same;low;112;70;112;f;n;1;f;b;893.8360000001921
15deq3!;150;False;2;P != T1?;ST1_low_6;1;Same;low;154;96;154;f;n;1;j;v;4837.076800000432
15deq3!;151;False;2;P != T1?;ST2_high_5;2;Same;high;96;132;132;f;n;0;j;n;1246.982200000275
15deq3!;152;False;2;P != T1?;ST1_high_3;1;Same;high;70;96;70;f;n;1;j;b;555.0255000007382
15deq3!;153;False;2;P != T2?;ST1_low_1;1;Same;low;82;132;82;f;n;1;f;b;2242.5991000000067
15deq3!;154;False;2;P != T2?;ST2_high_1;2;Same;high;82;112;112;f;n;0;f;b;1105.8106000000407
15deq3!;155;False;2;P != T2?;ST2_low_4;2;Same;low;112;70;70;f;n;1;j;b;1858.1304999997883
15deq3!;156;False;2;P != T1?;ST1_high_1;1;Same;high;82;112;82;f;n;1;j;v;2832.4323999995613
15deq3!;157;False;2;P != T2?;ST2_low_2;2;Same;low;132;82;82;f;n;1;j;n;1127.92890000037
15deq3!;158;False;2;P != T1?;STb_6;0;Same;None;132;132;132;f;n;1;j;v;2310.9060999995563
15deq3!;159;False;2;P != T1?;DT2_low_4;2;Different;low;112;70;60;f;n;1;f;n;838.7087999999494
15deq3!;160;False;2;P != T1?;ST2_low_5;2;Same;low;96;154;154;f;n;0;j;n;2163.4413000001587
15deq3!;161;False;2;P != T2?;ST1_high_2;1;Same;high;112;82;112;f;n;0;j;n;1865.0675999997475
15deq3!;162;False;2;P != T2?;ST2_high_1;2;Same;high;82;112;112;f;n;1;j;b;1199.8351000002003
15deq3!;163;False;2;P != T2?;ST2_low_5;2;Same;low;96;154;154;f;n;1;j;n;939.7066999999879
15deq3!;164;False;2;P != T1?;ST1_low_6;1;Same;low;154;96;154;f;n;1;j;n;2280.3377000000182
15deq3!;165;False;2;P != T2?;STb_7;0;Same;None;154;154;154;f;n;1;j;n;789.7059000006266
15deq3!;166;False;2;P != T1?;ST1_high_3;1;Same;high;70;96;70;f;n;1;j;n;329.6483000003718
15deq3!;167;False;2;P != T1?;ST1_high_1;1;Same;high;82;112;82;f;n;1;j;v;3554.540199999792
15deq3!;168;False;2;P != T2?;STb_2;0;Same;None;70;70;70;f;n;1;j;n;761.784300000727
15deq3!;169;False;2;P != T1?;ST1_high_4;1;Same;high;96;70;96;f;n;1;j;v;2297.813600000154
15deq3!;170;False;2;P != T2?;ST1_high_6;1;Same;high;132;96;132;f;n;0;j;v;3639.3340999993598
15deq3!;171;False;2;P != T1?;ST1_high_4;1;Same;high;96;70;96;f;n;1;j;b;291.7634999994334
15deq3!;172;False;2;P != T2?;STb_1;0;Same;None;60;60;60;f;n;1;j;b;261.2117999997281
15deq3!;173;False;2;P != T2?;ST1_low_5;1;Same;low;96;154;96;f;n;0;j;v;2284.460599999875
15deq3!;174;False;2;P != T2?;ST2_high_3;2;Same;high;70;96;96;f;n;1;j;v;533.7720000006811
15deq3!;175;False;2;P != T2?;ST1_low_3;1;Same;low;70;112;70;f;n;1;f;b;955.4020999994464
15deq3!;176;False;2;P != T2?;DT1_high_5;1;Different;high;96;132;82;f;n;0;j;v;5485.675200000514
