p_code;trial_nr;practice;block;question;condition;seqPos;Same_or_Diff;ITS;T1_hz;T2_hz;P_hz;yes_key;sure_key;correct;yes_no;rating;resp_time
6xza25#;1;True;1;P = T1?;ST2_low_1;2;Same;low;82;132;132;f;n;1;j;n;1214.2308999998477
6xza25#;2;True;1;P = T1?;DT2_high_6;2;Different;high;132;96;82;f;n;0;f;b;819.6513000000323
6xza25#;3;True;1;P = T2?;DT2_high_4;2;Different;high;96;70;60;f;n;0;f;b;1936.6995000000315
6xza25#;4;True;1;P = T1?;ST1_high_4;1;Same;high;96;70;96;f;n;1;f;n;491.92500000003747
6xza25#;5;True;1;P = T1?;STb_6;0;Same;None;132;132;132;f;n;1;f;n;610.5583999999453
6xza25#;6;True;1;P = T1?;ST1_low_2;1;Same;low;132;82;132;f;n;1;f;b;1185.6387000000268
6xza25#;7;True;1;P = T2?;STb_4;0;Same;None;96;96;96;f;n;1;f;b;884.9215000000186
6xza25#;8;True;1;P = T2?;STb_3;0;Same;None;82;82;82;f;n;0;j;b;1583.530200000041
6xza25#;9;True;1;P = T2?;ST1_high_6;1;Same;high;132;96;132;f;n;1;j;n;978.9021999999932
6xza25#;10;True;1;P = T2?;ST2_low_4;2;Same;low;112;70;70;f;n;1;f;n;848.1712999998763
6xza25#;11;True;1;P = T2?;ST1_low_4;1;Same;low;112;70;112;f;n;1;j;n;739.9613000000045
6xza25#;12;True;1;P = T1?;STb_5;0;Same;None;112;112;112;f;n;1;f;n;818.6984999999822
6xza25#;13;True;1;P = T1?;ST2_high_5;2;Same;high;96;132;132;f;n;1;j;n;1127.1581999999398
6xza25#;14;True;1;P = T2?;ST2_high_2;2;Same;high;112;82;82;f;n;1;f;n;974.1808000001129
6xza25#;15;True;1;P = T1?;DT1_low_1;1;Different;low;82;132;70;f;n;1;j;n;1182.7971000000161
6xza25#;16;True;1;P = T2?;DT1_low_1;1;Different;low;82;132;70;f;n;1;j;n;435.41720000007444
p_code;trial_nr;practice;block;question;condition;seqPos;Same_or_Diff;ITS;T1_hz;T2_hz;P_hz;yes_key;sure_key;correct;yes_no;rating;resp_time
6xza25#;1;False;1;P = T1?;ST1_low_4;1;Same;low;112;70;112;f;n;1;f;b;785.6551999998374
6xza25#;2;False;1;P = T2?;ST2_low_3;2;Same;low;70;112;112;f;n;0;j;n;1041.603699999996
6xza25#;3;False;1;P = T2?;ST1_low_4;1;Same;low;112;70;112;f;n;1;j;n;872.6360000000568
6xza25#;4;False;1;P = T2?;ST1_low_4;1;Same;low;112;70;112;f;n;1;j;n;1123.228700000027
6xza25#;5;False;1;P = T1?;ST1_high_1;1;Same;high;82;112;82;f;n;1;f;b;716.0931000000801
6xza25#;6;False;1;P = T2?;ST2_high_6;2;Same;high;132;96;96;f;n;1;f;n;832.8979000000345
6xza25#;7;False;1;P = T2?;ST2_high_4;2;Same;high;96;70;70;f;n;0;j;v;1554.7363000000587
6xza25#;8;False;1;P = T2?;ST2_low_2;2;Same;low;132;82;82;f;n;0;j;b;1327.2346000001107
6xza25#;9;False;1;P = T1?;ST2_high_6;2;Same;high;132;96;96;f;n;0;f;v;3180.061300000034
6xza25#;10;False;1;P = T1?;ST1_high_4;1;Same;high;96;70;96;f;n;1;f;n;621.3563999999678
6xza25#;11;False;1;P = T1?;ST2_low_1;2;Same;low;82;132;132;f;n;1;j;n;1040.736299999935
6xza25#;12;False;1;P = T1?;ST1_low_3;1;Same;low;70;112;70;f;n;1;f;n;834.1041999999561
6xza25#;13;False;1;P = T1?;ST2_low_2;2;Same;low;132;82;82;f;n;0;f;v;1257.2081000000708
6xza25#;14;False;1;P = T2?;DT2_low_4;2;Different;low;112;70;60;f;n;0;f;v;1458.1072000000859
6xza25#;15;False;1;P = T1?;ST2_high_4;2;Same;high;96;70;70;f;n;1;j;n;1264.850800000204
6xza25#;16;False;1;P = T2?;ST1_low_3;1;Same;low;70;112;70;f;n;1;j;v;2823.955699999942
6xza25#;17;False;1;P = T1?;ST2_low_3;2;Same;low;70;112;112;f;n;0;f;n;382.2726999999304
6xza25#;18;False;1;P = T2?;ST1_high_5;1;Same;high;96;132;96;f;n;1;j;b;1715.5032999999094
6xza25#;19;False;1;P = T1?;ST1_high_6;1;Same;high;132;96;132;f;n;1;f;n;1206.8787000000611
6xza25#;20;False;1;P = T2?;ST1_high_2;1;Same;high;112;82;112;f;n;0;f;n;682.0047000001068
6xza25#;21;False;1;P = T2?;ST1_low_5;1;Same;low;96;154;96;f;n;1;j;b;1526.4059999999517
6xza25#;22;False;1;P = T2?;ST2_high_5;2;Same;high;96;132;132;f;n;1;f;v;1561.4015000001018
6xza25#;23;False;1;P = T2?;ST1_low_1;1;Same;low;82;132;82;f;n;1;j;n;996.7411000000084
6xza25#;24;False;1;P = T1?;ST1_low_2;1;Same;low;132;82;132;f;n;1;f;n;709.8458000000392
6xza25#;25;False;1;P = T2?;ST1_low_1;1;Same;low;82;132;82;f;n;1;j;n;1509.255899999971
6xza25#;26;False;1;P = T2?;ST2_high_3;2;Same;high;70;96;96;f;n;0;j;n;1266.5612000000692
6xza25#;27;False;1;P = T1?;ST1_low_3;1;Same;low;70;112;70;f;n;1;f;n;1080.7056000003286
6xza25#;28;False;1;P = T1?;ST1_high_3;1;Same;high;70;96;70;f;n;1;f;n;670.8146000000852
6xza25#;29;False;1;P = T1?;ST1_low_3;1;Same;low;70;112;70;f;n;1;f;n;831.874300000436
6xza25#;30;False;1;P = T1?;ST1_high_1;1;Same;high;82;112;82;f;n;1;f;b;1161.0500000001593
6xza25#;31;False;1;P = T2?;ST2_high_3;2;Same;high;70;96;96;f;n;0;j;b;1056.4190000000053
6xza25#;32;False;1;P = T1?;ST2_low_6;2;Same;low;154;96;96;f;n;0;f;b;1377.5087999997595
6xza25#;33;False;1;P = T1?;ST1_high_5;1;Same;high;96;132;96;f;n;0;j;b;1500.2776000001177
6xza25#;34;False;1;P = T2?;ST2_high_6;2;Same;high;132;96;96;f;n;1;f;n;862.9587999998876
6xza25#;35;False;1;P = T1?;ST2_high_6;2;Same;high;132;96;96;f;n;1;j;b;2901.350999999977
6xza25#;36;False;1;P = T2?;ST1_high_1;1;Same;high;82;112;82;f;n;1;j;n;836.1261999998533
6xza25#;37;False;1;P = T1?;ST1_high_3;1;Same;high;70;96;70;f;n;1;f;n;970.0440000001436
6xza25#;38;False;1;P = T2?;ST2_high_1;2;Same;high;82;112;112;f;n;0;j;b;904.1033000003154
6xza25#;39;False;1;P = T1?;ST2_high_3;2;Same;high;70;96;96;f;n;0;f;n;940.9073000001626
6xza25#;40;False;1;P = T1?;ST2_high_2;2;Same;high;112;82;82;f;n;0;f;n;411.71920000033424
6xza25#;41;False;1;P = T1?;ST1_high_3;1;Same;high;70;96;70;f;n;1;f;n;839.024899999913
6xza25#;42;False;1;P = T2?;ST2_low_6;2;Same;low;154;96;96;f;n;0;j;b;964.0521000001172
6xza25#;43;False;1;P = T2?;ST1_low_5;1;Same;low;96;154;96;f;n;0;f;b;1679.376300000058
6xza25#;44;False;1;P = T1?;ST2_low_1;2;Same;low;82;132;132;f;n;1;j;n;1358.9790999999423
6xza25#;45;False;1;P = T2?;ST1_high_4;1;Same;high;96;70;96;f;n;0;f;n;1275.8453999999801
6xza25#;46;False;1;P = T1?;STb_4;0;Same;None;96;96;96;f;n;1;f;n;548.0287999998836
6xza25#;47;False;1;P = T1?;ST2_low_3;2;Same;low;70;112;112;f;n;0;f;n;612.2133000003487
6xza25#;48;False;1;P = T2?;ST2_low_4;2;Same;low;112;70;70;f;n;1;f;n;572.7342000000135
6xza25#;49;False;1;P = T1?;ST2_low_5;2;Same;low;96;154;154;f;n;1;j;n;981.1137000001509
6xza25#;50;False;1;P = T1?;DT1_low_4;1;Different;low;112;70;132;f;n;0;f;n;540.4174000000239
6xza25#;51;False;1;P = T1?;ST2_high_1;2;Same;high;82;112;112;f;n;1;j;n;776.4526999999362
6xza25#;52;False;1;P = T2?;ST1_high_6;1;Same;high;132;96;132;f;n;1;j;n;811.555799999951
6xza25#;53;False;1;P = T1?;ST2_high_5;2;Same;high;96;132;132;f;n;1;j;n;714.3873999998505
6xza25#;54;False;1;P = T2?;ST1_low_2;1;Same;low;132;82;132;f;n;1;j;n;1179.3102999999974
6xza25#;55;False;1;P = T2?;ST2_low_6;2;Same;low;154;96;96;f;n;0;j;n;777.8459999999541
6xza25#;56;False;1;P = T2?;STb_2;0;Same;None;70;70;70;f;n;1;f;n;534.7199000002547
6xza25#;57;False;1;P = T1?;ST1_high_4;1;Same;high;96;70;96;f;n;1;f;v;1056.9752999999764
6xza25#;58;False;1;P = T1?;DT1_high_2;1;Different;high;112;82;132;f;n;0;f;n;947.4174000001767
6xza25#;59;False;1;P = T1?;ST1_high_2;1;Same;high;112;82;112;f;n;0;j;v;1629.0060999999696
6xza25#;60;False;1;P = T1?;ST2_high_2;2;Same;high;112;82;82;f;n;0;f;n;600.663700000041
6xza25#;61;False;1;P = T1?;ST2_high_2;2;Same;high;112;82;82;f;n;0;f;n;523.781400000189
6xza25#;62;False;1;P = T1?;ST1_low_4;1;Same;low;112;70;112;f;n;0;j;v;2042.4169999996593
6xza25#;63;False;1;P = T1?;ST2_low_2;2;Same;low;132;82;82;f;n;1;j;n;1470.6971999999041
6xza25#;64;False;1;P = T1?;ST2_low_5;2;Same;low;96;154;154;f;n;1;j;b;1221.6002000000117
6xza25#;65;False;1;P = T2?;STb_7;0;Same;None;154;154;154;f;n;1;f;v;2316.5469000000485
6xza25#;66;False;1;P = T1?;ST1_low_4;1;Same;low;112;70;112;f;n;1;f;n;824.3242999997165
6xza25#;67;False;1;P = T1?;ST2_low_4;2;Same;low;112;70;70;f;n;1;j;n;1402.7854000000843
6xza25#;68;False;1;P = T2?;STb_8;0;Same;None;180;180;180;f;n;0;j;b;1076.9375999998374
6xza25#;69;False;1;P = T1?;DT1_low_5;1;Different;low;96;154;82;f;n;0;f;v;2038.3280999999442
6xza25#;70;False;1;P = T2?;ST2_high_4;2;Same;high;96;70;70;f;n;1;f;n;1047.3724999997103
6xza25#;71;False;1;P = T1?;ST1_low_2;1;Same;low;132;82;132;f;n;1;f;n;797.6821999995991
6xza25#;72;False;1;P = T1?;ST1_low_5;1;Same;low;96;154;96;f;n;1;f;n;553.881100000126
6xza25#;73;False;1;P = T2?;ST1_low_3;1;Same;low;70;112;70;f;n;0;f;n;777.9061000001093
6xza25#;74;False;1;P = T2?;DT1_low_6;1;Different;low;154;96;180;f;n;1;j;n;788.4401999999682
6xza25#;75;False;1;P = T2?;ST1_high_4;1;Same;high;96;70;96;f;n;0;f;b;1075.6217999996807
6xza25#;76;False;1;P = T1?;ST1_high_4;1;Same;high;96;70;96;f;n;0;j;v;1157.9753999999411
6xza25#;77;False;1;P = T1?;ST1_low_6;1;Same;low;154;96;154;f;n;1;f;b;1857.125300000007
6xza25#;78;False;1;P = T2?;STb_6;0;Same;None;132;132;132;f;n;1;f;n;448.6956000000646
6xza25#;79;False;1;P = T1?;ST2_high_5;2;Same;high;96;132;132;f;n;0;f;n;425.3519000003507
6xza25#;80;False;1;P = T2?;DT2_high_1;2;Different;high;82;112;132;f;n;0;f;n;858.5785000000214
6xza25#;81;False;1;P = T2?;STb_4;0;Same;None;96;96;96;f;n;0;j;b;891.5921999996499
6xza25#;82;False;1;P = T1?;STb_5;0;Same;None;112;112;112;f;n;1;f;n;656.9516999998086
6xza25#;83;False;1;P = T1?;ST2_low_5;2;Same;low;96;154;154;f;n;1;j;n;895.5787999998392
6xza25#;84;False;1;P = T2?;ST1_high_3;1;Same;high;70;96;70;f;n;1;j;v;1519.163099999787
6xza25#;85;False;1;P = T2?;ST1_high_4;1;Same;high;96;70;96;f;n;0;f;v;2928.3939000001737
6xza25#;86;False;1;P = T2?;ST2_low_1;2;Same;low;82;132;132;f;n;1;f;b;1029.767499999707
6xza25#;87;False;1;P = T2?;ST1_low_2;1;Same;low;132;82;132;f;n;1;j;n;803.5130000002937
6xza25#;88;False;1;P = T1?;DT2_low_1;2;Different;low;82;132;154;f;n;1;j;n;927.2094000002653
6xza25#;89;False;1;P = T1?;ST2_high_1;2;Same;high;82;112;112;f;n;1;j;n;1049.5921000001545
6xza25#;90;False;1;P = T1?;STb_3;0;Same;None;82;82;82;f;n;0;j;b;1223.2410000001437
6xza25#;91;False;1;P = T2?;ST2_high_2;2;Same;high;112;82;82;f;n;1;f;b;1545.8450000000994
6xza25#;92;False;1;P = T2?;ST2_high_1;2;Same;high;82;112;112;f;n;1;f;v;2725.5552000001444
6xza25#;93;False;1;P = T1?;STb_6;0;Same;None;132;132;132;f;n;1;f;n;848.3976000002258
6xza25#;94;False;1;P = T2?;ST2_low_6;2;Same;low;154;96;96;f;n;0;j;n;890.8446999998887
6xza25#;95;False;1;P = T1?;ST2_high_4;2;Same;high;96;70;70;f;n;1;j;n;1058.2030000000486
6xza25#;96;False;1;P = T2?;ST1_high_3;1;Same;high;70;96;70;f;n;1;j;b;1794.1846999997324
6xza25#;97;False;1;P = T2?;ST1_high_3;1;Same;high;70;96;70;f;n;1;j;b;2026.2839000001804
6xza25#;98;False;1;P = T2?;ST2_low_4;2;Same;low;112;70;70;f;n;1;f;n;1385.42359999974
6xza25#;99;False;1;P = T2?;ST1_high_5;1;Same;high;96;132;96;f;n;1;j;n;916.1902000000737
6xza25#;100;False;1;P = T2?;ST2_high_6;2;Same;high;132;96;96;f;n;0;j;v;4020.6053000001702
6xza25#;101;False;1;P = T2?;ST2_low_3;2;Same;low;70;112;112;f;n;1;f;n;1344.6969999999965
6xza25#;102;False;1;P = T1?;ST2_high_6;2;Same;high;132;96;96;f;n;1;j;n;730.7667999998557
6xza25#;103;False;1;P = T2?;ST2_low_4;2;Same;low;112;70;70;f;n;1;f;n;638.1790000000365
6xza25#;104;False;1;P = T1?;ST2_high_5;2;Same;high;96;132;132;f;n;1;j;n;869.2728999999417
6xza25#;105;False;1;P = T2?;ST1_high_1;1;Same;high;82;112;82;f;n;1;j;b;1211.332400000174
6xza25#;106;False;1;P = T1?;ST1_low_6;1;Same;low;154;96;154;f;n;1;f;b;845.060999999987
6xza25#;107;False;1;P = T2?;ST2_high_2;2;Same;high;112;82;82;f;n;1;f;n;623.1429000004027
6xza25#;108;False;1;P = T1?;ST2_low_1;2;Same;low;82;132;132;f;n;1;j;n;735.6294000001071
6xza25#;109;False;1;P = T2?;ST2_high_3;2;Same;high;70;96;96;f;n;1;f;n;988.3521000001565
6xza25#;110;False;1;P = T2?;ST1_low_1;1;Same;low;82;132;82;f;n;1;j;v;1825.1992999998947
6xza25#;111;False;1;P = T2?;ST1_low_2;1;Same;low;132;82;132;f;n;1;j;n;911.8610999998964
6xza25#;112;False;1;P = T1?;ST2_low_2;2;Same;low;132;82;82;f;n;1;j;n;851.2946999999258
6xza25#;113;False;1;P = T2?;ST2_low_5;2;Same;low;96;154;154;f;n;1;f;v;1618.9588000002004
6xza25#;114;False;1;P = T1?;DT1_low_3;1;Different;low;70;112;60;f;n;1;j;b;1096.8330999999125
6xza25#;115;False;1;P = T2?;ST2_high_4;2;Same;high;96;70;70;f;n;1;f;v;1337.2079000000667
6xza25#;116;False;1;P = T2?;ST1_high_1;1;Same;high;82;112;82;f;n;0;f;n;908.6145999999644
6xza25#;117;False;1;P = T1?;STb_2;0;Same;None;70;70;70;f;n;1;f;n;977.3708000002443
6xza25#;118;False;1;P = T2?;ST1_low_6;1;Same;low;154;96;154;f;n;1;j;n;991.3142000000335
6xza25#;119;False;1;P = T1?;ST2_low_6;2;Same;low;154;96;96;f;n;1;j;n;815.5015000002095
6xza25#;120;False;1;P = T1?;ST1_high_5;1;Same;high;96;132;96;f;n;0;j;n;828.1640000000152
6xza25#;121;False;1;P = T2?;ST2_low_2;2;Same;low;132;82;82;f;n;1;f;n;607.1796999999606
6xza25#;122;False;1;P = T1?;ST2_low_3;2;Same;low;70;112;112;f;n;1;j;n;774.900500000058
6xza25#;123;False;1;P = T1?;ST2_high_3;2;Same;high;70;96;96;f;n;1;j;n;621.3934999996127
6xza25#;124;False;1;P = T1?;ST2_low_4;2;Same;low;112;70;70;f;n;1;j;n;1514.2924000001585
6xza25#;125;False;1;P = T2?;ST2_high_5;2;Same;high;96;132;132;f;n;1;f;v;1093.5229000001527
6xza25#;126;False;1;P = T2?;ST1_low_6;1;Same;low;154;96;154;f;n;1;j;n;1090.8494000000246
6xza25#;127;False;1;P = T1?;ST1_high_2;1;Same;high;112;82;112;f;n;0;j;b;1009.196499999689
6xza25#;128;False;1;P = T2?;ST1_low_6;1;Same;low;154;96;154;f;n;1;j;n;855.7177999996384
6xza25#;129;False;1;P = T1?;ST1_low_1;1;Same;low;82;132;82;f;n;1;f;b;695.4273999999714
6xza25#;130;False;1;P = T2?;ST2_low_3;2;Same;low;70;112;112;f;n;1;f;v;1553.5840999996253
6xza25#;131;False;1;P = T2?;ST2_high_1;2;Same;high;82;112;112;f;n;0;j;n;1174.9457999999322
6xza25#;132;False;1;P = T1?;ST1_low_5;1;Same;low;96;154;96;f;n;0;j;n;994.9539999997796
6xza25#;133;False;1;P = T1?;ST1_low_5;1;Same;low;96;154;96;f;n;0;j;n;1364.4037000003664
6xza25#;134;False;1;P = T2?;STb_3;0;Same;None;82;82;82;f;n;1;f;n;328.63300000008167
6xza25#;135;False;1;P = T2?;ST2_high_2;2;Same;high;112;82;82;f;n;1;f;b;1344.4941000002473
6xza25#;136;False;1;P = T1?;ST1_low_1;1;Same;low;82;132;82;f;n;1;f;v;1858.8393999998516
6xza25#;137;False;1;P = T1?;DT1_low_6;1;Different;low;154;96;180;f;n;1;j;b;1933.2801999998992
6xza25#;138;False;1;P = T2?;STb_5;0;Same;None;112;112;112;f;n;0;j;b;938.9400000000023
6xza25#;139;False;1;P = T1?;ST1_high_6;1;Same;high;132;96;132;f;n;0;j;b;2193.450899999789
6xza25#;140;False;1;P = T1?;ST2_low_4;2;Same;low;112;70;70;f;n;1;j;n;901.4218000002074
6xza25#;141;False;1;P = T2?;ST1_high_2;1;Same;high;112;82;112;f;n;0;f;b;715.0689999998576
6xza25#;142;False;1;P = T2?;ST1_low_4;1;Same;low;112;70;112;f;n;1;j;b;1795.1333000000886
6xza25#;143;False;1;P = T2?;ST2_low_2;2;Same;low;132;82;82;f;n;1;f;n;814.9050999995779
6xza25#;144;False;1;P = T2?;DT2_high_2;2;Different;high;112;82;70;f;n;1;j;b;1145.976100000098
6xza25#;145;False;1;P = T2?;ST2_low_5;2;Same;low;96;154;154;f;n;1;f;b;586.239199999909
6xza25#;146;False;1;P = T1?;DT1_high_5;1;Different;high;96;132;82;f;n;0;f;n;518.4598999999253
6xza25#;147;False;1;P = T1?;ST1_high_1;1;Same;high;82;112;82;f;n;0;j;n;896.1029999995844
6xza25#;148;False;1;P = T2?;DT2_low_6;2;Different;low;154;96;82;f;n;0;f;n;864.0017999996417
6xza25#;149;False;1;P = T2?;ST2_high_5;2;Same;high;96;132;132;f;n;0;j;v;2470.8247999997184
6xza25#;150;False;1;P = T2?;ST1_high_6;1;Same;high;132;96;132;f;n;1;j;b;1077.4622999997518
6xza25#;151;False;1;P = T2?;ST1_low_5;1;Same;low;96;154;96;f;n;1;j;n;734.6840000000157
6xza25#;152;False;1;P = T2?;STb_1;0;Same;None;60;60;60;f;n;0;j;b;942.9675000001225
6xza25#;153;False;1;P = T2?;ST2_low_5;2;Same;low;96;154;154;f;n;1;f;n;1018.992000000253
6xza25#;154;False;1;P = T1?;ST1_low_6;1;Same;low;154;96;154;f;n;1;f;b;661.6075000001729
6xza25#;155;False;1;P = T2?;ST1_high_6;1;Same;high;132;96;132;f;n;0;f;b;676.3224999999693
6xza25#;156;False;1;P = T2?;ST1_high_2;1;Same;high;112;82;112;f;n;1;j;v;2134.262300000046
6xza25#;157;False;1;P = T1?;ST1_high_5;1;Same;high;96;132;96;f;n;1;f;v;2393.700600000102
6xza25#;158;False;1;P = T1?;ST1_low_2;1;Same;low;132;82;132;f;n;1;f;n;624.0884999997434
6xza25#;159;False;1;P = T1?;ST1_low_1;1;Same;low;82;132;82;f;n;1;f;n;608.183000000281
6xza25#;160;False;1;P = T1?;ST1_high_6;1;Same;high;132;96;132;f;n;0;j;b;1453.1950999999026
6xza25#;161;False;1;P = T1?;ST2_high_4;2;Same;high;96;70;70;f;n;1;j;n;920.6664999996974
6xza25#;162;False;1;P = T1?;DT2_low_2;2;Different;low;132;82;70;f;n;1;j;b;947.6817999998275
6xza25#;163;False;1;P = T1?;ST2_high_1;2;Same;high;82;112;112;f;n;1;j;n;764.087600000039
6xza25#;164;False;1;P = T2?;ST2_low_1;2;Same;low;82;132;132;f;n;0;j;b;1023.2841000001827
6xza25#;165;False;1;P = T1?;ST1_high_2;1;Same;high;112;82;112;f;n;0;j;b;1079.3720000001485
6xza25#;166;False;1;P = T1?;STb_8;0;Same;None;180;180;180;f;n;1;f;n;818.738100000246
6xza25#;167;False;1;P = T2?;ST1_low_3;1;Same;low;70;112;70;f;n;0;f;n;659.5100999998067
6xza25#;168;False;1;P = T2?;DT1_low_2;1;Different;low;132;82;154;f;n;1;j;n;790.5726999997569
6xza25#;169;False;1;P = T2?;DT1_low_5;1;Different;low;96;154;82;f;n;0;f;n;953.4874999999374
6xza25#;170;False;1;P = T1?;ST2_high_3;2;Same;high;70;96;96;f;n;0;f;n;846.6666000003897
6xza25#;171;False;1;P = T2?;DT2_low_2;2;Different;low;132;82;70;f;n;0;f;n;498.5265000000254
6xza25#;172;False;1;P = T2?;ST1_high_5;1;Same;high;96;132;96;f;n;1;j;n;689.7051000000829
6xza25#;173;False;1;P = T2?;ST2_low_1;2;Same;low;82;132;132;f;n;1;f;n;584.4771000001856
6xza25#;174;False;1;P = T1?;STb_1;0;Same;None;60;60;60;f;n;1;f;n;528.2983000001877
6xza25#;175;False;1;P = T1?;STb_7;0;Same;None;154;154;154;f;n;0;j;v;1876.417400000264
6xza25#;176;False;1;P = T1?;ST2_low_6;2;Same;low;154;96;96;f;n;1;j;n;878.4004000003733
6xza25#;1;True;2;P != T2?;ST2_low_3;2;Same;low;70;112;112;f;n;1;j;n;1776.4071999999942
6xza25#;2;True;2;P != T2?;STb_4;0;Same;None;96;96;96;f;n;1;j;v;1787.273500000083
6xza25#;3;True;2;P != T1?;ST2_high_5;2;Same;high;96;132;132;f;n;0;j;b;1569.420799999989
6xza25#;4;True;2;P != T1?;DT1_high_5;1;Different;high;96;132;82;f;n;0;j;n;1366.7270999999346
6xza25#;5;True;2;P != T2?;ST1_low_4;1;Same;low;112;70;112;f;n;0;j;n;1115.2518999997483
6xza25#;6;True;2;P != T1?;STb_3;0;Same;None;82;82;82;f;n;0;f;v;1731.4332999999351
6xza25#;7;True;2;P != T1?;ST1_low_3;1;Same;low;70;112;70;f;n;0;f;b;1498.3145999999579
6xza25#;8;True;2;P != T2?;ST2_low_3;2;Same;low;70;112;112;f;n;1;j;n;740.3878999998597
6xza25#;9;True;2;P != T1?;STb_8;0;Same;None;180;180;180;f;n;1;j;n;1202.9167999999117
6xza25#;10;True;2;P != T1?;ST1_high_4;1;Same;high;96;70;96;f;n;1;j;n;2420.7229999997253
6xza25#;11;True;2;P != T2?;ST1_low_6;1;Same;low;154;96;154;f;n;1;f;b;2070.699400000194
6xza25#;12;True;2;P != T2?;DT1_high_2;1;Different;high;112;82;132;f;n;0;j;b;1302.731500000391
6xza25#;13;True;2;P != T2?;DT1_high_5;1;Different;high;96;132;82;f;n;1;f;n;1968.135600000096
6xza25#;14;True;2;P != T1?;DT1_low_5;1;Different;low;96;154;82;f;n;1;f;n;1052.0464999999604
6xza25#;15;True;2;P != T1?;ST2_low_4;2;Same;low;112;70;70;f;n;1;f;b;984.6629999997276
6xza25#;16;True;2;P != T2?;STb_1;0;Same;None;60;60;60;f;n;0;f;v;2063.2838000001357
6xza25#;1;False;2;P != T2?;ST2_high_3;2;Same;high;70;96;96;f;n;1;j;n;1638.0693999999494
6xza25#;2;False;2;P != T1?;ST2_low_5;2;Same;low;96;154;154;f;n;1;f;b;1908.3207999997285
6xza25#;3;False;2;P != T2?;ST1_low_6;1;Same;low;154;96;154;f;n;1;f;b;1953.9630999997826
6xza25#;4;False;2;P != T2?;ST1_high_6;1;Same;high;132;96;132;f;n;0;j;v;2507.3848000001817
6xza25#;5;False;2;P != T1?;ST2_low_1;2;Same;low;82;132;132;f;n;1;f;n;607.4902999998812
6xza25#;6;False;2;P != T1?;ST2_high_2;2;Same;high;112;82;82;f;n;1;f;b;1182.872800000041
6xza25#;7;False;2;P != T1?;STb_1;0;Same;None;60;60;60;f;n;0;f;v;1619.4533000002593
6xza25#;8;False;2;P != T2?;ST1_low_1;1;Same;low;82;132;82;f;n;1;f;n;985.595000000103
6xza25#;9;False;2;P != T2?;DT2_high_1;2;Different;high;82;112;132;f;n;1;f;v;3620.6569000000854
6xza25#;10;False;2;P != T2?;ST1_low_4;1;Same;low;112;70;112;f;n;0;j;n;1553.0808999997134
6xza25#;11;False;2;P != T1?;ST1_high_1;1;Same;high;82;112;82;f;n;1;j;n;1237.996800000019
6xza25#;12;False;2;P != T2?;ST1_low_3;1;Same;low;70;112;70;f;n;0;j;b;1833.35070000021
6xza25#;13;False;2;P != T2?;ST1_high_5;1;Same;high;96;132;96;f;n;1;f;b;1446.913400000085
6xza25#;14;False;2;P != T1?;ST1_high_1;1;Same;high;82;112;82;f;n;1;j;b;2044.1254000002118
6xza25#;15;False;2;P != T1?;ST1_high_3;1;Same;high;70;96;70;f;n;1;j;n;407.4023000002853
6xza25#;16;False;2;P != T2?;ST1_high_5;1;Same;high;96;132;96;f;n;1;f;b;1233.2836000000498
6xza25#;17;False;2;P != T2?;ST1_high_1;1;Same;high;82;112;82;f;n;1;f;n;2094.4217999999637
6xza25#;18;False;2;P != T1?;ST2_high_6;2;Same;high;132;96;96;f;n;0;j;n;1023.1442999997853
6xza25#;19;False;2;P != T1?;ST1_high_5;1;Same;high;96;132;96;f;n;1;j;v;2646.0856999997304
6xza25#;20;False;2;P != T2?;STb_5;0;Same;None;112;112;112;f;n;0;f;v;2858.225400000265
6xza25#;21;False;2;P != T1?;STb_6;0;Same;None;132;132;132;f;n;0;f;n;2165.7125000001543
6xza25#;22;False;2;P != T2?;DT2_high_5;2;Different;high;96;132;154;f;n;0;j;n;482.92080000010174
6xza25#;23;False;2;P != T1?;ST2_high_2;2;Same;high;112;82;82;f;n;1;f;b;1094.4713999997475
6xza25#;24;False;2;P != T2?;ST1_high_1;1;Same;high;82;112;82;f;n;0;j;v;3621.9137999996747
6xza25#;25;False;2;P != T1?;ST1_high_5;1;Same;high;96;132;96;f;n;1;j;b;1112.974099999974
6xza25#;26;False;2;P != T1?;ST1_low_1;1;Same;low;82;132;82;f;n;1;j;b;2614.8042999998324
6xza25#;27;False;2;P != T2?;ST1_low_5;1;Same;low;96;154;96;f;n;0;j;n;5281.632599999739
6xza25#;28;False;2;P != T1?;ST1_low_5;1;Same;low;96;154;96;f;n;0;f;n;1022.2325000004275
6xza25#;29;False;2;P != T2?;ST1_low_2;1;Same;low;132;82;132;f;n;1;f;n;818.2443999999123
6xza25#;30;False;2;P != T1?;ST1_low_3;1;Same;low;70;112;70;f;n;0;f;n;596.3839000000917
6xza25#;31;False;2;P != T2?;ST1_low_1;1;Same;low;82;132;82;f;n;1;f;n;694.3811000001006
6xza25#;32;False;2;P != T2?;ST2_high_2;2;Same;high;112;82;82;f;n;1;j;n;685.6236999997236
6xza25#;33;False;2;P != T1?;ST1_high_2;1;Same;high;112;82;112;f;n;1;j;v;4181.729599999926
6xza25#;34;False;2;P != T2?;ST1_high_3;1;Same;high;70;96;70;f;n;0;j;v;2124.943599999824
6xza25#;35;False;2;P != T2?;STb_2;0;Same;None;70;70;70;f;n;1;j;b;1970.5868999999439
6xza25#;36;False;2;P != T1?;ST1_low_1;1;Same;low;82;132;82;f;n;1;j;b;2425.712900000235
6xza25#;37;False;2;P != T1?;DT1_low_5;1;Different;low;96;154;82;f;n;1;f;b;1515.9497999998166
6xza25#;38;False;2;P != T1?;ST1_low_2;1;Same;low;132;82;132;f;n;0;f;b;1166.5987999999743
6xza25#;39;False;2;P != T2?;ST2_low_2;2;Same;low;132;82;82;f;n;1;j;n;579.6588000002885
6xza25#;40;False;2;P != T2?;DT1_high_4;1;Different;high;96;70;112;f;n;1;f;n;1039.0807000003406
6xza25#;41;False;2;P != T2?;ST2_low_3;2;Same;low;70;112;112;f;n;0;f;b;1606.7183000000114
6xza25#;42;False;2;P != T2?;STb_7;0;Same;None;154;154;154;f;n;0;f;b;1963.3552000000236
6xza25#;43;False;2;P != T1?;ST2_low_1;2;Same;low;82;132;132;f;n;0;j;n;1048.403000000235
6xza25#;44;False;2;P != T2?;ST2_high_6;2;Same;high;132;96;96;f;n;0;f;n;464.77699999968536
6xza25#;45;False;2;P != T1?;ST2_high_5;2;Same;high;96;132;132;f;n;0;j;b;696.6256000000612
6xza25#;46;False;2;P != T1?;DT1_high_4;1;Different;high;96;70;112;f;n;0;j;b;1609.806800000115
6xza25#;47;False;2;P != T1?;DT2_low_4;2;Different;low;112;70;60;f;n;1;f;n;315.4748000001746
6xza25#;48;False;2;P != T2?;ST1_low_5;1;Same;low;96;154;96;f;n;0;j;b;2484.0328000000227
6xza25#;49;False;2;P != T2?;STb_8;0;Same;None;180;180;180;f;n;1;j;b;1559.026299999914
6xza25#;50;False;2;P != T1?;ST1_high_6;1;Same;high;132;96;132;f;n;1;j;v;3336.33860000009
6xza25#;51;False;2;P != T2?;ST1_low_2;1;Same;low;132;82;132;f;n;0;j;b;1860.1426000000174
6xza25#;52;False;2;P != T2?;STb_4;0;Same;None;96;96;96;f;n;1;j;b;2278.6564000002727
6xza25#;53;False;2;P != T2?;ST2_high_2;2;Same;high;112;82;82;f;n;1;j;b;691.3379000002351
6xza25#;54;False;2;P != T1?;ST1_low_5;1;Same;low;96;154;96;f;n;0;f;n;1039.1568000000007
6xza25#;55;False;2;P != T2?;ST2_high_6;2;Same;high;132;96;96;f;n;1;j;n;1007.5214999997115
6xza25#;56;False;2;P != T1?;ST2_low_1;2;Same;low;82;132;132;f;n;1;f;n;1335.100699999657
6xza25#;57;False;2;P != T2?;ST2_low_6;2;Same;low;154;96;96;f;n;1;j;b;657.2873000000072
6xza25#;58;False;2;P != T2?;ST1_high_6;1;Same;high;132;96;132;f;n;1;f;n;1080.894900000203
6xza25#;59;False;2;P != T2?;ST2_high_2;2;Same;high;112;82;82;f;n;1;j;n;855.4517999996278
6xza25#;60;False;2;P != T1?;DT1_low_6;1;Different;low;154;96;180;f;n;0;j;v;2466.0039000000324
6xza25#;61;False;2;P != T2?;ST1_low_3;1;Same;low;70;112;70;f;n;1;f;n;988.6313999995764
6xza25#;62;False;2;P != T1?;ST2_low_3;2;Same;low;70;112;112;f;n;1;f;v;1704.2848999999478
6xza25#;63;False;2;P != T1?;ST2_low_3;2;Same;low;70;112;112;f;n;1;f;b;1059.021300000495
6xza25#;64;False;2;P != T2?;ST2_high_1;2;Same;high;82;112;112;f;n;0;f;n;963.977800000066
6xza25#;65;False;2;P != T1?;ST2_low_2;2;Same;low;132;82;82;f;n;1;f;n;1091.9822999994722
6xza25#;66;False;2;P != T2?;ST1_high_4;1;Same;high;96;70;96;f;n;0;j;b;1225.9280000007493
6xza25#;67;False;2;P != T2?;ST1_high_2;1;Same;high;112;82;112;f;n;0;j;v;1134.8729000001185
6xza25#;68;False;2;P != T2?;ST2_low_3;2;Same;low;70;112;112;f;n;1;j;n;349.9019999999291
6xza25#;69;False;2;P != T1?;ST2_low_5;2;Same;low;96;154;154;f;n;0;j;n;1146.8469000001278
6xza25#;70;False;2;P != T2?;ST1_high_2;1;Same;high;112;82;112;f;n;1;f;n;939.9402000008195
6xza25#;71;False;2;P != T2?;ST2_low_5;2;Same;low;96;154;154;f;n;0;f;n;744.1230000003998
6xza25#;72;False;2;P != T1?;STb_2;0;Same;None;70;70;70;f;n;0;f;n;831.2061999995422
6xza25#;73;False;2;P != T2?;ST1_high_5;1;Same;high;96;132;96;f;n;1;f;n;1334.5968000003268
6xza25#;74;False;2;P != T2?;DT2_high_4;2;Different;high;96;70;60;f;n;1;f;b;1961.9794999998703
6xza25#;75;False;2;P != T1?;ST2_high_3;2;Same;high;70;96;96;f;n;1;f;n;1173.3702000001358
6xza25#;76;False;2;P != T1?;DT1_low_2;1;Different;low;132;82;154;f;n;1;f;v;1988.567399999738
6xza25#;77;False;2;P != T1?;ST2_low_6;2;Same;low;154;96;96;f;n;1;f;n;978.6168999999063
6xza25#;78;False;2;P != T1?;ST1_high_2;1;Same;high;112;82;112;f;n;1;j;n;1520.2570999999807
6xza25#;79;False;2;P != T1?;ST1_high_5;1;Same;high;96;132;96;f;n;0;f;n;885.0633000001835
6xza25#;80;False;2;P != T1?;ST2_high_6;2;Same;high;132;96;96;f;n;1;f;n;2006.436799999392
6xza25#;81;False;2;P != T1?;ST2_high_1;2;Same;high;82;112;112;f;n;1;f;v;1643.4171999999307
6xza25#;82;False;2;P != T2?;ST1_low_1;1;Same;low;82;132;82;f;n;1;f;n;629.9735000002329
6xza25#;83;False;2;P != T1?;ST2_high_2;2;Same;high;112;82;82;f;n;1;f;n;980.7982000002085
6xza25#;84;False;2;P != T2?;ST2_low_4;2;Same;low;112;70;70;f;n;1;j;n;1340.3191999996125
6xza25#;85;False;2;P != T1?;ST2_high_4;2;Same;high;96;70;70;f;n;1;f;n;897.6680000005217
6xza25#;86;False;2;P != T2?;ST1_low_6;1;Same;low;154;96;154;f;n;1;f;n;1715.2015000001484
6xza25#;87;False;2;P != T2?;ST1_low_6;1;Same;low;154;96;154;f;n;1;f;n;841.3589000001593
6xza25#;88;False;2;P != T2?;DT1_high_2;1;Different;high;112;82;132;f;n;1;f;n;518.7505000003512
6xza25#;89;False;2;P != T1?;ST1_high_2;1;Same;high;112;82;112;f;n;0;f;n;644.8382999997193
6xza25#;90;False;2;P != T2?;ST2_high_3;2;Same;high;70;96;96;f;n;1;j;v;3987.880600000608
6xza25#;91;False;2;P != T2?;ST1_high_6;1;Same;high;132;96;132;f;n;1;f;v;3344.2205999999715
6xza25#;92;False;2;P != T1?;ST1_high_3;1;Same;high;70;96;70;f;n;1;j;n;1022.6175000007061
6xza25#;93;False;2;P != T2?;STb_6;0;Same;None;132;132;132;f;n;0;f;n;449.5153999996546
6xza25#;94;False;2;P != T1?;ST2_low_6;2;Same;low;154;96;96;f;n;1;f;n;835.070099999939
6xza25#;95;False;2;P != T2?;ST2_low_2;2;Same;low;132;82;82;f;n;0;f;n;333.2818999997471
6xza25#;96;False;2;P != T2?;DT1_low_4;1;Different;low;112;70;132;f;n;1;f;n;556.3947999999073
6xza25#;97;False;2;P != T1?;STb_5;0;Same;None;112;112;112;f;n;1;j;n;396.08789999965666
6xza25#;98;False;2;P != T1?;ST1_low_6;1;Same;low;154;96;154;f;n;0;f;n;837.4778999996124
6xza25#;99;False;2;P != T1?;ST2_high_4;2;Same;high;96;70;70;f;n;1;f;n;4238.469099999747
6xza25#;100;False;2;P != T1?;ST2_high_3;2;Same;high;70;96;96;f;n;1;f;b;1048.7569999995685
6xza25#;101;False;2;P != T1?;ST1_low_4;1;Same;low;112;70;112;f;n;0;f;b;1206.232600000476
6xza25#;102;False;2;P != T1?;ST1_low_2;1;Same;low;132;82;132;f;n;1;j;v;1006.0118999999759
6xza25#;103;False;2;P != T1?;ST2_low_4;2;Same;low;112;70;70;f;n;1;f;b;886.7552000001524
6xza25#;104;False;2;P != T2?;ST2_high_5;2;Same;high;96;132;132;f;n;0;f;n;1606.7917999998826
6xza25#;105;False;2;P != T1?;DT1_low_3;1;Different;low;70;112;60;f;n;1;f;n;516.9838000001619
6xza25#;106;False;2;P != T1?;ST1_low_1;1;Same;low;82;132;82;f;n;1;j;v;827.5309999999081
6xza25#;107;False;2;P != T1?;ST1_high_6;1;Same;high;132;96;132;f;n;1;j;v;1842.6276000000144
6xza25#;108;False;2;P != T2?;ST2_high_4;2;Same;high;96;70;70;f;n;1;j;v;2133.2714999998643
6xza25#;109;False;2;P != T1?;ST2_high_6;2;Same;high;132;96;96;f;n;0;j;n;619.0422999998191
6xza25#;110;False;2;P != T2?;ST1_high_2;1;Same;high;112;82;112;f;n;0;j;n;1458.3512999997765
6xza25#;111;False;2;P != T1?;ST1_low_2;1;Same;low;132;82;132;f;n;1;j;b;2121.7084999998406
6xza25#;112;False;2;P != T2?;ST2_low_4;2;Same;low;112;70;70;f;n;0;f;v;1203.927399999884
6xza25#;113;False;2;P != T2?;ST2_high_3;2;Same;high;70;96;96;f;n;1;j;b;2502.484800000275
6xza25#;114;False;2;P != T1?;ST2_high_3;2;Same;high;70;96;96;f;n;0;j;n;703.4204999999929
6xza25#;115;False;2;P != T2?;ST2_low_1;2;Same;low;82;132;132;f;n;1;j;n;1612.17840000063
6xza25#;116;False;2;P != T1?;ST2_high_5;2;Same;high;96;132;132;f;n;1;f;b;1099.1340000000491
6xza25#;117;False;2;P != T2?;ST1_high_1;1;Same;high;82;112;82;f;n;0;j;b;955.8321000004071
6xza25#;118;False;2;P != T2?;ST2_high_6;2;Same;high;132;96;96;f;n;1;j;n;681.7509999991671
6xza25#;119;False;2;P != T1?;ST1_low_4;1;Same;low;112;70;112;f;n;1;j;b;1166.1880999999994
6xza25#;120;False;2;P != T1?;ST2_high_1;2;Same;high;82;112;112;f;n;0;j;n;1687.6954999997906
6xza25#;121;False;2;P != T1?;ST2_low_2;2;Same;low;132;82;82;f;n;0;j;n;1033.4980999996333
6xza25#;122;False;2;P != T1?;STb_4;0;Same;None;96;96;96;f;n;0;f;n;2164.7836000001917
6xza25#;123;False;2;P != T1?;ST1_low_6;1;Same;low;154;96;154;f;n;0;f;n;2351.324399999612
6xza25#;124;False;2;P != T1?;ST2_low_4;2;Same;low;112;70;70;f;n;0;j;b;2346.0175000000163
6xza25#;125;False;2;P != T1?;ST1_low_3;1;Same;low;70;112;70;f;n;1;j;v;1812.405700000454
6xza25#;126;False;2;P != T1?;ST2_low_3;2;Same;low;70;112;112;f;n;1;f;n;912.7574000003733
6xza25#;127;False;2;P != T1?;ST1_high_4;1;Same;high;96;70;96;f;n;0;f;n;1061.6147000000637
6xza25#;128;False;2;P != T1?;ST1_low_4;1;Same;low;112;70;112;f;n;0;f;n;1376.5048999994178
6xza25#;129;False;2;P != T2?;ST1_low_4;1;Same;low;112;70;112;f;n;1;f;n;713.2581000005302
6xza25#;130;False;2;P != T2?;ST1_high_3;1;Same;high;70;96;70;f;n;0;j;v;2897.1129000001383
6xza25#;131;False;2;P != T1?;ST2_low_4;2;Same;low;112;70;70;f;n;1;f;n;828.1507000001511
6xza25#;132;False;2;P != T1?;STb_3;0;Same;None;82;82;82;f;n;0;f;n;1259.9284999996598
6xza25#;133;False;2;P != T2?;ST2_low_2;2;Same;low;132;82;82;f;n;1;j;n;970.6404999997176
6xza25#;134;False;2;P != T2?;STb_1;0;Same;None;60;60;60;f;n;0;f;n;771.2925999994695
6xza25#;135;False;2;P != T1?;DT2_high_6;2;Different;high;132;96;82;f;n;0;j;v;1765.190000000075
6xza25#;136;False;2;P != T1?;STb_8;0;Same;None;180;180;180;f;n;1;j;n;587.882300000274
6xza25#;137;False;2;P != T2?;ST1_low_4;1;Same;low;112;70;112;f;n;1;f;n;836.653600000318
6xza25#;138;False;2;P != T2?;ST2_low_5;2;Same;low;96;154;154;f;n;1;j;n;1325.8887000001778
6xza25#;139;False;2;P != T1?;ST2_high_5;2;Same;high;96;132;132;f;n;1;f;n;828.3363000000463
6xza25#;140;False;2;P != T2?;ST2_low_4;2;Same;low;112;70;70;f;n;1;j;b;3539.3224999997983
6xza25#;141;False;2;P != T2?;ST1_high_4;1;Same;high;96;70;96;f;n;0;j;b;2816.9245999997656
6xza25#;142;False;2;P != T1?;ST1_low_5;1;Same;low;96;154;96;f;n;1;j;b;1531.2757000001511
6xza25#;143;False;2;P != T2?;ST2_high_1;2;Same;high;82;112;112;f;n;0;f;b;2189.1389000002164
6xza25#;144;False;2;P != T2?;ST1_high_3;1;Same;high;70;96;70;f;n;1;f;b;2268.116199999895
6xza25#;145;False;2;P != T1?;ST1_high_3;1;Same;high;70;96;70;f;n;1;j;n;289.11000000061904
6xza25#;146;False;2;P != T2?;ST2_high_5;2;Same;high;96;132;132;f;n;1;j;n;484.6131999993304
6xza25#;147;False;2;P != T2?;ST1_low_3;1;Same;low;70;112;70;f;n;1;f;n;926.6591000005064
6xza25#;148;False;2;P != T2?;ST2_low_3;2;Same;low;70;112;112;f;n;0;f;b;2693.6193999999887
6xza25#;149;False;2;P != T1?;ST1_low_3;1;Same;low;70;112;70;f;n;0;f;n;636.9381999993493
6xza25#;150;False;2;P != T1?;ST2_low_2;2;Same;low;132;82;82;f;n;1;f;v;2576.8275999998878
6xza25#;151;False;2;P != T2?;ST2_low_6;2;Same;low;154;96;96;f;n;1;j;v;3046.2918999992326
6xza25#;152;False;2;P != T1?;ST1_high_1;1;Same;high;82;112;82;f;n;1;j;b;1438.4283999997933
6xza25#;153;False;2;P != T2?;DT1_low_5;1;Different;low;96;154;82;f;n;1;f;b;859.03320000034
6xza25#;154;False;2;P != T2?;ST1_high_4;1;Same;high;96;70;96;f;n;1;f;n;1489.6868999994695
6xza25#;155;False;2;P != T2?;ST2_low_6;2;Same;low;154;96;96;f;n;0;f;b;1818.6522000005425
6xza25#;156;False;2;P != T1?;ST2_high_1;2;Same;high;82;112;112;f;n;1;f;b;1096.9957000006616
6xza25#;157;False;2;P != T2?;DT1_high_5;1;Different;high;96;132;82;f;n;0;j;n;1052.8111000003264
6xza25#;158;False;2;P != T1?;DT1_high_1;1;Different;high;82;112;70;f;n;1;f;n;839.7397999997338
6xza25#;159;False;2;P != T1?;ST2_low_5;2;Same;low;96;154;154;f;n;1;f;n;863.3740999994188
6xza25#;160;False;2;P != T2?;ST2_low_5;2;Same;low;96;154;154;f;n;1;j;n;997.2662999998647
6xza25#;161;False;2;P != T2?;ST2_high_4;2;Same;high;96;70;70;f;n;0;f;b;1225.7139000003008
6xza25#;162;False;2;P != T2?;ST2_high_1;2;Same;high;82;112;112;f;n;0;f;n;1053.1726999997773
6xza25#;163;False;2;P != T1?;ST2_high_4;2;Same;high;96;70;70;f;n;1;f;n;867.3908000000665
6xza25#;164;False;2;P != T1?;ST1_high_6;1;Same;high;132;96;132;f;n;0;f;n;667.8750000000946
6xza25#;165;False;2;P != T2?;ST2_low_1;2;Same;low;82;132;132;f;n;0;f;n;1799.543199999789
6xza25#;166;False;2;P != T1?;STb_7;0;Same;None;154;154;154;f;n;1;j;n;2031.9727000005514
6xza25#;167;False;2;P != T2?;ST2_low_1;2;Same;low;82;132;132;f;n;1;j;n;1120.7294000005277
6xza25#;168;False;2;P != T2?;ST2_high_5;2;Same;high;96;132;132;f;n;0;f;n;1265.2937000002566
6xza25#;169;False;2;P != T1?;ST2_low_6;2;Same;low;154;96;96;f;n;1;f;n;987.0013999998264
6xza25#;170;False;2;P != T1?;ST1_high_4;1;Same;high;96;70;96;f;n;0;f;n;722.6996999997937
6xza25#;171;False;2;P != T2?;ST1_low_2;1;Same;low;132;82;132;f;n;1;f;n;1207.4179000001095
6xza25#;172;False;2;P != T1?;ST1_low_6;1;Same;low;154;96;154;f;n;1;j;b;2158.917900000233
6xza25#;173;False;2;P != T1?;ST1_high_4;1;Same;high;96;70;96;f;n;0;f;b;1573.8977000000887
6xza25#;174;False;2;P != T2?;STb_3;0;Same;None;82;82;82;f;n;1;j;n;837.5622000003204
6xza25#;175;False;2;P != T2?;ST2_high_4;2;Same;high;96;70;70;f;n;1;j;b;2954.305899999781
6xza25#;176;False;2;P != T2?;ST1_low_5;1;Same;low;96;154;96;f;n;1;f;n;1384.9638000001505
