p_code;trial_nr;practice;block;question;condition;seqPos;Same_or_Diff;ITS;T1_hz;T2_hz;P_hz;yes_key;sure_key;correct;yes_no;rating;resp_time
35s#rz9;1;True;1;P != T2?;STb_8;0;Same;None;180;180;180;f;v;0;f;b;31356.17859999911
35s#rz9;2;True;1;P != T2?;ST2_low_5;2;Same;low;96;154;154;f;v;1;j;v;3694.1334000002826
35s#rz9;3;True;1;P != T1?;DT1_high_5;1;Different;high;96;132;82;f;v;0;j;v;1444.302500000049
35s#rz9;4;True;1;P != T1?;DT1_high_4;1;Different;high;96;70;112;f;v;0;j;v;2186.0955000011018
35s#rz9;5;True;1;P != T1?;STb_5;0;Same;None;112;112;112;f;v;1;j;v;1899.7521999990568
35s#rz9;6;True;1;P != T1?;ST2_high_3;2;Same;high;70;96;96;f;v;1;f;v;4036.3782000003994
35s#rz9;7;True;1;P != T2?;ST1_high_4;1;Same;high;96;70;96;f;v;1;f;v;1774.282000000312
35s#rz9;8;True;1;P != T2?;DT1_low_1;1;Different;low;82;132;70;f;v;1;f;v;3537.8388999997696
35s#rz9;9;True;1;P != T1?;STb_2;0;Same;None;70;70;70;f;v;1;j;v;2377.470800000083
35s#rz9;10;True;1;P != T1?;ST2_high_4;2;Same;high;96;70;70;f;v;1;f;b;2937.348199999178
35s#rz9;11;True;1;P != T2?;STb_1;0;Same;None;60;60;60;f;v;1;j;v;1859.223800000109
35s#rz9;12;True;1;P != T1?;ST1_high_2;1;Same;high;112;82;112;f;v;1;j;v;1050.0532999994903
35s#rz9;13;True;1;P != T2?;ST2_low_5;2;Same;low;96;154;154;f;v;1;j;v;1353.801299999759
35s#rz9;14;True;1;P != T1?;ST1_high_1;1;Same;high;82;112;82;f;v;1;j;v;3397.73889999924
35s#rz9;15;True;1;P != T2?;ST1_high_1;1;Same;high;82;112;82;f;v;1;f;b;4404.0965999993205
35s#rz9;16;True;1;P != T2?;DT2_low_2;2;Different;low;132;82;70;f;v;0;j;v;943.6588999997184
p_code;trial_nr;practice;block;question;condition;seqPos;Same_or_Diff;ITS;T1_hz;T2_hz;P_hz;yes_key;sure_key;correct;yes_no;rating;resp_time
35s#rz9;1;False;1;P != T1?;ST2_high_5;2;Same;high;96;132;132;f;v;0;j;n;1706.468099999256
35s#rz9;2;False;1;P != T2?;ST2_low_4;2;Same;low;112;70;70;f;v;1;j;v;1926.4462000010099
35s#rz9;3;False;1;P != T2?;ST2_low_6;2;Same;low;154;96;96;f;v;1;j;v;1177.0005999987916
35s#rz9;4;False;1;P != T1?;ST2_low_3;2;Same;low;70;112;112;f;v;1;f;v;2868.6828000008973
35s#rz9;5;False;1;P != T2?;ST1_high_4;1;Same;high;96;70;96;f;v;1;f;b;3340.5628000000434
35s#rz9;6;False;1;P != T1?;ST1_low_4;1;Same;low;112;70;112;f;v;1;j;v;1700.8999999998196
35s#rz9;7;False;1;P != T1?;ST1_high_1;1;Same;high;82;112;82;f;v;1;j;v;1146.6772000003402
35s#rz9;8;False;1;P != T2?;ST2_high_2;2;Same;high;112;82;82;f;v;1;j;v;985.7289999999921
35s#rz9;9;False;1;P != T1?;ST1_high_6;1;Same;high;132;96;132;f;v;1;j;v;918.6785000001692
35s#rz9;10;False;1;P != T1?;ST2_low_6;2;Same;low;154;96;96;f;v;1;f;v;2451.5864000004512
35s#rz9;11;False;1;P != T2?;ST2_high_3;2;Same;high;70;96;96;f;v;0;f;b;2493.6831000013626
35s#rz9;12;False;1;P != T1?;ST2_low_2;2;Same;low;132;82;82;f;v;1;f;v;2204.8401000010927
35s#rz9;13;False;1;P != T2?;ST2_high_5;2;Same;high;96;132;132;f;v;1;j;v;3528.7652000006346
35s#rz9;14;False;1;P != T1?;STb_6;0;Same;None;132;132;132;f;v;1;j;v;1429.195400000026
35s#rz9;15;False;1;P != T2?;ST2_low_5;2;Same;low;96;154;154;f;v;1;j;v;979.1084999997111
35s#rz9;16;False;1;P != T2?;ST2_low_5;2;Same;low;96;154;154;f;v;1;j;v;1109.3897999999172
35s#rz9;17;False;1;P != T1?;ST1_low_5;1;Same;low;96;154;96;f;v;1;j;v;1000.0745999986975
35s#rz9;18;False;1;P != T1?;DT1_low_1;1;Different;low;82;132;70;f;v;0;j;b;1101.7234999999346
35s#rz9;19;False;1;P != T1?;ST2_high_5;2;Same;high;96;132;132;f;v;1;f;v;1555.7514000010997
35s#rz9;20;False;1;P != T2?;ST2_low_3;2;Same;low;70;112;112;f;v;1;j;v;1189.016199999969
35s#rz9;21;False;1;P != T2?;ST1_low_5;1;Same;low;96;154;96;f;v;1;f;v;2513.2516999983636
35s#rz9;22;False;1;P != T1?;ST2_low_3;2;Same;low;70;112;112;f;v;1;f;v;1170.2442999994673
35s#rz9;23;False;1;P != T1?;ST2_high_3;2;Same;high;70;96;96;f;v;1;f;v;1207.5394999992568
35s#rz9;24;False;1;P != T2?;ST2_high_4;2;Same;high;96;70;70;f;v;1;j;v;1288.613799999439
35s#rz9;25;False;1;P != T2?;ST2_low_1;2;Same;low;82;132;132;f;v;0;f;b;4285.152799999196
35s#rz9;26;False;1;P != T1?;ST1_high_5;1;Same;high;96;132;96;f;v;0;f;v;1371.1129000002984
35s#rz9;27;False;1;P != T2?;ST2_high_2;2;Same;high;112;82;82;f;v;1;j;v;1245.8260000003065
35s#rz9;28;False;1;P != T1?;ST2_low_5;2;Same;low;96;154;154;f;v;1;f;v;1734.2305999991368
35s#rz9;29;False;1;P != T2?;ST2_low_1;2;Same;low;82;132;132;f;v;1;j;b;2440.52770000053
35s#rz9;30;False;1;P != T2?;ST1_high_3;1;Same;high;70;96;70;f;v;1;f;v;1355.894199999966
35s#rz9;31;False;1;P != T1?;ST1_low_5;1;Same;low;96;154;96;f;v;0;f;b;4258.210999998482
35s#rz9;32;False;1;P != T2?;ST1_low_2;1;Same;low;132;82;132;f;v;1;f;v;2038.6075000005803
35s#rz9;33;False;1;P != T2?;ST2_low_6;2;Same;low;154;96;96;f;v;1;j;v;1049.4488999993337
35s#rz9;34;False;1;P != T2?;ST2_high_4;2;Same;high;96;70;70;f;v;1;j;v;940.6948000014381
35s#rz9;35;False;1;P != T1?;ST1_high_3;1;Same;high;70;96;70;f;v;1;j;v;1434.997000000294
35s#rz9;36;False;1;P != T1?;ST1_high_4;1;Same;high;96;70;96;f;v;1;j;v;867.9751999989094
35s#rz9;37;False;1;P != T1?;STb_5;0;Same;None;112;112;112;f;v;1;j;v;881.4762000001792
35s#rz9;38;False;1;P != T1?;ST2_low_5;2;Same;low;96;154;154;f;v;1;f;v;4611.25549999997
35s#rz9;39;False;1;P != T1?;ST1_low_6;1;Same;low;154;96;154;f;v;1;j;v;1191.3589000014326
35s#rz9;40;False;1;P != T2?;ST1_high_6;1;Same;high;132;96;132;f;v;1;f;v;1215.0987000004534
35s#rz9;41;False;1;P != T1?;DT1_low_4;1;Different;low;112;70;132;f;v;1;f;b;2587.7497999990737
35s#rz9;42;False;1;P != T1?;ST1_low_2;1;Same;low;132;82;132;f;v;0;f;b;2511.6821999999956
35s#rz9;43;False;1;P != T1?;ST1_high_5;1;Same;high;96;132;96;f;v;1;j;v;1082.902699999977
35s#rz9;44;False;1;P != T1?;ST2_high_3;2;Same;high;70;96;96;f;v;1;f;v;2433.509000000413
35s#rz9;45;False;1;P != T1?;ST2_high_2;2;Same;high;112;82;82;f;v;0;j;v;2104.689799998596
35s#rz9;46;False;1;P != T1?;ST1_low_4;1;Same;low;112;70;112;f;v;0;f;b;1674.5938000003662
35s#rz9;47;False;1;P != T2?;ST1_low_5;1;Same;low;96;154;96;f;v;1;f;v;1302.2897000009834
35s#rz9;48;False;1;P != T2?;ST2_high_5;2;Same;high;96;132;132;f;v;0;f;v;1610.5905000003986
35s#rz9;49;False;1;P != T1?;STb_3;0;Same;None;82;82;82;f;v;1;j;b;2658.520499999213
35s#rz9;50;False;1;P != T1?;DT2_high_1;2;Different;high;82;112;132;f;v;1;f;v;3294.3778000008024
35s#rz9;51;False;1;P != T1?;ST2_high_4;2;Same;high;96;70;70;f;v;1;f;v;2149.2622999994637
35s#rz9;52;False;1;P != T2?;ST2_high_1;2;Same;high;82;112;112;f;v;1;j;b;2438.8253999986773
35s#rz9;53;False;1;P != T2?;DT1_low_1;1;Different;low;82;132;70;f;v;1;f;v;1357.2795999989467
35s#rz9;54;False;1;P != T2?;STb_4;0;Same;None;96;96;96;f;v;1;j;v;1719.5465999993758
35s#rz9;55;False;1;P != T1?;ST1_high_2;1;Same;high;112;82;112;f;v;1;j;b;1033.214400000361
35s#rz9;56;False;1;P != T2?;ST1_high_5;1;Same;high;96;132;96;f;v;1;f;v;1249.433399998452
35s#rz9;57;False;1;P != T1?;ST2_low_4;2;Same;low;112;70;70;f;v;1;f;v;1297.4441000005754
35s#rz9;58;False;1;P != T2?;STb_8;0;Same;None;180;180;180;f;v;1;j;v;1037.9481999989366
35s#rz9;59;False;1;P != T2?;ST1_low_6;1;Same;low;154;96;154;f;v;1;f;v;1128.0097999988357
35s#rz9;60;False;1;P != T1?;ST1_low_6;1;Same;low;154;96;154;f;v;1;j;v;1265.9017000005406
35s#rz9;61;False;1;P != T2?;ST1_high_6;1;Same;high;132;96;132;f;v;1;f;v;1301.5459999987797
35s#rz9;62;False;1;P != T2?;ST1_low_3;1;Same;low;70;112;70;f;v;1;f;v;1123.598000000129
35s#rz9;63;False;1;P != T1?;DT2_high_6;2;Different;high;132;96;82;f;v;1;f;b;3623.680000000604
35s#rz9;64;False;1;P != T2?;DT2_high_6;2;Different;high;132;96;82;f;v;0;j;v;1551.697900000363
35s#rz9;65;False;1;P != T1?;ST2_low_1;2;Same;low;82;132;132;f;v;1;f;v;1830.6462000000465
35s#rz9;66;False;1;P != T1?;ST1_high_4;1;Same;high;96;70;96;f;v;1;j;v;1266.7528000001766
35s#rz9;67;False;1;P != T2?;ST2_low_4;2;Same;low;112;70;70;f;v;1;j;v;950.6440000004659
35s#rz9;68;False;1;P != T2?;ST1_low_1;1;Same;low;82;132;82;f;v;1;f;v;5099.793499999578
35s#rz9;69;False;1;P != T2?;STb_2;0;Same;None;70;70;70;f;v;1;j;v;1554.1054000004806
35s#rz9;70;False;1;P != T2?;ST2_low_6;2;Same;low;154;96;96;f;v;0;f;v;3274.031799999648
35s#rz9;71;False;1;P != T2?;ST1_high_2;1;Same;high;112;82;112;f;v;1;f;v;1343.904499999553
35s#rz9;72;False;1;P != T2?;ST2_high_6;2;Same;high;132;96;96;f;v;1;j;v;995.2522000003228
35s#rz9;73;False;1;P != T1?;DT1_high_4;1;Different;high;96;70;112;f;v;0;j;b;2018.4747999992396
35s#rz9;74;False;1;P != T1?;ST1_low_5;1;Same;low;96;154;96;f;v;1;j;v;1323.540099998354
35s#rz9;75;False;1;P != T1?;ST2_high_1;2;Same;high;82;112;112;f;v;1;f;v;2780.4966999992757
35s#rz9;76;False;1;P != T1?;DT2_low_6;2;Different;low;154;96;82;f;v;1;f;v;1135.2169000001595
35s#rz9;77;False;1;P != T1?;DT2_low_2;2;Different;low;132;82;70;f;v;1;f;v;1166.0512999987986
35s#rz9;78;False;1;P != T2?;ST1_high_1;1;Same;high;82;112;82;f;v;1;f;v;2034.2270000001008
35s#rz9;79;False;1;P != T2?;DT2_high_2;2;Different;high;112;82;70;f;v;0;j;b;2026.0871999998926
35s#rz9;80;False;1;P != T2?;ST1_low_1;1;Same;low;82;132;82;f;v;1;f;v;982.5949999994918
35s#rz9;81;False;1;P != T1?;ST1_low_2;1;Same;low;132;82;132;f;v;1;j;v;987.9091999991942
35s#rz9;82;False;1;P != T2?;ST1_low_6;1;Same;low;154;96;154;f;v;1;f;v;2312.9229999995005
35s#rz9;83;False;1;P != T1?;ST2_high_1;2;Same;high;82;112;112;f;v;1;f;v;1044.0523000015673
35s#rz9;84;False;1;P != T1?;ST2_high_3;2;Same;high;70;96;96;f;v;1;f;v;1159.6370999995997
35s#rz9;85;False;1;P != T2?;ST2_high_6;2;Same;high;132;96;96;f;v;1;j;v;971.6846000010264
35s#rz9;86;False;1;P != T1?;ST2_high_2;2;Same;high;112;82;82;f;v;0;j;v;1003.6631000002671
35s#rz9;87;False;1;P != T1?;ST1_low_3;1;Same;low;70;112;70;f;v;1;j;v;1286.773899999389
35s#rz9;88;False;1;P != T2?;ST1_low_4;1;Same;low;112;70;112;f;v;1;f;v;1145.8505999999034
35s#rz9;89;False;1;P != T2?;ST1_high_6;1;Same;high;132;96;132;f;v;1;f;v;2953.790300000037
35s#rz9;90;False;1;P != T2?;ST2_low_3;2;Same;low;70;112;112;f;v;1;j;v;1138.30599999892
35s#rz9;91;False;1;P != T1?;STb_7;0;Same;None;154;154;154;f;v;1;j;v;1122.295799999847
35s#rz9;92;False;1;P != T2?;ST2_high_5;2;Same;high;96;132;132;f;v;1;j;v;991.4685000003374
35s#rz9;93;False;1;P != T1?;ST2_high_4;2;Same;high;96;70;70;f;v;1;f;v;1166.9873999999254
35s#rz9;94;False;1;P != T1?;ST2_low_6;2;Same;low;154;96;96;f;v;1;f;v;1060.7248000014806
35s#rz9;95;False;1;P != T1?;ST1_high_5;1;Same;high;96;132;96;f;v;1;j;v;782.1222000002308
35s#rz9;96;False;1;P != T1?;ST2_low_5;2;Same;low;96;154;154;f;v;1;f;v;2235.2604000006977
35s#rz9;97;False;1;P != T1?;ST2_low_2;2;Same;low;132;82;82;f;v;1;f;v;1140.8931000005396
35s#rz9;98;False;1;P != T2?;ST1_low_6;1;Same;low;154;96;154;f;v;1;f;v;1446.7640999992
35s#rz9;99;False;1;P != T2?;DT2_high_5;2;Different;high;96;132;154;f;v;0;j;v;1183.204900000419
35s#rz9;100;False;1;P != T2?;ST2_low_2;2;Same;low;132;82;82;f;v;1;j;v;1030.8351000003313
35s#rz9;101;False;1;P != T2?;ST2_low_1;2;Same;low;82;132;132;f;v;0;f;b;1255.5388000000676
35s#rz9;102;False;1;P != T2?;STb_3;0;Same;None;82;82;82;f;v;1;j;v;1909.2626000001474
35s#rz9;103;False;1;P != T2?;ST2_high_6;2;Same;high;132;96;96;f;v;0;f;v;1139.7787999994762
35s#rz9;104;False;1;P != T2?;DT2_low_3;2;Different;low;70;112;132;f;v;1;f;v;1017.7843999990728
35s#rz9;105;False;1;P != T1?;ST2_high_1;2;Same;high;82;112;112;f;v;1;f;v;1067.2637999996368
35s#rz9;106;False;1;P != T2?;DT1_low_4;1;Different;low;112;70;132;f;v;1;f;v;1132.5494000011531
35s#rz9;107;False;1;P != T1?;ST2_low_6;2;Same;low;154;96;96;f;v;1;f;v;1094.7135999995226
35s#rz9;108;False;1;P != T1?;ST1_low_4;1;Same;low;112;70;112;f;v;1;j;b;1161.1480999999912
35s#rz9;109;False;1;P != T2?;ST2_high_2;2;Same;high;112;82;82;f;v;1;j;b;1293.9868000012211
35s#rz9;110;False;1;P != T2?;ST1_high_5;1;Same;high;96;132;96;f;v;0;j;v;2689.959400000589
35s#rz9;111;False;1;P != T2?;ST2_low_2;2;Same;low;132;82;82;f;v;0;f;v;1994.9696000003314
35s#rz9;112;False;1;P != T2?;ST2_low_3;2;Same;low;70;112;112;f;v;0;f;v;1384.2761000014434
35s#rz9;113;False;1;P != T2?;ST1_high_5;1;Same;high;96;132;96;f;v;1;f;v;1108.2853000007162
35s#rz9;114;False;1;P != T2?;ST2_high_3;2;Same;high;70;96;96;f;v;0;f;b;1338.0008999993152
35s#rz9;115;False;1;P != T1?;ST2_low_3;2;Same;low;70;112;112;f;v;0;j;b;1420.1376000000892
35s#rz9;116;False;1;P != T2?;ST1_high_1;1;Same;high;82;112;82;f;v;1;f;v;1147.3220999996556
35s#rz9;117;False;1;P != T2?;ST2_high_1;2;Same;high;82;112;112;f;v;1;j;v;1148.9955999986705
35s#rz9;118;False;1;P != T2?;ST2_high_3;2;Same;high;70;96;96;f;v;1;j;v;834.2159000003448
35s#rz9;119;False;1;P != T1?;ST1_high_1;1;Same;high;82;112;82;f;v;1;j;v;1020.6302000005962
35s#rz9;120;False;1;P != T1?;ST1_low_1;1;Same;low;82;132;82;f;v;1;j;b;1019.5516999992833
35s#rz9;121;False;1;P != T2?;ST1_high_2;1;Same;high;112;82;112;f;v;1;f;v;947.2843000003195
35s#rz9;122;False;1;P != T2?;ST2_high_4;2;Same;high;96;70;70;f;v;1;j;v;969.5121000004292
35s#rz9;123;False;1;P != T2?;ST1_low_4;1;Same;low;112;70;112;f;v;1;f;v;1060.1091999997152
35s#rz9;124;False;1;P != T2?;STb_1;0;Same;None;60;60;60;f;v;1;j;v;926.4834000005067
35s#rz9;125;False;1;P != T1?;ST2_high_6;2;Same;high;132;96;96;f;v;1;f;v;889.0410999993037
35s#rz9;126;False;1;P != T2?;ST1_high_2;1;Same;high;112;82;112;f;v;1;f;v;1172.2118000016053
35s#rz9;127;False;1;P != T1?;ST1_low_3;1;Same;low;70;112;70;f;v;1;j;v;1255.964000001768
35s#rz9;128;False;1;P != T1?;ST2_high_2;2;Same;high;112;82;82;f;v;1;f;v;1198.4768000002077
35s#rz9;129;False;1;P != T1?;ST2_high_4;2;Same;high;96;70;70;f;v;0;j;b;2239.841200000228
35s#rz9;130;False;1;P != T2?;ST1_high_4;1;Same;high;96;70;96;f;v;1;f;v;995.8907999989606
35s#rz9;131;False;1;P != T2?;ST1_low_3;1;Same;low;70;112;70;f;v;1;f;v;1038.65020000012
35s#rz9;132;False;1;P != T2?;ST1_high_3;1;Same;high;70;96;70;f;v;1;f;v;1047.31399999946
35s#rz9;133;False;1;P != T1?;ST2_low_1;2;Same;low;82;132;132;f;v;1;f;v;993.0007999992085
35s#rz9;134;False;1;P != T2?;ST2_low_5;2;Same;low;96;154;154;f;v;1;j;v;766.2579999996524
35s#rz9;135;False;1;P != T1?;ST1_high_3;1;Same;high;70;96;70;f;v;1;j;v;1558.0952000000252
35s#rz9;136;False;1;P != T2?;ST1_low_1;1;Same;low;82;132;82;f;v;1;f;v;1049.489300001369
35s#rz9;137;False;1;P != T1?;STb_8;0;Same;None;180;180;180;f;v;1;j;v;1254.2460999993637
35s#rz9;138;False;1;P != T1?;ST1_high_3;1;Same;high;70;96;70;f;v;1;j;b;1438.578499999494
35s#rz9;139;False;1;P != T2?;ST1_high_1;1;Same;high;82;112;82;f;v;1;f;v;997.997899999973
35s#rz9;140;False;1;P != T1?;STb_4;0;Same;None;96;96;96;f;v;0;f;v;1808.5203000009642
35s#rz9;141;False;1;P != T1?;ST1_high_4;1;Same;high;96;70;96;f;v;1;j;b;948.1219000008423
35s#rz9;142;False;1;P != T2?;ST1_low_5;1;Same;low;96;154;96;f;v;1;f;v;1028.605499999685
35s#rz9;143;False;1;P != T2?;STb_5;0;Same;None;112;112;112;f;v;0;f;v;1618.6397000001307
35s#rz9;144;False;1;P != T1?;ST2_high_6;2;Same;high;132;96;96;f;v;1;f;v;1520.8031999991363
35s#rz9;145;False;1;P != T1?;ST2_high_6;2;Same;high;132;96;96;f;v;1;f;v;974.7501000001648
35s#rz9;146;False;1;P != T1?;ST1_high_2;1;Same;high;112;82;112;f;v;0;f;b;4274.3882999984635
35s#rz9;147;False;1;P != T2?;ST1_low_3;1;Same;low;70;112;70;f;v;1;f;v;972.2816000012244
35s#rz9;148;False;1;P != T1?;ST1_low_1;1;Same;low;82;132;82;f;v;0;f;b;3302.783000001
35s#rz9;149;False;1;P != T1?;ST1_low_1;1;Same;low;82;132;82;f;v;0;f;v;1050.708000000668
35s#rz9;150;False;1;P != T2?;ST1_low_2;1;Same;low;132;82;132;f;v;1;f;v;1031.5282999999908
35s#rz9;151;False;1;P != T1?;ST2_high_5;2;Same;high;96;132;132;f;v;1;f;v;910.1227000010113
35s#rz9;152;False;1;P != T2?;ST1_high_4;1;Same;high;96;70;96;f;v;1;f;v;2079.104100001132
35s#rz9;153;False;1;P != T2?;ST1_low_4;1;Same;low;112;70;112;f;v;1;f;v;987.6007999991998
35s#rz9;154;False;1;P != T1?;ST1_low_3;1;Same;low;70;112;70;f;v;1;j;v;1088.6649999993097
35s#rz9;155;False;1;P != T1?;ST1_low_2;1;Same;low;132;82;132;f;v;1;j;b;1172.8538000006665
35s#rz9;156;False;1;P != T1?;ST1_high_1;1;Same;high;82;112;82;f;v;0;f;b;7469.740099999399
35s#rz9;157;False;1;P != T1?;STb_2;0;Same;None;70;70;70;f;v;1;j;v;1110.2453000003152
35s#rz9;158;False;1;P != T2?;STb_6;0;Same;None;132;132;132;f;v;0;f;v;1565.7755000011093
35s#rz9;159;False;1;P != T1?;ST1_high_2;1;Same;high;112;82;112;f;v;1;j;v;943.4842999999091
35s#rz9;160;False;1;P != T2?;DT2_low_1;2;Different;low;82;132;154;f;v;1;f;b;1569.1812000004575
35s#rz9;161;False;1;P != T1?;STb_1;0;Same;None;60;60;60;f;v;1;j;v;2147.72769999945
35s#rz9;162;False;1;P != T1?;ST1_high_6;1;Same;high;132;96;132;f;v;0;f;v;906.8895000000339
35s#rz9;163;False;1;P != T1?;ST2_low_2;2;Same;low;132;82;82;f;v;1;f;v;1013.4192999994411
35s#rz9;164;False;1;P != T2?;ST2_low_2;2;Same;low;132;82;82;f;v;1;j;v;1034.6014999995532
35s#rz9;165;False;1;P != T1?;DT1_high_1;1;Different;high;82;112;70;f;v;0;j;b;1371.2266000002273
35s#rz9;166;False;1;P != T2?;ST1_low_2;1;Same;low;132;82;132;f;v;1;f;v;1161.5906999995786
35s#rz9;167;False;1;P != T2?;ST2_high_1;2;Same;high;82;112;112;f;v;1;j;b;1067.3396000001958
35s#rz9;168;False;1;P != T1?;ST2_low_1;2;Same;low;82;132;132;f;v;1;f;v;1060.9774999993533
35s#rz9;169;False;1;P != T2?;ST2_low_4;2;Same;low;112;70;70;f;v;1;j;v;850.3230999995139
35s#rz9;170;False;1;P != T2?;ST1_high_3;1;Same;high;70;96;70;f;v;1;f;v;1123.5065999990184
35s#rz9;171;False;1;P != T1?;ST2_low_4;2;Same;low;112;70;70;f;v;1;f;b;2927.881499999785
35s#rz9;172;False;1;P != T1?;ST1_low_6;1;Same;low;154;96;154;f;v;1;j;v;992.295699999886
35s#rz9;173;False;1;P != T2?;STb_7;0;Same;None;154;154;154;f;v;0;f;v;1021.0803999998461
35s#rz9;174;False;1;P != T1?;ST2_low_4;2;Same;low;112;70;70;f;v;1;f;v;899.489999999787
35s#rz9;175;False;1;P != T2?;DT2_high_4;2;Different;high;96;70;60;f;v;1;f;v;885.019100000136
35s#rz9;176;False;1;P != T1?;ST1_high_6;1;Same;high;132;96;132;f;v;1;j;b;819.743500000186
35s#rz9;1;True;2;P = T1?;DT2_low_2;2;Different;low;132;82;70;f;v;1;j;v;1859.1512000002695
35s#rz9;2;True;2;P = T1?;STb_4;0;Same;None;96;96;96;f;v;1;f;v;1335.3217000003497
35s#rz9;3;True;2;P = T2?;ST2_high_1;2;Same;high;82;112;112;f;v;1;f;v;1737.127700000201
35s#rz9;4;True;2;P = T1?;ST1_low_2;1;Same;low;132;82;132;f;v;1;f;v;1047.5124000004143
35s#rz9;5;True;2;P = T2?;STb_5;0;Same;None;112;112;112;f;v;0;j;v;1646.1003000003984
35s#rz9;6;True;2;P = T2?;ST1_low_5;1;Same;low;96;154;96;f;v;1;j;v;2556.0793000004196
35s#rz9;7;True;2;P = T2?;DT2_low_2;2;Different;low;132;82;70;f;v;0;f;v;933.7004999997589
35s#rz9;8;True;2;P = T2?;ST1_high_6;1;Same;high;132;96;132;f;v;1;j;v;1174.6316000007937
35s#rz9;9;True;2;P = T1?;ST2_high_2;2;Same;high;112;82;82;f;v;1;j;v;1177.8223000001162
35s#rz9;10;True;2;P = T1?;DT1_high_1;1;Different;high;82;112;70;f;v;0;f;v;1124.8230999990483
35s#rz9;11;True;2;P = T2?;DT2_low_4;2;Different;low;112;70;60;f;v;0;f;v;894.4054999992659
35s#rz9;12;True;2;P = T1?;ST2_high_5;2;Same;high;96;132;132;f;v;1;j;b;1509.2019000003347
35s#rz9;13;True;2;P = T1?;ST1_low_5;1;Same;low;96;154;96;f;v;1;f;v;1074.2642000004707
35s#rz9;14;True;2;P = T2?;STb_8;0;Same;None;180;180;180;f;v;0;j;v;1342.7430000010645
35s#rz9;15;True;2;P = T1?;STb_2;0;Same;None;70;70;70;f;v;0;j;v;2257.7977999990253
35s#rz9;16;True;2;P = T2?;ST2_high_3;2;Same;high;70;96;96;f;v;0;j;v;1742.9166000001715
35s#rz9;1;False;2;P = T1?;ST2_low_4;2;Same;low;112;70;70;f;v;1;j;v;2849.095199999283
35s#rz9;2;False;2;P = T1?;ST2_low_5;2;Same;low;96;154;154;f;v;1;j;v;1317.4436999997852
35s#rz9;3;False;2;P = T1?;ST1_high_4;1;Same;high;96;70;96;f;v;1;f;b;2217.1558999998524
35s#rz9;4;False;2;P = T2?;ST1_low_1;1;Same;low;82;132;82;f;v;1;j;v;1507.2930000005726
35s#rz9;5;False;2;P = T2?;ST2_high_1;2;Same;high;82;112;112;f;v;0;j;v;1067.0592000005854
35s#rz9;6;False;2;P = T2?;ST2_low_6;2;Same;low;154;96;96;f;v;0;j;v;1356.7678999988857
35s#rz9;7;False;2;P = T1?;ST1_high_5;1;Same;high;96;132;96;f;v;1;f;b;1463.6382999997295
35s#rz9;8;False;2;P = T2?;ST1_high_2;1;Same;high;112;82;112;f;v;1;j;v;1142.9538000011235
35s#rz9;9;False;2;P = T1?;STb_1;0;Same;None;60;60;60;f;v;1;f;v;900.1685999992333
35s#rz9;10;False;2;P = T2?;ST2_low_4;2;Same;low;112;70;70;f;v;1;f;v;838.8040999998339
35s#rz9;11;False;2;P = T1?;STb_6;0;Same;None;132;132;132;f;v;1;f;v;1012.0433000010962
35s#rz9;12;False;2;P = T1?;ST2_high_2;2;Same;high;112;82;82;f;v;1;j;v;1543.5137000004033
35s#rz9;13;False;2;P = T2?;ST2_low_2;2;Same;low;132;82;82;f;v;1;f;b;1327.3946000008436
35s#rz9;14;False;2;P = T2?;ST2_low_5;2;Same;low;96;154;154;f;v;0;j;v;1082.2950999991008
35s#rz9;15;False;2;P = T2?;ST1_high_2;1;Same;high;112;82;112;f;v;1;j;b;921.6687999996793
35s#rz9;16;False;2;P = T2?;ST2_low_1;2;Same;low;82;132;132;f;v;1;f;b;1190.8958999993047
35s#rz9;17;False;2;P = T1?;ST2_low_6;2;Same;low;154;96;96;f;v;1;j;v;1436.0094999992725
35s#rz9;18;False;2;P = T2?;ST2_high_6;2;Same;high;132;96;96;f;v;0;j;b;1401.4975000009144
35s#rz9;19;False;2;P = T2?;ST2_high_5;2;Same;high;96;132;132;f;v;1;f;v;1179.0482999986125
35s#rz9;20;False;2;P = T2?;ST2_low_6;2;Same;low;154;96;96;f;v;1;f;v;1362.4104000009538
35s#rz9;21;False;2;P = T1?;ST1_low_3;1;Same;low;70;112;70;f;v;0;j;b;1644.0484000013385
35s#rz9;22;False;2;P = T2?;ST1_low_3;1;Same;low;70;112;70;f;v;1;j;v;1431.112899999789
35s#rz9;23;False;2;P = T1?;ST2_high_2;2;Same;high;112;82;82;f;v;1;j;v;2295.460900000762
35s#rz9;24;False;2;P = T1?;ST2_low_3;2;Same;low;70;112;112;f;v;1;j;v;1211.834399999134
35s#rz9;25;False;2;P = T1?;ST1_low_3;1;Same;low;70;112;70;f;v;1;f;b;1115.0722000002133
35s#rz9;26;False;2;P = T2?;STb_6;0;Same;None;132;132;132;f;v;0;j;v;1078.1788000003871
35s#rz9;27;False;2;P = T1?;ST1_high_6;1;Same;high;132;96;132;f;v;1;f;v;844.7015000001556
35s#rz9;28;False;2;P = T2?;ST1_high_4;1;Same;high;96;70;96;f;v;1;j;v;1317.7066999996896
35s#rz9;29;False;2;P = T1?;ST1_low_6;1;Same;low;154;96;154;f;v;1;f;v;910.8004999998229
35s#rz9;30;False;2;P = T1?;ST1_low_1;1;Same;low;82;132;82;f;v;1;f;b;1004.9130999996123
35s#rz9;31;False;2;P = T1?;STb_8;0;Same;None;180;180;180;f;v;1;f;b;1261.7554999997083
35s#rz9;32;False;2;P = T1?;ST1_high_2;1;Same;high;112;82;112;f;v;0;j;b;3741.063999999824
35s#rz9;33;False;2;P = T1?;ST2_high_6;2;Same;high;132;96;96;f;v;1;j;v;1133.100299999569
35s#rz9;34;False;2;P = T2?;ST1_low_4;1;Same;low;112;70;112;f;v;1;j;v;915.5527999992046
35s#rz9;35;False;2;P = T1?;ST2_low_3;2;Same;low;70;112;112;f;v;1;j;v;1060.297599999103
35s#rz9;36;False;2;P = T2?;ST2_low_3;2;Same;low;70;112;112;f;v;1;f;b;1470.9808000006888
35s#rz9;37;False;2;P = T1?;ST2_low_2;2;Same;low;132;82;82;f;v;1;j;v;1322.4587999993673
35s#rz9;38;False;2;P = T1?;ST2_high_3;2;Same;high;70;96;96;f;v;0;f;b;3059.0525999996316
35s#rz9;39;False;2;P = T1?;ST1_low_4;1;Same;low;112;70;112;f;v;1;f;v;936.4050999993196
35s#rz9;40;False;2;P = T1?;STb_5;0;Same;None;112;112;112;f;v;1;f;b;1062.457699999868
35s#rz9;41;False;2;P = T1?;STb_4;0;Same;None;96;96;96;f;v;1;f;b;819.7364000006928
35s#rz9;42;False;2;P = T1?;ST2_high_4;2;Same;high;96;70;70;f;v;1;j;v;1173.163100000238
35s#rz9;43;False;2;P = T2?;ST1_high_3;1;Same;high;70;96;70;f;v;1;j;v;1350.729499999943
35s#rz9;44;False;2;P = T2?;ST1_low_5;1;Same;low;96;154;96;f;v;1;j;v;1071.933999999601
35s#rz9;45;False;2;P = T2?;ST1_low_5;1;Same;low;96;154;96;f;v;1;j;v;1076.5685999995185
35s#rz9;46;False;2;P = T2?;ST1_high_3;1;Same;high;70;96;70;f;v;1;j;v;1005.9351999989303
35s#rz9;47;False;2;P = T2?;ST2_low_5;2;Same;low;96;154;154;f;v;1;f;v;1659.6398999990924
35s#rz9;48;False;2;P = T1?;ST2_high_4;2;Same;high;96;70;70;f;v;1;j;v;1077.796399998988
35s#rz9;49;False;2;P = T1?;ST2_high_4;2;Same;high;96;70;70;f;v;1;j;v;1108.8932999991812
35s#rz9;50;False;2;P = T2?;DT1_high_4;1;Different;high;96;70;112;f;v;1;j;v;809.2077000001154
35s#rz9;51;False;2;P = T2?;ST1_high_1;1;Same;high;82;112;82;f;v;1;j;v;1451.0373000011896
35s#rz9;52;False;2;P = T2?;ST2_low_3;2;Same;low;70;112;112;f;v;1;f;v;921.4761000002909
35s#rz9;53;False;2;P = T1?;ST2_low_3;2;Same;low;70;112;112;f;v;1;j;v;1020.6464999992022
35s#rz9;54;False;2;P = T1?;ST2_high_2;2;Same;high;112;82;82;f;v;1;j;v;951.6108999996504
35s#rz9;55;False;2;P = T2?;ST1_low_5;1;Same;low;96;154;96;f;v;1;j;v;901.7024000004312
35s#rz9;56;False;2;P = T2?;DT2_low_5;2;Different;low;96;154;180;f;v;1;j;v;781.3277000004746
35s#rz9;57;False;2;P = T1?;ST1_high_2;1;Same;high;112;82;112;f;v;0;j;b;2587.250099999437
35s#rz9;58;False;2;P = T2?;ST1_high_5;1;Same;high;96;132;96;f;v;1;j;v;1071.5516000000207
35s#rz9;59;False;2;P = T2?;ST1_low_4;1;Same;low;112;70;112;f;v;1;j;v;1291.2629999991623
35s#rz9;60;False;2;P = T1?;ST1_high_1;1;Same;high;82;112;82;f;v;0;j;v;2018.5715999996319
35s#rz9;61;False;2;P = T2?;ST1_low_2;1;Same;low;132;82;132;f;v;1;j;v;1037.292900000466
35s#rz9;62;False;2;P = T2?;ST2_high_4;2;Same;high;96;70;70;f;v;1;f;v;1096.0757000011654
35s#rz9;63;False;2;P = T1?;ST2_low_6;2;Same;low;154;96;96;f;v;1;j;v;1089.597899999717
35s#rz9;64;False;2;P = T2?;ST2_high_6;2;Same;high;132;96;96;f;v;1;f;v;842.113500000778
35s#rz9;65;False;2;P = T2?;ST2_low_5;2;Same;low;96;154;154;f;v;1;f;v;799.0536999986944
35s#rz9;66;False;2;P = T2?;ST1_high_1;1;Same;high;82;112;82;f;v;1;j;v;1075.566899999103
35s#rz9;67;False;2;P = T2?;ST2_high_3;2;Same;high;70;96;96;f;v;0;j;b;2457.559799999217
35s#rz9;68;False;2;P = T1?;ST1_low_4;1;Same;low;112;70;112;f;v;1;f;v;833.644500000446
35s#rz9;69;False;2;P = T1?;ST2_high_5;2;Same;high;96;132;132;f;v;1;j;v;3154.5120000009774
35s#rz9;70;False;2;P = T1?;ST2_low_1;2;Same;low;82;132;132;f;v;1;j;v;1018.1066999994073
35s#rz9;71;False;2;P = T1?;ST2_high_1;2;Same;high;82;112;112;f;v;1;j;v;966.2170999999944
35s#rz9;72;False;2;P = T1?;ST1_high_1;1;Same;high;82;112;82;f;v;1;f;v;939.165799998591
35s#rz9;73;False;2;P = T1?;ST2_low_5;2;Same;low;96;154;154;f;v;1;j;v;1292.4636999996437
35s#rz9;74;False;2;P = T2?;ST1_high_3;1;Same;high;70;96;70;f;v;1;j;v;1125.7614999994985
35s#rz9;75;False;2;P = T1?;ST1_high_2;1;Same;high;112;82;112;f;v;0;j;b;1255.7237000000896
35s#rz9;76;False;2;P = T1?;ST1_low_1;1;Same;low;82;132;82;f;v;1;f;v;869.0237000009802
35s#rz9;77;False;2;P = T1?;DT2_low_4;2;Different;low;112;70;60;f;v;1;j;v;1241.9054999991204
35s#rz9;78;False;2;P = T2?;ST1_low_6;1;Same;low;154;96;154;f;v;1;j;v;1143.0667999993602
35s#rz9;79;False;2;P = T2?;DT2_low_1;2;Different;low;82;132;154;f;v;1;j;b;3650.315500000943
35s#rz9;80;False;2;P = T1?;ST1_high_3;1;Same;high;70;96;70;f;v;1;f;v;1006.0757999999623
35s#rz9;81;False;2;P = T1?;ST1_high_6;1;Same;high;132;96;132;f;v;0;j;b;1584.146499999406
35s#rz9;82;False;2;P = T2?;ST2_low_2;2;Same;low;132;82;82;f;v;0;j;v;970.1124000002892
35s#rz9;83;False;2;P = T1?;ST1_high_3;1;Same;high;70;96;70;f;v;1;f;v;821.0201000001689
35s#rz9;84;False;2;P = T2?;ST2_high_5;2;Same;high;96;132;132;f;v;1;f;v;827.0728999996209
35s#rz9;85;False;2;P = T2?;ST1_low_1;1;Same;low;82;132;82;f;v;1;j;v;1271.2728000005882
35s#rz9;86;False;2;P = T1?;ST2_low_1;2;Same;low;82;132;132;f;v;1;j;v;1082.3137999996106
35s#rz9;87;False;2;P = T2?;ST1_low_1;1;Same;low;82;132;82;f;v;1;j;v;1083.3156000007875
35s#rz9;88;False;2;P = T2?;DT1_high_1;1;Different;high;82;112;70;f;v;1;j;v;998.073699998713
35s#rz9;89;False;2;P = T2?;STb_7;0;Same;None;154;154;154;f;v;0;j;v;1559.560000001511
35s#rz9;90;False;2;P = T2?;ST2_low_4;2;Same;low;112;70;70;f;v;1;f;v;897.2646000001987
35s#rz9;91;False;2;P = T2?;ST1_low_3;1;Same;low;70;112;70;f;v;1;j;v;1085.0738999997702
35s#rz9;92;False;2;P = T1?;ST1_low_4;1;Same;low;112;70;112;f;v;1;f;v;902.3935999994137
35s#rz9;93;False;2;P = T2?;ST2_high_2;2;Same;high;112;82;82;f;v;1;f;b;945.4170999997586
35s#rz9;94;False;2;P = T1?;ST2_low_1;2;Same;low;82;132;132;f;v;1;j;v;895.8192999998573
35s#rz9;95;False;2;P = T2?;DT2_high_4;2;Different;high;96;70;60;f;v;0;f;v;1214.3168000002333
35s#rz9;96;False;2;P = T1?;ST2_low_2;2;Same;low;132;82;82;f;v;1;j;v;1220.336700000189
35s#rz9;97;False;2;P = T2?;STb_3;0;Same;None;82;82;82;f;v;1;f;v;1219.734399999652
35s#rz9;98;False;2;P = T2?;ST1_low_6;1;Same;low;154;96;154;f;v;1;j;v;1086.4753999994718
35s#rz9;99;False;2;P = T1?;DT2_high_5;2;Different;high;96;132;154;f;v;1;j;v;1023.7902000008035
35s#rz9;100;False;2;P = T2?;ST1_high_4;1;Same;high;96;70;96;f;v;1;j;v;1088.9904000014212
35s#rz9;101;False;2;P = T2?;DT2_high_1;2;Different;high;82;112;132;f;v;1;j;v;906.457600000067
35s#rz9;102;False;2;P = T1?;ST1_low_2;1;Same;low;132;82;132;f;v;1;f;v;932.907399999749
35s#rz9;103;False;2;P = T2?;ST1_low_3;1;Same;low;70;112;70;f;v;1;j;v;1040.533700001106
35s#rz9;104;False;2;P = T2?;ST1_high_1;1;Same;high;82;112;82;f;v;1;j;v;934.2187000002014
35s#rz9;105;False;2;P = T2?;STb_8;0;Same;None;180;180;180;f;v;0;j;v;992.9668000004312
35s#rz9;106;False;2;P = T2?;ST1_high_5;1;Same;high;96;132;96;f;v;1;j;v;1063.6684999990393
35s#rz9;107;False;2;P = T2?;STb_1;0;Same;None;60;60;60;f;v;1;f;v;1140.9660999997868
35s#rz9;108;False;2;P = T1?;ST2_low_6;2;Same;low;154;96;96;f;v;1;j;v;1116.5378999994573
35s#rz9;109;False;2;P = T1?;ST2_high_1;2;Same;high;82;112;112;f;v;1;j;v;1298.6071999985143
35s#rz9;110;False;2;P = T1?;ST1_low_5;1;Same;low;96;154;96;f;v;1;f;b;2143.5005000003002
35s#rz9;111;False;2;P = T1?;STb_7;0;Same;None;154;154;154;f;v;1;f;v;911.9422000003397
35s#rz9;112;False;2;P = T2?;ST2_low_6;2;Same;low;154;96;96;f;v;1;f;v;892.6399000010861
35s#rz9;113;False;2;P = T2?;ST1_high_6;1;Same;high;132;96;132;f;v;1;j;v;1107.3281999997562
35s#rz9;114;False;2;P = T2?;ST2_high_2;2;Same;high;112;82;82;f;v;1;f;b;2000.7932999997138
35s#rz9;115;False;2;P = T2?;ST2_low_2;2;Same;low;132;82;82;f;v;1;f;v;1178.6279000007198
35s#rz9;116;False;2;P = T2?;ST2_high_4;2;Same;high;96;70;70;f;v;1;f;b;1144.3622000006144
35s#rz9;117;False;2;P = T1?;ST2_low_2;2;Same;low;132;82;82;f;v;1;j;v;1072.911400000521
35s#rz9;118;False;2;P = T1?;DT1_low_3;1;Different;low;70;112;60;f;v;0;f;v;1307.9244000000472
35s#rz9;119;False;2;P = T1?;DT1_low_6;1;Different;low;154;96;180;f;v;1;j;b;1292.9308999991918
35s#rz9;120;False;2;P = T2?;ST2_high_1;2;Same;high;82;112;112;f;v;1;f;v;892.6935999988928
35s#rz9;121;False;2;P = T2?;ST1_high_5;1;Same;high;96;132;96;f;v;1;j;v;998.318099998869
35s#rz9;122;False;2;P = T1?;ST1_high_1;1;Same;high;82;112;82;f;v;1;f;b;1161.437599999772
35s#rz9;123;False;2;P = T2?;ST2_high_3;2;Same;high;70;96;96;f;v;1;f;v;1009.5146000003297
35s#rz9;124;False;2;P = T2?;STb_4;0;Same;None;96;96;96;f;v;0;j;b;2691.5328000013687
35s#rz9;125;False;2;P = T1?;DT1_high_6;1;Different;high;132;96;154;f;v;0;f;v;879.9461999988125
35s#rz9;126;False;2;P = T1?;ST1_high_5;1;Same;high;96;132;96;f;v;1;f;v;856.8022000017663
35s#rz9;127;False;2;P = T2?;ST1_low_2;1;Same;low;132;82;132;f;v;1;j;v;1345.9292000006826
35s#rz9;128;False;2;P = T1?;ST2_high_1;2;Same;high;82;112;112;f;v;1;j;v;1552.7275999993435
35s#rz9;129;False;2;P = T1?;DT2_low_5;2;Different;low;96;154;180;f;v;1;j;v;850.2056999986962
35s#rz9;130;False;2;P = T1?;ST1_high_5;1;Same;high;96;132;96;f;v;0;j;b;2475.192700001571
35s#rz9;131;False;2;P = T2?;ST2_low_4;2;Same;low;112;70;70;f;v;1;f;v;1157.4775999997655
35s#rz9;132;False;2;P = T2?;ST2_low_3;2;Same;low;70;112;112;f;v;0;j;v;775.9569999998348
35s#rz9;133;False;2;P = T2?;STb_5;0;Same;None;112;112;112;f;v;0;j;b;1099.143900000854
35s#rz9;134;False;2;P = T1?;ST1_high_4;1;Same;high;96;70;96;f;v;0;j;b;1244.2704000004596
35s#rz9;135;False;2;P = T2?;ST2_high_5;2;Same;high;96;132;132;f;v;1;f;v;815.1450000004843
35s#rz9;136;False;2;P = T1?;STb_3;0;Same;None;82;82;82;f;v;1;f;b;7876.91199999972
35s#rz9;137;False;2;P = T2?;ST2_high_3;2;Same;high;70;96;96;f;v;1;f;v;996.5847000003123
35s#rz9;138;False;2;P = T2?;ST1_low_2;1;Same;low;132;82;132;f;v;1;j;v;1203.303700000106
35s#rz9;139;False;2;P = T1?;ST1_low_3;1;Same;low;70;112;70;f;v;0;j;b;1215.374299999894
35s#rz9;140;False;2;P = T2?;ST1_high_2;1;Same;high;112;82;112;f;v;1;j;v;1703.6064000003535
35s#rz9;141;False;2;P = T2?;STb_2;0;Same;None;70;70;70;f;v;1;f;v;1573.0194000007032
35s#rz9;142;False;2;P = T1?;DT2_high_2;2;Different;high;112;82;70;f;v;0;f;b;1248.128599998381
35s#rz9;143;False;2;P = T2?;ST1_low_6;1;Same;low;154;96;154;f;v;1;j;v;1100.0089999997726
35s#rz9;144;False;2;P = T2?;ST1_high_6;1;Same;high;132;96;132;f;v;1;j;v;1211.4760000004026
35s#rz9;145;False;2;P = T2?;ST2_high_6;2;Same;high;132;96;96;f;v;1;f;b;1707.7919999992446
35s#rz9;146;False;2;P = T2?;DT1_high_5;1;Different;high;96;132;82;f;v;1;j;v;1054.4050999997125
35s#rz9;147;False;2;P = T1?;ST1_low_6;1;Same;low;154;96;154;f;v;1;f;v;714.8225000000821
35s#rz9;148;False;2;P = T2?;ST2_high_2;2;Same;high;112;82;82;f;v;0;j;b;1676.1996999994153
35s#rz9;149;False;2;P = T2?;ST2_high_4;2;Same;high;96;70;70;f;v;1;f;v;877.5003000009747
35s#rz9;150;False;2;P = T1?;ST1_low_6;1;Same;low;154;96;154;f;v;1;f;v;864.5644000007451
35s#rz9;151;False;2;P = T2?;ST2_low_1;2;Same;low;82;132;132;f;v;0;j;b;1129.8177999997279
35s#rz9;152;False;2;P = T1?;ST1_low_2;1;Same;low;132;82;132;f;v;1;f;b;851.6846999991685
35s#rz9;153;False;2;P = T2?;ST2_high_1;2;Same;high;82;112;112;f;v;1;f;v;1166.228099998989
35s#rz9;154;False;2;P = T1?;ST1_low_1;1;Same;low;82;132;82;f;v;1;f;b;2551.4263999994
35s#rz9;155;False;2;P = T1?;ST1_high_6;1;Same;high;132;96;132;f;v;1;f;v;2400.5374999997002
35s#rz9;156;False;2;P = T1?;ST2_low_4;2;Same;low;112;70;70;f;v;1;j;v;1164.0101000011782
35s#rz9;157;False;2;P = T1?;ST2_high_5;2;Same;high;96;132;132;f;v;1;j;v;885.802099999637
35s#rz9;158;False;2;P = T2?;ST1_high_4;1;Same;high;96;70;96;f;v;0;f;b;1760.485199998584
35s#rz9;159;False;2;P = T1?;ST1_low_2;1;Same;low;132;82;132;f;v;0;j;b;2087.2454999989714
35s#rz9;160;False;2;P = T2?;ST2_low_1;2;Same;low;82;132;132;f;v;1;f;v;1022.7109999996173
35s#rz9;161;False;2;P = T1?;ST2_high_6;2;Same;high;132;96;96;f;v;0;f;v;802.1219999991445
35s#rz9;162;False;2;P = T2?;ST1_low_4;1;Same;low;112;70;112;f;v;1;j;v;4765.7851999993
35s#rz9;163;False;2;P = T1?;STb_2;0;Same;None;70;70;70;f;v;1;f;v;782.2842999994464
35s#rz9;164;False;2;P = T1?;ST1_low_5;1;Same;low;96;154;96;f;v;1;f;b;919.47269999946
35s#rz9;165;False;2;P = T1?;ST1_high_3;1;Same;high;70;96;70;f;v;1;f;v;695.4474000012851
35s#rz9;166;False;2;P = T1?;ST2_high_6;2;Same;high;132;96;96;f;v;1;j;v;1086.3626999998814
35s#rz9;167;False;2;P = T1?;ST2_high_3;2;Same;high;70;96;96;f;v;1;j;v;885.8185999997659
35s#rz9;168;False;2;P = T1?;ST2_low_4;2;Same;low;112;70;70;f;v;1;j;v;1055.6117999985872
35s#rz9;169;False;2;P = T2?;ST1_high_6;1;Same;high;132;96;132;f;v;1;j;v;1152.1835000003193
35s#rz9;170;False;2;P = T1?;ST1_high_4;1;Same;high;96;70;96;f;v;0;j;v;924.6524999998655
35s#rz9;171;False;2;P = T2?;DT2_low_4;2;Different;low;112;70;60;f;v;1;j;b;5853.659200000038
35s#rz9;172;False;2;P = T1?;ST1_low_5;1;Same;low;96;154;96;f;v;0;j;v;3880.47319999896
35s#rz9;173;False;2;P = T1?;DT2_low_2;2;Different;low;132;82;70;f;v;1;j;v;1089.982900000905
35s#rz9;174;False;2;P = T1?;ST2_high_3;2;Same;high;70;96;96;f;v;1;j;v;1077.4819999987812
35s#rz9;175;False;2;P = T1?;ST2_low_5;2;Same;low;96;154;154;f;v;1;j;v;990.4790000000503
35s#rz9;176;False;2;P = T1?;ST2_high_5;2;Same;high;96;132;132;f;v;1;j;v;895.8728999987216
