p_code;trial_nr;practice;block;question;condition;seqPos;Same_or_Diff;ITS;T1_hz;T2_hz;P_hz;yes_key;sure_key;correct;yes_no;rating;resp_time
#f41ap3;1;True;1;P != T1?;ST2_low_6;2;Same;low;154;96;96;f;n;1;f;v;543.6998000004678
#f41ap3;2;True;1;P != T1?;ST1_high_1;1;Same;high;82;112;82;f;n;1;j;n;1576.5424000001076
#f41ap3;3;True;1;P != T2?;DT1_low_6;1;Different;low;154;96;180;f;n;0;j;b;3062.9343000000517
#f41ap3;4;True;1;P != T1?;STb_6;0;Same;None;132;132;132;f;n;0;f;v;1754.1658999998617
#f41ap3;5;True;1;P != T1?;ST1_low_1;1;Same;low;82;132;82;f;n;1;j;n;2334.111000000121
#f41ap3;6;True;1;P != T1?;DT1_high_3;1;Different;high;70;96;60;f;n;1;f;b;2096.757900000739
#f41ap3;7;True;1;P != T2?;STb_2;0;Same;None;70;70;70;f;n;1;j;n;2250.1773000003595
#f41ap3;8;True;1;P != T1?;DT1_low_1;1;Different;low;82;132;70;f;n;0;j;n;2425.1965999992535
#f41ap3;9;True;1;P != T2?;ST1_low_6;1;Same;low;154;96;154;f;n;0;j;n;873.8587999996525
#f41ap3;10;True;1;P != T2?;ST2_high_1;2;Same;high;82;112;112;f;n;0;f;n;347.46240000094986
#f41ap3;11;True;1;P != T2?;ST2_low_6;2;Same;low;154;96;96;f;n;1;j;n;1949.016800001118
#f41ap3;12;True;1;P != T2?;ST1_high_5;1;Same;high;96;132;96;f;n;0;j;n;1141.4643000007345
#f41ap3;13;True;1;P != T1?;ST2_high_4;2;Same;high;96;70;70;f;n;1;f;n;1726.3285000008182
#f41ap3;14;True;1;P != T2?;DT2_low_5;2;Different;low;96;154;180;f;n;0;j;n;609.5824000003631
#f41ap3;15;True;1;P != T2?;STb_6;0;Same;None;132;132;132;f;n;1;j;n;397.56860000125016
#f41ap3;16;True;1;P != T1?;STb_5;0;Same;None;112;112;112;f;n;1;j;n;5050.156399998741
p_code;trial_nr;practice;block;question;condition;seqPos;Same_or_Diff;ITS;T1_hz;T2_hz;P_hz;yes_key;sure_key;correct;yes_no;rating;resp_time
#f41ap3;1;False;1;P != T1?;ST2_low_1;2;Same;low;82;132;132;f;n;1;f;n;1593.5632999990048
#f41ap3;2;False;1;P != T2?;ST2_high_5;2;Same;high;96;132;132;f;n;1;j;n;1256.9144000008237
#f41ap3;3;False;1;P != T2?;ST1_low_1;1;Same;low;82;132;82;f;n;0;j;v;2861.9138000012754
#f41ap3;4;False;1;P != T2?;ST1_high_4;1;Same;high;96;70;96;f;n;1;f;n;3252.338599999348
#f41ap3;5;False;1;P != T2?;ST1_high_2;1;Same;high;112;82;112;f;n;1;f;n;1391.365699999369
#f41ap3;6;False;1;P != T2?;ST2_high_6;2;Same;high;132;96;96;f;n;1;j;v;4945.679599999494
#f41ap3;7;False;1;P != T1?;DT1_high_1;1;Different;high;82;112;70;f;n;0;j;n;1626.2881999991805
#f41ap3;8;False;1;P != T1?;ST1_high_3;1;Same;high;70;96;70;f;n;1;j;n;1835.0904999988416
#f41ap3;9;False;1;P != T1?;ST1_high_2;1;Same;high;112;82;112;f;n;0;f;n;2308.2913999987795
#f41ap3;10;False;1;P != T1?;DT1_high_5;1;Different;high;96;132;82;f;n;0;j;b;2814.705700000559
#f41ap3;11;False;1;P != T1?;ST2_high_3;2;Same;high;70;96;96;f;n;1;f;n;1949.2481000015687
#f41ap3;12;False;1;P != T1?;DT1_low_6;1;Different;low;154;96;180;f;n;0;j;n;1531.2589000004664
#f41ap3;13;False;1;P != T1?;ST1_low_1;1;Same;low;82;132;82;f;n;1;j;n;2664.8712000005617
#f41ap3;14;False;1;P != T2?;ST1_high_5;1;Same;high;96;132;96;f;n;0;j;b;2474.732500000755
#f41ap3;15;False;1;P != T1?;ST1_low_5;1;Same;low;96;154;96;f;n;0;f;b;5650.3368000012415
#f41ap3;16;False;1;P != T2?;ST1_high_2;1;Same;high;112;82;112;f;n;1;f;n;1864.3597000009322
#f41ap3;17;False;1;P != T2?;ST1_low_3;1;Same;low;70;112;70;f;n;1;f;n;1176.680499998838
#f41ap3;18;False;1;P != T1?;ST1_low_1;1;Same;low;82;132;82;f;n;1;j;b;4226.012800001627
#f41ap3;19;False;1;P != T1?;ST2_low_4;2;Same;low;112;70;70;f;n;1;f;n;9246.271500000148
#f41ap3;20;False;1;P != T2?;ST2_high_1;2;Same;high;82;112;112;f;n;1;j;n;1900.887400001011
#f41ap3;21;False;1;P != T1?;STb_6;0;Same;None;132;132;132;f;n;0;f;n;1934.4277000000147
#f41ap3;22;False;1;P != T1?;ST1_high_3;1;Same;high;70;96;70;f;n;0;f;n;2491.101300000082
#f41ap3;23;False;1;P != T2?;DT2_high_6;2;Different;high;132;96;82;f;n;0;j;b;1566.3437000002887
#f41ap3;24;False;1;P != T2?;ST1_low_4;1;Same;low;112;70;112;f;n;1;f;n;2641.23010000003
#f41ap3;25;False;1;P != T1?;ST1_low_6;1;Same;low;154;96;154;f;n;0;f;n;2663.9830000003712
#f41ap3;26;False;1;P != T1?;ST2_low_4;2;Same;low;112;70;70;f;n;1;f;n;1408.3296999997401
#f41ap3;27;False;1;P != T2?;DT1_high_1;1;Different;high;82;112;70;f;n;1;f;n;1209.3010999997205
#f41ap3;28;False;1;P != T2?;ST2_high_3;2;Same;high;70;96;96;f;n;1;j;n;1706.0762999990402
#f41ap3;29;False;1;P != T2?;ST1_high_6;1;Same;high;132;96;132;f;n;1;f;b;1404.091000000335
#f41ap3;30;False;1;P != T1?;ST2_low_3;2;Same;low;70;112;112;f;n;1;f;n;4750.138699999297
#f41ap3;31;False;1;P != T1?;STb_1;0;Same;None;60;60;60;f;n;1;j;n;997.2851000002265
#f41ap3;32;False;1;P != T2?;ST1_low_4;1;Same;low;112;70;112;f;n;1;f;n;1193.749400001252
#f41ap3;33;False;1;P != T1?;ST1_low_2;1;Same;low;132;82;132;f;n;1;j;b;1643.100900000718
#f41ap3;34;False;1;P != T1?;ST1_low_3;1;Same;low;70;112;70;f;n;1;j;b;1442.417199999909
#f41ap3;35;False;1;P != T2?;ST2_high_3;2;Same;high;70;96;96;f;n;1;j;b;1920.9828000002744
#f41ap3;36;False;1;P != T1?;ST2_high_2;2;Same;high;112;82;82;f;n;0;j;v;3050.360200000796
#f41ap3;37;False;1;P != T1?;ST1_low_5;1;Same;low;96;154;96;f;n;0;f;v;3683.35610000031
#f41ap3;38;False;1;P != T1?;STb_7;0;Same;None;154;154;154;f;n;1;j;v;6800.648000000365
#f41ap3;39;False;1;P != T2?;ST1_high_3;1;Same;high;70;96;70;f;n;0;j;v;3408.1553000014537
#f41ap3;40;False;1;P != T1?;STb_8;0;Same;None;180;180;180;f;n;1;j;v;207.23159999943164
#f41ap3;41;False;1;P != T1?;ST1_low_2;1;Same;low;132;82;132;f;n;1;j;b;1941.7274000006728
#f41ap3;42;False;1;P != T1?;ST1_low_2;1;Same;low;132;82;132;f;n;1;j;b;1706.1938000006194
#f41ap3;43;False;1;P != T1?;ST1_high_5;1;Same;high;96;132;96;f;n;1;j;b;1632.2268999992957
#f41ap3;44;False;1;P != T2?;ST2_high_1;2;Same;high;82;112;112;f;n;1;j;b;1224.632000001293
#f41ap3;45;False;1;P != T2?;STb_3;0;Same;None;82;82;82;f;n;1;j;n;1275.5579000004218
#f41ap3;46;False;1;P != T2?;ST2_high_3;2;Same;high;70;96;96;f;n;1;j;b;3285.279499999888
#f41ap3;47;False;1;P != T1?;ST1_high_6;1;Same;high;132;96;132;f;n;1;j;b;3897.6741999995284
#f41ap3;48;False;1;P != T1?;ST2_high_6;2;Same;high;132;96;96;f;n;1;f;b;2827.048499999364
#f41ap3;49;False;1;P != T2?;ST2_high_4;2;Same;high;96;70;70;f;n;1;j;n;1227.7357000002667
#f41ap3;50;False;1;P != T2?;ST2_low_2;2;Same;low;132;82;82;f;n;1;j;n;1076.3886999993701
#f41ap3;51;False;1;P != T2?;ST1_low_3;1;Same;low;70;112;70;f;n;0;j;b;3316.4937000001373
#f41ap3;52;False;1;P != T1?;ST2_low_6;2;Same;low;154;96;96;f;n;1;f;v;1375.6708999990224
#f41ap3;53;False;1;P != T2?;ST1_high_4;1;Same;high;96;70;96;f;n;1;f;n;2065.550399998756
#f41ap3;54;False;1;P != T2?;ST1_low_4;1;Same;low;112;70;112;f;n;1;f;n;1841.4731999982905
#f41ap3;55;False;1;P != T1?;ST2_low_2;2;Same;low;132;82;82;f;n;1;f;b;6195.657599999322
#f41ap3;56;False;1;P != T1?;STb_3;0;Same;None;82;82;82;f;n;1;j;n;2444.2314999996597
#f41ap3;57;False;1;P != T2?;DT1_low_4;1;Different;low;112;70;132;f;n;1;f;n;1362.0987999984209
#f41ap3;58;False;1;P != T1?;ST1_high_1;1;Same;high;82;112;82;f;n;1;j;n;1682.8625999987707
#f41ap3;59;False;1;P != T1?;ST1_low_3;1;Same;low;70;112;70;f;n;1;j;n;1383.7007999991329
#f41ap3;60;False;1;P != T2?;ST1_high_1;1;Same;high;82;112;82;f;n;1;f;n;1548.6820000005537
#f41ap3;61;False;1;P != T2?;ST1_high_3;1;Same;high;70;96;70;f;n;0;j;n;1556.8282999993244
#f41ap3;62;False;1;P != T2?;ST1_low_2;1;Same;low;132;82;132;f;n;1;f;n;1101.3849999999366
#f41ap3;63;False;1;P != T2?;STb_8;0;Same;None;180;180;180;f;n;1;j;n;1438.3773999998084
#f41ap3;64;False;1;P != T1?;DT2_high_6;2;Different;high;132;96;82;f;n;1;f;n;3604.726199999277
#f41ap3;65;False;1;P != T1?;ST2_low_6;2;Same;low;154;96;96;f;n;1;f;n;1703.5250999997515
#f41ap3;66;False;1;P != T2?;ST1_high_6;1;Same;high;132;96;132;f;n;1;f;n;1989.7763000008126
#f41ap3;67;False;1;P != T2?;ST1_low_6;1;Same;low;154;96;154;f;n;1;f;n;3550.521500001196
#f41ap3;68;False;1;P != T1?;ST1_high_5;1;Same;high;96;132;96;f;n;1;j;n;3093.147699999463
#f41ap3;69;False;1;P != T2?;ST2_low_1;2;Same;low;82;132;132;f;n;1;j;n;5335.90170000025
#f41ap3;70;False;1;P != T1?;ST1_low_3;1;Same;low;70;112;70;f;n;1;j;n;4330.418400000781
#f41ap3;71;False;1;P != T2?;ST2_low_4;2;Same;low;112;70;70;f;n;1;j;n;1540.8750000005966
#f41ap3;72;False;1;P != T1?;ST2_low_1;2;Same;low;82;132;132;f;n;1;f;n;1581.76579999963
#f41ap3;73;False;1;P != T2?;ST1_high_5;1;Same;high;96;132;96;f;n;0;j;v;4571.958199998335
#f41ap3;74;False;1;P != T2?;ST1_low_5;1;Same;low;96;154;96;f;n;1;f;n;2205.1212999995187
#f41ap3;75;False;1;P != T2?;ST1_low_6;1;Same;low;154;96;154;f;n;1;f;n;2442.394499999864
#f41ap3;76;False;1;P != T2?;ST1_high_3;1;Same;high;70;96;70;f;n;0;j;n;1029.1879000014887
#f41ap3;77;False;1;P != T1?;ST1_low_6;1;Same;low;154;96;154;f;n;0;f;n;3389.4244999992225
#f41ap3;78;False;1;P != T1?;ST2_low_2;2;Same;low;132;82;82;f;n;1;f;n;2692.9313000000548
#f41ap3;79;False;1;P != T1?;ST2_high_1;2;Same;high;82;112;112;f;n;1;f;n;1576.1719000001904
#f41ap3;80;False;1;P != T2?;STb_6;0;Same;None;132;132;132;f;n;0;f;n;1315.4045000010228
#f41ap3;81;False;1;P != T2?;ST2_high_2;2;Same;high;112;82;82;f;n;1;j;n;1909.214900000734
#f41ap3;82;False;1;P != T2?;ST2_high_2;2;Same;high;112;82;82;f;n;1;j;n;1678.6462000000029
#f41ap3;83;False;1;P != T2?;ST1_low_5;1;Same;low;96;154;96;f;n;1;f;n;1383.3602999984578
#f41ap3;84;False;1;P != T1?;ST2_low_5;2;Same;low;96;154;154;f;n;1;f;n;987.9942000006849
#f41ap3;85;False;1;P != T1?;ST2_high_6;2;Same;high;132;96;96;f;n;1;f;n;2396.6283000008843
#f41ap3;86;False;1;P != T2?;DT1_low_5;1;Different;low;96;154;82;f;n;1;f;n;967.9176999998163
#f41ap3;87;False;1;P != T1?;DT2_high_4;2;Different;high;96;70;60;f;n;1;f;n;2308.283600001232
#f41ap3;88;False;1;P != T1?;ST1_low_6;1;Same;low;154;96;154;f;n;1;j;n;1689.7759000003134
#f41ap3;89;False;1;P != T1?;ST1_low_4;1;Same;low;112;70;112;f;n;1;j;n;1825.1942000006238
#f41ap3;90;False;1;P != T1?;STb_2;0;Same;None;70;70;70;f;n;1;j;n;458.0519999999524
#f41ap3;91;False;1;P != T1?;DT2_high_1;2;Different;high;82;112;132;f;n;1;f;n;5035.516800000551
#f41ap3;92;False;1;P != T1?;ST2_low_5;2;Same;low;96;154;154;f;n;0;j;v;4952.659599999606
#f41ap3;93;False;1;P != T1?;ST1_low_4;1;Same;low;112;70;112;f;n;1;j;v;3004.6975999994174
#f41ap3;94;False;1;P != T2?;ST1_low_1;1;Same;low;82;132;82;f;n;0;j;b;1689.7912999993423
#f41ap3;95;False;1;P != T2?;ST2_low_2;2;Same;low;132;82;82;f;n;0;f;b;1161.7134999996779
#f41ap3;96;False;1;P != T2?;DT2_low_5;2;Different;low;96;154;180;f;n;1;f;b;985.312700000577
#f41ap3;97;False;1;P != T2?;ST1_low_1;1;Same;low;82;132;82;f;n;1;f;n;1484.3087999997806
#f41ap3;98;False;1;P != T2?;ST1_low_2;1;Same;low;132;82;132;f;n;1;f;n;4341.447099999641
#f41ap3;99;False;1;P != T1?;ST1_high_5;1;Same;high;96;132;96;f;n;0;f;n;1857.346899998447
#f41ap3;100;False;1;P != T1?;ST2_high_6;2;Same;high;132;96;96;f;n;0;j;n;465.36900000137393
#f41ap3;101;False;1;P != T1?;ST1_high_2;1;Same;high;112;82;112;f;n;0;f;v;1038.19840000142
#f41ap3;102;False;1;P != T2?;ST2_high_5;2;Same;high;96;132;132;f;n;1;j;n;936.7306999993161
#f41ap3;103;False;1;P != T2?;ST2_low_4;2;Same;low;112;70;70;f;n;1;j;n;2099.4035999992775
#f41ap3;104;False;1;P != T2?;ST2_low_4;2;Same;low;112;70;70;f;n;0;f;b;2291.4620999999897
#f41ap3;105;False;1;P != T1?;ST1_high_4;1;Same;high;96;70;96;f;n;1;j;b;2769.706799999767
#f41ap3;106;False;1;P != T2?;ST2_low_1;2;Same;low;82;132;132;f;n;1;j;n;5217.859899999894
#f41ap3;107;False;1;P != T1?;ST2_high_4;2;Same;high;96;70;70;f;n;1;f;n;2128.168100000039
#f41ap3;108;False;1;P != T2?;ST2_low_6;2;Same;low;154;96;96;f;n;1;j;n;1505.7254000003013
#f41ap3;109;False;1;P != T2?;ST1_low_6;1;Same;low;154;96;154;f;n;1;f;b;6171.753999999055
#f41ap3;110;False;1;P != T1?;ST2_low_1;2;Same;low;82;132;132;f;n;1;f;b;3392.22510000036
#f41ap3;111;False;1;P != T1?;ST2_high_2;2;Same;high;112;82;82;f;n;1;f;n;3040.7350000004953
#f41ap3;112;False;1;P != T2?;ST2_low_6;2;Same;low;154;96;96;f;n;0;f;n;5908.887900000991
#f41ap3;113;False;1;P != T2?;ST2_high_6;2;Same;high;132;96;96;f;n;0;f;v;2574.195299999701
#f41ap3;114;False;1;P != T1?;STb_4;0;Same;None;96;96;96;f;n;1;j;n;1569.8499999998603
#f41ap3;115;False;1;P != T1?;ST2_high_1;2;Same;high;82;112;112;f;n;0;j;v;4688.088299999436
#f41ap3;116;False;1;P != T2?;ST2_low_3;2;Same;low;70;112;112;f;n;1;j;b;2354.3792000000394
#f41ap3;117;False;1;P != T2?;DT2_high_1;2;Different;high;82;112;132;f;n;1;f;n;2847.3613999994996
#f41ap3;118;False;1;P != T2?;ST2_low_6;2;Same;low;154;96;96;f;n;1;j;b;2136.753700000554
#f41ap3;119;False;1;P != T1?;ST2_low_5;2;Same;low;96;154;154;f;n;1;f;n;1899.8460000002524
#f41ap3;120;False;1;P != T2?;ST1_high_4;1;Same;high;96;70;96;f;n;0;j;n;574.5237999999517
#f41ap3;121;False;1;P != T2?;ST2_high_2;2;Same;high;112;82;82;f;n;1;j;n;1752.5225000008504
#f41ap3;122;False;1;P != T2?;STb_7;0;Same;None;154;154;154;f;n;1;j;n;3091.4643999985856
#f41ap3;123;False;1;P != T2?;ST2_low_2;2;Same;low;132;82;82;f;n;0;f;v;4264.133599999695
#f41ap3;124;False;1;P != T2?;ST2_low_3;2;Same;low;70;112;112;f;n;1;j;n;340.3376999995089
#f41ap3;125;False;1;P != T2?;ST2_high_6;2;Same;high;132;96;96;f;n;1;j;b;2793.951100000413
#f41ap3;126;False;1;P != T1?;ST2_low_3;2;Same;low;70;112;112;f;n;0;j;n;170.9740000005695
#f41ap3;127;False;1;P != T1?;ST2_high_3;2;Same;high;70;96;96;f;n;0;j;b;2647.8463000003103
#f41ap3;128;False;1;P != T2?;ST2_high_5;2;Same;high;96;132;132;f;n;1;j;b;3555.4448000002594
#f41ap3;129;False;1;P != T2?;DT1_high_5;1;Different;high;96;132;82;f;n;1;f;n;1714.8772999989887
#f41ap3;130;False;1;P != T1?;ST2_low_4;2;Same;low;112;70;70;f;n;0;j;n;120.66810000033001
#f41ap3;131;False;1;P != T1?;ST2_high_5;2;Same;high;96;132;132;f;n;0;j;b;3094.7223999992275
#f41ap3;132;False;1;P != T1?;ST1_high_1;1;Same;high;82;112;82;f;n;1;j;b;934.3388000015693
#f41ap3;133;False;1;P != T1?;ST2_low_3;2;Same;low;70;112;112;f;n;0;j;n;494.0884999996342
#f41ap3;134;False;1;P != T2?;ST2_high_4;2;Same;high;96;70;70;f;n;1;j;n;293.57510000045295
#f41ap3;135;False;1;P != T2?;ST2_low_3;2;Same;low;70;112;112;f;n;1;j;n;371.59090000022843
#f41ap3;136;False;1;P != T2?;ST2_low_1;2;Same;low;82;132;132;f;n;1;j;n;266.6536000015185
#f41ap3;137;False;1;P != T1?;DT1_low_2;1;Different;low;132;82;154;f;n;0;j;v;2602.24350000135
#f41ap3;138;False;1;P != T1?;ST2_high_2;2;Same;high;112;82;82;f;n;1;f;b;2600.30259999985
#f41ap3;139;False;1;P != T1?;ST2_high_5;2;Same;high;96;132;132;f;n;0;j;n;267.9766000001109
#f41ap3;140;False;1;P != T2?;ST2_high_4;2;Same;high;96;70;70;f;n;1;j;b;1857.1608000002016
#f41ap3;141;False;1;P != T1?;ST2_high_4;2;Same;high;96;70;70;f;n;0;j;n;374.5128999998997
#f41ap3;142;False;1;P != T2?;ST2_low_5;2;Same;low;96;154;154;f;n;1;j;n;4126.314700000876
#f41ap3;143;False;1;P != T1?;ST2_high_3;2;Same;high;70;96;96;f;n;0;j;n;3877.180600000429
#f41ap3;144;False;1;P != T1?;ST2_low_2;2;Same;low;132;82;82;f;n;1;f;n;1672.1360000010463
#f41ap3;145;False;1;P != T1?;ST1_high_4;1;Same;high;96;70;96;f;n;1;j;b;1736.93749999984
#f41ap3;146;False;1;P != T2?;ST1_high_5;1;Same;high;96;132;96;f;n;0;j;v;1496.506399998907
#f41ap3;147;False;1;P != T1?;ST1_high_4;1;Same;high;96;70;96;f;n;0;f;n;2284.1028000002552
#f41ap3;148;False;1;P != T1?;DT2_high_3;2;Different;high;70;96;112;f;n;0;j;v;3827.2538000001077
#f41ap3;149;False;1;P != T2?;ST1_high_6;1;Same;high;132;96;132;f;n;1;f;n;1612.9025000009278
#f41ap3;150;False;1;P != T1?;ST2_high_1;2;Same;high;82;112;112;f;n;1;f;n;1174.217599998883
#f41ap3;151;False;1;P != T1?;ST1_high_1;1;Same;high;82;112;82;f;n;0;f;b;3060.1888000001054
#f41ap3;152;False;1;P != T1?;ST2_high_5;2;Same;high;96;132;132;f;n;1;f;n;2798.1571999989683
#f41ap3;153;False;1;P != T1?;ST1_high_6;1;Same;high;132;96;132;f;n;1;j;n;2536.7366000009497
#f41ap3;154;False;1;P != T1?;ST1_low_1;1;Same;low;82;132;82;f;n;1;j;n;1459.9907000010717
#f41ap3;155;False;1;P != T2?;STb_2;0;Same;None;70;70;70;f;n;1;j;n;686.064699999406
#f41ap3;156;False;1;P != T2?;ST1_high_2;1;Same;high;112;82;112;f;n;0;j;b;662.8493999996863
#f41ap3;157;False;1;P != T2?;ST1_low_5;1;Same;low;96;154;96;f;n;1;f;n;1195.4697999990458
#f41ap3;158;False;1;P != T2?;ST1_high_1;1;Same;high;82;112;82;f;n;1;f;n;2594.1367000013997
#f41ap3;159;False;1;P != T2?;DT1_high_4;1;Different;high;96;70;112;f;n;1;f;n;1555.2440999999817
#f41ap3;160;False;1;P != T1?;STb_5;0;Same;None;112;112;112;f;n;1;j;v;757.8386999994109
#f41ap3;161;False;1;P != T2?;ST2_high_1;2;Same;high;82;112;112;f;n;1;j;v;995.5009000004793
#f41ap3;162;False;1;P != T2?;ST1_low_3;1;Same;low;70;112;70;f;n;1;f;n;1234.1465999998036
#f41ap3;163;False;1;P != T2?;ST1_high_1;1;Same;high;82;112;82;f;n;1;f;b;2095.1977000004263
#f41ap3;164;False;1;P != T2?;STb_5;0;Same;None;112;112;112;f;n;0;f;v;1114.2743999989762
#f41ap3;165;False;1;P != T1?;ST1_low_4;1;Same;low;112;70;112;f;n;1;j;b;1643.8832999992883
#f41ap3;166;False;1;P != T2?;ST1_low_2;1;Same;low;132;82;132;f;n;1;f;n;2430.4059999994934
#f41ap3;167;False;1;P != T1?;ST2_high_4;2;Same;high;96;70;70;f;n;0;j;v;435.73490000017046
#f41ap3;168;False;1;P != T2?;STb_4;0;Same;None;96;96;96;f;n;1;j;b;3045.9650000011607
#f41ap3;169;False;1;P != T1?;ST1_high_2;1;Same;high;112;82;112;f;n;1;j;v;756.0364000000845
#f41ap3;170;False;1;P != T1?;ST2_low_6;2;Same;low;154;96;96;f;n;1;f;n;1766.6955000004236
#f41ap3;171;False;1;P != T1?;ST1_high_3;1;Same;high;70;96;70;f;n;1;j;v;2201.0819999995874
#f41ap3;172;False;1;P != T1?;ST1_low_5;1;Same;low;96;154;96;f;n;1;j;v;1364.976900000329
#f41ap3;173;False;1;P != T1?;ST1_high_6;1;Same;high;132;96;132;f;n;1;j;b;2951.1483999995107
#f41ap3;174;False;1;P != T2?;ST2_low_5;2;Same;low;96;154;154;f;n;0;f;b;1326.0270999999193
#f41ap3;175;False;1;P != T2?;ST2_low_5;2;Same;low;96;154;154;f;n;1;j;n;1752.2389000005205
#f41ap3;176;False;1;P != T2?;STb_1;0;Same;None;60;60;60;f;n;1;j;n;675.6958000005397
#f41ap3;1;True;2;P = T1?;STb_3;0;Same;None;82;82;82;f;n;1;f;n;455.47179999994114
#f41ap3;2;True;2;P = T2?;ST2_high_2;2;Same;high;112;82;82;f;n;1;f;n;279.55520000068645
#f41ap3;3;True;2;P = T1?;STb_1;0;Same;None;60;60;60;f;n;1;f;n;327.0823000002565
#f41ap3;4;True;2;P = T2?;ST1_low_2;1;Same;low;132;82;132;f;n;1;j;n;2118.1082999992213
#f41ap3;5;True;2;P = T2?;DT1_low_4;1;Different;low;112;70;132;f;n;1;j;n;2117.2771000001376
#f41ap3;6;True;2;P = T2?;DT1_high_2;1;Different;high;112;82;132;f;n;1;j;n;2507.1520999990753
#f41ap3;7;True;2;P = T2?;STb_8;0;Same;None;180;180;180;f;n;1;f;n;109.24869999871589
#f41ap3;8;True;2;P = T1?;ST2_low_1;2;Same;low;82;132;132;f;n;1;j;n;2094.1087000010157
#f41ap3;9;True;2;P = T2?;ST2_high_6;2;Same;high;132;96;96;f;n;1;f;v;409.8362000004272
#f41ap3;10;True;2;P = T1?;ST1_low_3;1;Same;low;70;112;70;f;n;1;f;n;1735.154699999839
#f41ap3;11;True;2;P = T1?;DT1_low_5;1;Different;low;96;154;82;f;n;0;f;b;1519.6862000011606
#f41ap3;12;True;2;P = T1?;ST2_high_1;2;Same;high;82;112;112;f;n;1;j;n;1323.591899999883
#f41ap3;13;True;2;P = T2?;ST1_low_4;1;Same;low;112;70;112;f;n;1;j;n;1362.7771999999823
#f41ap3;14;True;2;P = T1?;DT2_low_1;2;Different;low;82;132;154;f;n;1;j;n;1471.2882999992871
#f41ap3;15;True;2;P = T2?;STb_1;0;Same;None;60;60;60;f;n;1;f;n;937.9152000001341
#f41ap3;16;True;2;P = T1?;ST1_high_5;1;Same;high;96;132;96;f;n;0;j;b;1445.7218000006833
#f41ap3;1;False;2;P = T1?;ST2_high_6;2;Same;high;132;96;96;f;n;0;f;b;587.0599000008951
#f41ap3;2;False;2;P = T1?;ST1_high_4;1;Same;high;96;70;96;f;n;1;f;b;2117.0672999996896
#f41ap3;3;False;2;P = T1?;ST1_low_1;1;Same;low;82;132;82;f;n;0;j;v;3364.1540999997233
#f41ap3;4;False;2;P = T1?;ST1_high_3;1;Same;high;70;96;70;f;n;1;f;v;1539.5066000000952
#f41ap3;5;False;2;P = T1?;ST1_high_5;1;Same;high;96;132;96;f;n;0;j;v;2441.3250999987213
#f41ap3;6;False;2;P = T1?;ST1_low_1;1;Same;low;82;132;82;f;n;1;f;n;1215.1999000016076
#f41ap3;7;False;2;P = T1?;ST1_low_2;1;Same;low;132;82;132;f;n;1;f;n;1663.7128000002122
#f41ap3;8;False;2;P = T2?;ST1_low_4;1;Same;low;112;70;112;f;n;1;j;v;3264.956199998778
#f41ap3;9;False;2;P = T2?;ST1_high_1;1;Same;high;82;112;82;f;n;1;j;b;1481.9992000011553
#f41ap3;10;False;2;P = T2?;ST2_high_4;2;Same;high;96;70;70;f;n;1;f;n;1658.9579999999842
#f41ap3;11;False;2;P = T1?;ST1_high_2;1;Same;high;112;82;112;f;n;1;f;n;1140.8212999995158
#f41ap3;12;False;2;P = T2?;ST1_high_5;1;Same;high;96;132;96;f;n;1;j;v;2988.3167000007234
#f41ap3;13;False;2;P = T2?;ST1_low_1;1;Same;low;82;132;82;f;n;1;j;n;1535.7589999985066
#f41ap3;14;False;2;P = T1?;ST2_low_4;2;Same;low;112;70;70;f;n;0;f;v;4659.97089999837
#f41ap3;15;False;2;P = T2?;ST1_high_6;1;Same;high;132;96;132;f;n;1;j;n;1190.9290000003239
#f41ap3;16;False;2;P = T1?;ST2_low_6;2;Same;low;154;96;96;f;n;1;j;n;1325.3365000000485
#f41ap3;17;False;2;P = T2?;STb_3;0;Same;None;82;82;82;f;n;1;f;b;343.54999999959546
#f41ap3;18;False;2;P = T2?;ST2_high_6;2;Same;high;132;96;96;f;n;1;f;b;340.5621000001702
#f41ap3;19;False;2;P = T1?;ST1_high_6;1;Same;high;132;96;132;f;n;1;f;b;1458.372799999779
#f41ap3;20;False;2;P = T1?;ST2_low_6;2;Same;low;154;96;96;f;n;1;j;v;1424.9364999996033
#f41ap3;21;False;2;P = T2?;ST1_low_6;1;Same;low;154;96;154;f;n;1;j;n;1396.6729999992822
#f41ap3;22;False;2;P = T1?;DT1_high_2;1;Different;high;112;82;132;f;n;1;j;n;1363.4442999991734
#f41ap3;23;False;2;P = T1?;ST2_high_3;2;Same;high;70;96;96;f;n;1;j;v;1706.8882000003214
#f41ap3;24;False;2;P = T1?;STb_1;0;Same;None;60;60;60;f;n;1;f;b;356.0880000004545
#f41ap3;25;False;2;P = T1?;ST2_high_2;2;Same;high;112;82;82;f;n;1;j;v;1456.5198000000237
#f41ap3;26;False;2;P = T2?;ST1_low_5;1;Same;low;96;154;96;f;n;1;j;n;1411.5860999991128
#f41ap3;27;False;2;P = T1?;DT2_low_4;2;Different;low;112;70;60;f;n;1;j;n;1134.0704999984155
#f41ap3;28;False;2;P = T1?;ST2_low_4;2;Same;low;112;70;70;f;n;1;j;n;1169.2874000000302
#f41ap3;29;False;2;P = T2?;DT2_low_6;2;Different;low;154;96;82;f;n;0;f;v;1786.4234000007855
#f41ap3;30;False;2;P = T1?;ST2_low_1;2;Same;low;82;132;132;f;n;1;j;n;1371.0668999992777
#f41ap3;31;False;2;P = T1?;ST1_high_2;1;Same;high;112;82;112;f;n;1;f;v;445.4824999993434
#f41ap3;32;False;2;P = T2?;STb_6;0;Same;None;132;132;132;f;n;1;f;v;423.0885000015405
#f41ap3;33;False;2;P = T1?;ST2_low_3;2;Same;low;70;112;112;f;n;0;f;v;3482.6764999997977
#f41ap3;34;False;2;P = T1?;ST1_high_4;1;Same;high;96;70;96;f;n;1;f;v;645.0672000009945
#f41ap3;35;False;2;P = T2?;ST2_high_2;2;Same;high;112;82;82;f;n;1;f;b;1258.2160999991174
#f41ap3;36;False;2;P = T1?;ST1_high_1;1;Same;high;82;112;82;f;n;1;f;v;1824.7117999999318
#f41ap3;37;False;2;P = T2?;ST1_high_3;1;Same;high;70;96;70;f;n;0;f;v;352.62280000097235
#f41ap3;38;False;2;P = T2?;ST2_high_3;2;Same;high;70;96;96;f;n;1;f;b;1358.2982000007178
#f41ap3;39;False;2;P = T2?;ST1_high_4;1;Same;high;96;70;96;f;n;0;f;b;342.46359999997367
#f41ap3;40;False;2;P = T1?;ST2_high_1;2;Same;high;82;112;112;f;n;1;j;v;1241.287700000612
#f41ap3;41;False;2;P = T1?;STb_2;0;Same;None;70;70;70;f;n;1;f;n;106.50809999970079
#f41ap3;42;False;2;P = T2?;ST2_low_2;2;Same;low;132;82;82;f;n;1;f;n;1261.1526000000595
#f41ap3;43;False;2;P = T1?;ST2_low_2;2;Same;low;132;82;82;f;n;1;j;n;1179.9718999991455
#f41ap3;44;False;2;P = T2?;ST2_low_4;2;Same;low;112;70;70;f;n;1;f;n;1669.2062999991322
#f41ap3;45;False;2;P = T1?;STb_7;0;Same;None;154;154;154;f;n;1;f;b;1806.3886999989336
#f41ap3;46;False;2;P = T2?;ST1_high_4;1;Same;high;96;70;96;f;n;0;f;v;327.2121000009065
#f41ap3;47;False;2;P = T2?;ST1_high_2;1;Same;high;112;82;112;f;n;0;f;b;1165.2926000006119
#f41ap3;48;False;2;P = T2?;ST1_high_1;1;Same;high;82;112;82;f;n;0;f;v;349.71089999999094
#f41ap3;49;False;2;P = T1?;ST1_high_5;1;Same;high;96;132;96;f;n;1;f;b;1919.5199999994657
#f41ap3;50;False;2;P = T2?;ST2_high_5;2;Same;high;96;132;132;f;n;1;f;v;1734.9090999996406
#f41ap3;51;False;2;P = T2?;DT2_high_2;2;Different;high;112;82;70;f;n;0;f;b;1232.4166999987938
#f41ap3;52;False;2;P = T1?;STb_4;0;Same;None;96;96;96;f;n;1;f;v;320.2311999993981
#f41ap3;53;False;2;P = T1?;ST2_high_2;2;Same;high;112;82;82;f;n;0;f;b;417.0766999995976
#f41ap3;54;False;2;P = T2?;ST2_low_3;2;Same;low;70;112;112;f;n;1;f;b;2824.7293999993417
#f41ap3;55;False;2;P = T2?;ST1_low_6;1;Same;low;154;96;154;f;n;1;j;b;1582.0483999996213
#f41ap3;56;False;2;P = T1?;ST1_high_3;1;Same;high;70;96;70;f;n;0;j;n;3106.1933000000863
#f41ap3;57;False;2;P = T1?;ST1_low_2;1;Same;low;132;82;132;f;n;1;f;n;1851.9041999988985
#f41ap3;58;False;2;P = T2?;ST1_high_3;1;Same;high;70;96;70;f;n;1;j;n;1122.646600000735
#f41ap3;59;False;2;P = T2?;ST2_high_3;2;Same;high;70;96;96;f;n;1;f;n;553.0073999998422
#f41ap3;60;False;2;P = T2?;STb_1;0;Same;None;60;60;60;f;n;1;f;n;714.1833000005136
#f41ap3;61;False;2;P = T1?;ST1_high_3;1;Same;high;70;96;70;f;n;1;f;b;1545.2242999999726
#f41ap3;62;False;2;P = T2?;STb_2;0;Same;None;70;70;70;f;n;1;f;b;2132.7971999999136
#f41ap3;63;False;2;P = T1?;ST1_low_2;1;Same;low;132;82;132;f;n;1;f;n;1053.965099999914
#f41ap3;64;False;2;P = T2?;STb_4;0;Same;None;96;96;96;f;n;1;f;b;304.4406999997591
#f41ap3;65;False;2;P = T1?;ST2_high_4;2;Same;high;96;70;70;f;n;1;j;n;1564.9133999995684
#f41ap3;66;False;2;P = T2?;ST1_low_3;1;Same;low;70;112;70;f;n;1;j;n;1025.3711000004841
#f41ap3;67;False;2;P = T2?;ST2_low_2;2;Same;low;132;82;82;f;n;0;j;v;1698.0019000002358
#f41ap3;68;False;2;P = T2?;ST1_low_2;1;Same;low;132;82;132;f;n;1;j;n;1387.3398999985511
#f41ap3;69;False;2;P = T1?;ST2_high_2;2;Same;high;112;82;82;f;n;1;j;n;1860.7666999996582
#f41ap3;70;False;2;P = T1?;ST2_high_4;2;Same;high;96;70;70;f;n;1;j;n;1446.488400000817
#f41ap3;71;False;2;P = T1?;ST2_high_5;2;Same;high;96;132;132;f;n;1;j;n;1454.0973999992275
#f41ap3;72;False;2;P = T1?;ST1_low_6;1;Same;low;154;96;154;f;n;1;f;b;1230.4240000012214
#f41ap3;73;False;2;P = T2?;DT2_low_4;2;Different;low;112;70;60;f;n;0;f;b;1156.7483000017091
#f41ap3;74;False;2;P = T2?;ST1_low_4;1;Same;low;112;70;112;f;n;1;j;n;1146.523999999772
#f41ap3;75;False;2;P = T2?;ST2_high_1;2;Same;high;82;112;112;f;n;1;f;b;1319.3676000009873
#f41ap3;76;False;2;P = T1?;ST2_low_5;2;Same;low;96;154;154;f;n;1;j;n;1207.8165999992052
#f41ap3;77;False;2;P = T2?;ST1_high_1;1;Same;high;82;112;82;f;n;1;j;n;1193.4645000001183
#f41ap3;78;False;2;P = T2?;ST2_low_6;2;Same;low;154;96;96;f;n;0;j;v;2542.798700000276
#f41ap3;79;False;2;P = T1?;ST1_low_5;1;Same;low;96;154;96;f;n;0;j;v;1398.391900000206
#f41ap3;80;False;2;P = T1?;ST1_low_4;1;Same;low;112;70;112;f;n;1;f;b;2200.8975999997347
#f41ap3;81;False;2;P = T1?;ST2_high_3;2;Same;high;70;96;96;f;n;1;j;n;1302.4186999991798
#f41ap3;82;False;2;P = T2?;ST1_low_4;1;Same;low;112;70;112;f;n;1;j;n;1633.2468999989942
#f41ap3;83;False;2;P = T2?;ST2_low_4;2;Same;low;112;70;70;f;n;1;f;b;1168.3184999983496
#f41ap3;84;False;2;P = T2?;ST2_low_5;2;Same;low;96;154;154;f;n;1;f;n;1045.942599999762
#f41ap3;85;False;2;P = T1?;ST2_low_3;2;Same;low;70;112;112;f;n;1;j;n;6147.025199999916
#f41ap3;86;False;2;P = T2?;ST1_high_5;1;Same;high;96;132;96;f;n;0;f;b;2599.6677999992244
#f41ap3;87;False;2;P = T1?;DT1_high_5;1;Different;high;96;132;82;f;n;0;f;n;2587.4776000000566
#f41ap3;88;False;2;P = T1?;ST2_low_4;2;Same;low;112;70;70;f;n;1;j;n;3057.515299999068
#f41ap3;89;False;2;P = T1?;ST1_high_5;1;Same;high;96;132;96;f;n;1;f;b;3345.3021999994235
#f41ap3;90;False;2;P = T2?;ST1_low_5;1;Same;low;96;154;96;f;n;1;j;n;1353.268400000161
#f41ap3;91;False;2;P = T1?;ST1_low_4;1;Same;low;112;70;112;f;n;1;f;n;1005.6917000001704
#f41ap3;92;False;2;P = T1?;STb_5;0;Same;None;112;112;112;f;n;0;j;v;1289.5043999997142
#f41ap3;93;False;2;P = T2?;ST2_low_4;2;Same;low;112;70;70;f;n;1;f;v;1103.4450000006473
#f41ap3;94;False;2;P = T1?;DT2_low_3;2;Different;low;70;112;132;f;n;1;j;n;1259.5567999997002
#f41ap3;95;False;2;P = T2?;ST2_high_6;2;Same;high;132;96;96;f;n;1;f;n;1397.8724000007787
#f41ap3;96;False;2;P = T1?;ST2_low_3;2;Same;low;70;112;112;f;n;1;j;v;1384.1316999987612
#f41ap3;97;False;2;P = T1?;ST2_low_5;2;Same;low;96;154;154;f;n;1;j;n;1065.818400000353
#f41ap3;98;False;2;P = T2?;ST2_high_5;2;Same;high;96;132;132;f;n;1;f;n;1636.9948999999906
#f41ap3;99;False;2;P = T2?;ST1_high_4;1;Same;high;96;70;96;f;n;1;j;v;1820.7628000000113
#f41ap3;100;False;2;P = T1?;ST2_low_1;2;Same;low;82;132;132;f;n;1;j;n;1038.4297000000515
#f41ap3;101;False;2;P = T1?;ST1_high_6;1;Same;high;132;96;132;f;n;0;j;n;1204.360400000951
#f41ap3;102;False;2;P = T1?;ST1_low_6;1;Same;low;154;96;154;f;n;0;j;v;2413.962200000242
#f41ap3;103;False;2;P = T2?;ST1_low_5;1;Same;low;96;154;96;f;n;1;j;n;3943.7577000007877
#f41ap3;104;False;2;P = T1?;ST2_high_6;2;Same;high;132;96;96;f;n;0;f;v;435.14200000026904
#f41ap3;105;False;2;P = T1?;ST2_low_6;2;Same;low;154;96;96;f;n;1;j;n;3514.574000000721
#f41ap3;106;False;2;P = T1?;ST2_low_2;2;Same;low;132;82;82;f;n;1;j;n;3109.385600000678
#f41ap3;107;False;2;P = T2?;ST2_high_3;2;Same;high;70;96;96;f;n;1;f;n;1353.6822000005486
#f41ap3;108;False;2;P = T2?;ST2_high_1;2;Same;high;82;112;112;f;n;1;f;n;2394.256599998698
#f41ap3;109;False;2;P = T1?;ST1_low_4;1;Same;low;112;70;112;f;n;1;f;n;12113.823100000445
#f41ap3;110;False;2;P = T1?;ST1_high_6;1;Same;high;132;96;132;f;n;1;f;n;13158.814200000052
#f41ap3;111;False;2;P = T2?;ST2_low_5;2;Same;low;96;154;154;f;n;1;f;n;2168.5056000005716
#f41ap3;112;False;2;P = T2?;ST2_low_3;2;Same;low;70;112;112;f;n;1;f;n;2417.6803000009386
#f41ap3;113;False;2;P = T1?;ST2_high_1;2;Same;high;82;112;112;f;n;0;f;v;1946.8340000003082
#f41ap3;114;False;2;P = T2?;ST1_low_6;1;Same;low;154;96;154;f;n;1;j;n;2965.3911999994307
#f41ap3;115;False;2;P = T1?;DT1_low_2;1;Different;low;132;82;154;f;n;0;f;v;1546.6894000001048
#f41ap3;116;False;2;P = T2?;ST2_high_4;2;Same;high;96;70;70;f;n;1;f;n;3548.4978999993473
#f41ap3;117;False;2;P = T1?;ST1_low_1;1;Same;low;82;132;82;f;n;1;f;b;9517.948899998373
#f41ap3;118;False;2;P = T1?;ST1_high_4;1;Same;high;96;70;96;f;n;1;f;b;1306.7181999995228
#f41ap3;119;False;2;P = T1?;ST2_high_5;2;Same;high;96;132;132;f;n;1;j;n;1863.4531999996398
#f41ap3;120;False;2;P = T1?;ST2_high_4;2;Same;high;96;70;70;f;n;1;j;n;5929.401100000177
#f41ap3;121;False;2;P = T2?;ST1_high_2;1;Same;high;112;82;112;f;n;1;j;n;1529.7957000002498
#f41ap3;122;False;2;P = T2?;ST1_low_3;1;Same;low;70;112;70;f;n;1;j;n;1670.2826000000641
#f41ap3;123;False;2;P = T1?;ST1_low_3;1;Same;low;70;112;70;f;n;1;f;b;7713.245400000233
#f41ap3;124;False;2;P = T2?;ST1_high_5;1;Same;high;96;132;96;f;n;1;j;b;1331.0688000001392
#f41ap3;125;False;2;P = T1?;DT1_high_6;1;Different;high;132;96;154;f;n;0;f;n;1109.4550999987405
#f41ap3;126;False;2;P = T2?;ST2_high_6;2;Same;high;132;96;96;f;n;0;j;v;1448.7621000007493
#f41ap3;127;False;2;P = T1?;ST1_high_1;1;Same;high;82;112;82;f;n;1;f;n;1159.679899999901
#f41ap3;128;False;2;P = T1?;ST2_low_2;2;Same;low;132;82;82;f;n;1;j;n;1089.1445000015665
#f41ap3;129;False;2;P = T2?;ST2_low_1;2;Same;low;82;132;132;f;n;1;f;n;1129.6760999994149
#f41ap3;130;False;2;P = T2?;ST1_low_1;1;Same;low;82;132;82;f;n;1;j;n;1204.5632999997906
#f41ap3;131;False;2;P = T1?;ST1_high_2;1;Same;high;112;82;112;f;n;1;f;n;1180.5175999998028
#f41ap3;132;False;2;P = T1?;ST2_high_6;2;Same;high;132;96;96;f;n;1;j;n;2976.335700001073
#f41ap3;133;False;2;P = T2?;STb_8;0;Same;None;180;180;180;f;n;1;f;n;503.25920000068436
#f41ap3;134;False;2;P = T2?;DT1_low_1;1;Different;low;82;132;70;f;n;1;j;n;967.8811999983736
#f41ap3;135;False;2;P = T2?;ST2_high_2;2;Same;high;112;82;82;f;n;1;f;n;1555.1689000003535
#f41ap3;136;False;2;P = T2?;ST2_high_1;2;Same;high;82;112;112;f;n;1;f;n;1380.192700000407
#f41ap3;137;False;2;P = T2?;ST1_low_3;1;Same;low;70;112;70;f;n;1;j;n;1016.8800000010378
#f41ap3;138;False;2;P = T2?;ST1_high_6;1;Same;high;132;96;132;f;n;1;j;v;1398.092399998859
#f41ap3;139;False;2;P = T1?;ST1_low_5;1;Same;low;96;154;96;f;n;0;j;v;1629.018300000098
#f41ap3;140;False;2;P = T1?;ST1_low_5;1;Same;low;96;154;96;f;n;1;f;b;2694.256700000551
#f41ap3;141;False;2;P = T1?;ST2_low_5;2;Same;low;96;154;154;f;n;1;j;n;1389.2111999994086
#f41ap3;142;False;2;P = T2?;DT1_high_3;1;Different;high;70;96;60;f;n;1;j;n;1142.980800001169
#f41ap3;143;False;2;P = T1?;DT1_low_6;1;Different;low;154;96;180;f;n;1;j;n;1166.487299999062
#f41ap3;144;False;2;P = T2?;ST2_low_6;2;Same;low;154;96;96;f;n;1;f;n;1118.8013999999384
#f41ap3;145;False;2;P = T1?;STb_6;0;Same;None;132;132;132;f;n;0;j;n;4051.220299999841
#f41ap3;146;False;2;P = T2?;ST2_low_6;2;Same;low;154;96;96;f;n;1;f;n;1316.6810000002442
#f41ap3;147;False;2;P = T2?;ST1_low_2;1;Same;low;132;82;132;f;n;1;j;n;1462.6753000011377
#f41ap3;148;False;2;P = T1?;ST2_high_1;2;Same;high;82;112;112;f;n;1;j;n;4317.81200000114
#f41ap3;149;False;2;P = T2?;ST2_high_4;2;Same;high;96;70;70;f;n;1;f;n;896.2296999998216
#f41ap3;150;False;2;P = T1?;ST2_low_1;2;Same;low;82;132;132;f;n;1;j;n;2055.226099999345
#f41ap3;151;False;2;P = T2?;ST2_low_1;2;Same;low;82;132;132;f;n;1;f;b;1181.9083999998838
#f41ap3;152;False;2;P = T2?;ST2_low_3;2;Same;low;70;112;112;f;n;1;f;n;899.992900000143
#f41ap3;153;False;2;P = T1?;DT2_high_4;2;Different;high;96;70;60;f;n;1;j;n;1008.8121000007959
#f41ap3;154;False;2;P = T2?;STb_5;0;Same;None;112;112;112;f;n;1;f;n;1146.264400000291
#f41ap3;155;False;2;P = T2?;ST1_high_3;1;Same;high;70;96;70;f;n;0;f;b;1336.7371000003914
#f41ap3;156;False;2;P = T1?;ST1_low_6;1;Same;low;154;96;154;f;n;1;f;n;2594.221400000606
#f41ap3;157;False;2;P = T2?;ST2_low_2;2;Same;low;132;82;82;f;n;1;f;n;1723.5160000000178
#f41ap3;158;False;2;P = T2?;ST1_high_2;1;Same;high;112;82;112;f;n;1;j;n;1281.9495000003371
#f41ap3;159;False;2;P = T2?;ST1_low_2;1;Same;low;132;82;132;f;n;1;j;n;1272.72129999983
#f41ap3;160;False;2;P = T2?;DT2_high_5;2;Different;high;96;132;154;f;n;0;f;v;1750.554700000066
#f41ap3;161;False;2;P = T1?;ST1_low_3;1;Same;low;70;112;70;f;n;1;f;b;2313.340500000777
#f41ap3;162;False;2;P = T2?;ST2_high_2;2;Same;high;112;82;82;f;n;1;f;n;1133.0496999999013
#f41ap3;163;False;2;P = T2?;ST2_low_1;2;Same;low;82;132;132;f;n;1;f;n;1366.0581999993155
#f41ap3;164;False;2;P = T1?;STb_3;0;Same;None;82;82;82;f;n;1;f;n;273.02269999927375
#f41ap3;165;False;2;P = T1?;STb_8;0;Same;None;180;180;180;f;n;1;f;n;3343.7754000005953
#f41ap3;166;False;2;P = T2?;ST2_low_5;2;Same;low;96;154;154;f;n;1;f;n;1221.5242000002036
#f41ap3;167;False;2;P = T2?;ST1_low_1;1;Same;low;82;132;82;f;n;1;j;n;5891.294099999868
#f41ap3;168;False;2;P = T2?;ST2_high_5;2;Same;high;96;132;132;f;n;1;f;n;1079.4270999995206
#f41ap3;169;False;2;P = T2?;DT2_high_6;2;Different;high;132;96;82;f;n;1;j;v;1586.8262000003597
#f41ap3;170;False;2;P = T1?;ST2_high_5;2;Same;high;96;132;132;f;n;1;j;n;2623.845899999651
#f41ap3;171;False;2;P = T1?;ST1_high_1;1;Same;high;82;112;82;f;n;1;f;b;2806.0596999985137
#f41ap3;172;False;2;P = T1?;ST1_low_3;1;Same;low;70;112;70;f;n;1;f;n;2777.956699999777
#f41ap3;173;False;2;P = T2?;STb_7;0;Same;None;154;154;154;f;n;1;f;n;324.83460000003106
#f41ap3;174;False;2;P = T2?;ST1_high_6;1;Same;high;132;96;132;f;n;1;j;n;1136.4783000008174
#f41ap3;175;False;2;P = T1?;ST2_high_3;2;Same;high;70;96;96;f;n;1;j;b;1057.0494999992661
#f41ap3;176;False;2;P = T2?;DT2_low_1;2;Different;low;82;132;154;f;n;1;j;n;1163.8428999995085
