p_code;trial_nr;practice;block;question;condition;seqPos;Same_or_Diff;ITS;T1_hz;T2_hz;P_hz;yes_key;sure_key;correct;yes_no;rating;resp_time
kl65!f9;1;True;1;P = T1?;DT1_low_2;1;Different;low;132;82;154;f;v;1;j;v;3947.234799999933
kl65!f9;2;True;1;P = T2?;ST1_low_3;1;Same;low;70;112;70;f;v;1;j;v;4370.556899999428
kl65!f9;3;True;1;P = T1?;DT1_high_4;1;Different;high;96;70;112;f;v;0;f;b;5991.209499999968
kl65!f9;4;True;1;P = T1?;STb_3;0;Same;None;82;82;82;f;v;0;j;v;1786.612400001104
kl65!f9;5;True;1;P = T2?;STb_2;0;Same;None;70;70;70;f;v;1;f;v;1923.9309999993566
kl65!f9;6;True;1;P = T1?;ST2_high_6;2;Same;high;132;96;96;f;v;1;j;v;1518.271899998581
kl65!f9;7;True;1;P = T1?;STb_8;0;Same;None;180;180;180;f;v;1;f;v;2384.2194999997446
kl65!f9;8;True;1;P = T1?;ST1_high_5;1;Same;high;96;132;96;f;v;1;f;b;3324.788699999772
kl65!f9;9;True;1;P = T2?;STb_1;0;Same;None;60;60;60;f;v;1;f;v;1138.4416000000783
kl65!f9;10;True;1;P = T1?;ST1_low_4;1;Same;low;112;70;112;f;v;1;f;v;1085.9216000008018
kl65!f9;11;True;1;P = T1?;ST2_high_3;2;Same;high;70;96;96;f;v;0;f;v;1130.99770000008
kl65!f9;12;True;1;P = T2?;ST2_high_3;2;Same;high;70;96;96;f;v;1;f;v;2584.6618999985367
kl65!f9;13;True;1;P = T2?;DT2_high_6;2;Different;high;132;96;82;f;v;0;f;v;1432.9307999996672
kl65!f9;14;True;1;P = T2?;ST1_low_4;1;Same;low;112;70;112;f;v;1;j;v;2194.941399999152
kl65!f9;15;True;1;P = T2?;DT2_low_5;2;Different;low;96;154;180;f;v;1;j;b;1943.8958000009734
kl65!f9;16;True;1;P = T2?;ST2_high_3;2;Same;high;70;96;96;f;v;1;f;b;1952.951999999641
p_code;trial_nr;practice;block;question;condition;seqPos;Same_or_Diff;ITS;T1_hz;T2_hz;P_hz;yes_key;sure_key;correct;yes_no;rating;resp_time
kl65!f9;1;False;1;P = T1?;STb_3;0;Same;None;82;82;82;f;v;1;f;v;2893.1781000010233
kl65!f9;2;False;1;P = T2?;DT1_low_5;1;Different;low;96;154;82;f;v;1;j;b;4632.989499999894
kl65!f9;3;False;1;P = T1?;ST1_low_1;1;Same;low;82;132;82;f;v;1;f;b;1755.4520000012417
kl65!f9;4;False;1;P = T1?;ST1_high_5;1;Same;high;96;132;96;f;v;0;j;n;3743.0003000008583
kl65!f9;5;False;1;P = T2?;ST1_high_5;1;Same;high;96;132;96;f;v;1;j;v;1848.8025999995443
kl65!f9;6;False;1;P = T1?;ST2_high_2;2;Same;high;112;82;82;f;v;1;j;v;1194.8381999991398
kl65!f9;7;False;1;P = T2?;ST1_high_4;1;Same;high;96;70;96;f;v;1;j;v;1651.7167999991216
kl65!f9;8;False;1;P = T2?;STb_2;0;Same;None;70;70;70;f;v;1;f;v;2759.928299999956
kl65!f9;9;False;1;P = T1?;ST2_low_5;2;Same;low;96;154;154;f;v;1;j;v;1701.0685999994166
kl65!f9;10;False;1;P = T1?;ST1_high_3;1;Same;high;70;96;70;f;v;0;j;b;3556.2501000003977
kl65!f9;11;False;1;P = T2?;ST1_low_3;1;Same;low;70;112;70;f;v;1;j;v;1593.7813999989885
kl65!f9;12;False;1;P = T2?;DT2_low_6;2;Different;low;154;96;82;f;v;1;j;b;1147.615500000029
kl65!f9;13;False;1;P = T2?;ST1_low_2;1;Same;low;132;82;132;f;v;1;j;v;1058.417799999006
kl65!f9;14;False;1;P = T1?;ST1_high_5;1;Same;high;96;132;96;f;v;1;f;v;1197.4322000005486
kl65!f9;15;False;1;P = T2?;STb_8;0;Same;None;180;180;180;f;v;0;j;v;2114.5540999987134
kl65!f9;16;False;1;P = T2?;ST1_high_4;1;Same;high;96;70;96;f;v;0;f;b;3482.334800000899
kl65!f9;17;False;1;P = T2?;ST1_high_6;1;Same;high;132;96;132;f;v;1;j;v;1053.0457999993814
kl65!f9;18;False;1;P = T1?;ST1_low_5;1;Same;low;96;154;96;f;v;1;f;b;2634.248200000002
kl65!f9;19;False;1;P = T1?;ST2_low_5;2;Same;low;96;154;154;f;v;1;j;v;1429.4574999985343
kl65!f9;20;False;1;P = T1?;ST2_high_4;2;Same;high;96;70;70;f;v;1;j;v;1261.7503000001307
kl65!f9;21;False;1;P = T2?;ST1_low_5;1;Same;low;96;154;96;f;v;1;j;v;1025.2983000009408
kl65!f9;22;False;1;P = T1?;ST1_high_6;1;Same;high;132;96;132;f;v;1;f;b;1024.8770999987755
kl65!f9;23;False;1;P = T1?;ST2_high_5;2;Same;high;96;132;132;f;v;1;j;v;1796.5915000004316
kl65!f9;24;False;1;P = T1?;ST2_low_1;2;Same;low;82;132;132;f;v;1;j;v;1895.7291999995505
kl65!f9;25;False;1;P = T2?;ST1_high_1;1;Same;high;82;112;82;f;v;1;j;v;1799.386600001526
kl65!f9;26;False;1;P = T1?;ST1_low_1;1;Same;low;82;132;82;f;v;1;f;v;3672.5521999997
kl65!f9;27;False;1;P = T2?;ST1_high_3;1;Same;high;70;96;70;f;v;1;j;b;2707.6909999996133
kl65!f9;28;False;1;P = T2?;ST2_high_2;2;Same;high;112;82;82;f;v;0;j;b;3310.3150999995705
kl65!f9;29;False;1;P = T1?;ST2_high_4;2;Same;high;96;70;70;f;v;1;j;b;2215.234999999666
kl65!f9;30;False;1;P = T1?;STb_4;0;Same;None;96;96;96;f;v;1;f;n;1428.028100001029
kl65!f9;31;False;1;P = T1?;ST1_low_4;1;Same;low;112;70;112;f;v;0;j;b;3454.255700000431
kl65!f9;32;False;1;P = T2?;STb_3;0;Same;None;82;82;82;f;v;1;f;b;1254.2155999999522
kl65!f9;33;False;1;P = T1?;DT2_high_4;2;Different;high;96;70;60;f;v;0;f;b;2402.347599998393
kl65!f9;34;False;1;P = T1?;ST2_low_6;2;Same;low;154;96;96;f;v;1;j;v;1365.7571000003372
kl65!f9;35;False;1;P = T2?;ST2_high_1;2;Same;high;82;112;112;f;v;0;j;v;2932.313900000736
kl65!f9;36;False;1;P = T2?;ST1_high_4;1;Same;high;96;70;96;f;v;1;j;v;1191.5595999998914
kl65!f9;37;False;1;P = T1?;DT2_low_3;2;Different;low;70;112;132;f;v;1;j;v;1849.5342000005621
kl65!f9;38;False;1;P = T2?;ST1_low_5;1;Same;low;96;154;96;f;v;1;j;v;1457.9202999993868
kl65!f9;39;False;1;P = T1?;ST1_low_2;1;Same;low;132;82;132;f;v;0;j;v;1747.9278999999224
kl65!f9;40;False;1;P = T2?;ST2_high_2;2;Same;high;112;82;82;f;v;0;j;b;9254.229699999996
kl65!f9;41;False;1;P = T2?;ST2_high_6;2;Same;high;132;96;96;f;v;1;f;b;1424.4220000000496
kl65!f9;42;False;1;P = T1?;ST2_low_4;2;Same;low;112;70;70;f;v;1;j;v;4067.128099999536
kl65!f9;43;False;1;P = T1?;ST2_low_2;2;Same;low;132;82;82;f;v;1;j;b;1402.037300000302
kl65!f9;44;False;1;P = T2?;ST2_low_5;2;Same;low;96;154;154;f;v;1;f;v;1365.5741999991733
kl65!f9;45;False;1;P = T1?;ST2_low_4;2;Same;low;112;70;70;f;v;1;j;v;1381.02550000076
kl65!f9;46;False;1;P = T2?;ST1_low_3;1;Same;low;70;112;70;f;v;0;f;b;1493.518999999651
kl65!f9;47;False;1;P = T2?;ST1_low_6;1;Same;low;154;96;154;f;v;1;j;v;1455.8500999992248
kl65!f9;48;False;1;P = T2?;STb_7;0;Same;None;154;154;154;f;v;1;f;v;2294.7911999999633
kl65!f9;49;False;1;P = T2?;ST2_low_2;2;Same;low;132;82;82;f;v;1;f;b;1350.3430999990087
kl65!f9;50;False;1;P = T1?;ST1_high_2;1;Same;high;112;82;112;f;v;0;j;v;1780.2516000010655
kl65!f9;51;False;1;P = T2?;ST2_high_3;2;Same;high;70;96;96;f;v;1;f;v;2961.1674999996467
kl65!f9;52;False;1;P = T2?;ST2_low_4;2;Same;low;112;70;70;f;v;1;f;b;3097.8923000002396
kl65!f9;53;False;1;P = T1?;ST1_low_3;1;Same;low;70;112;70;f;v;0;j;b;1193.0795000007492
kl65!f9;54;False;1;P = T1?;ST1_high_3;1;Same;high;70;96;70;f;v;0;j;n;4243.875399999524
kl65!f9;55;False;1;P = T1?;DT1_high_6;1;Different;high;132;96;154;f;v;0;f;v;1251.5293000014935
kl65!f9;56;False;1;P = T1?;ST1_low_5;1;Same;low;96;154;96;f;v;1;f;b;3125.5879000000277
kl65!f9;57;False;1;P = T2?;ST1_high_6;1;Same;high;132;96;132;f;v;1;j;v;1676.960599999802
kl65!f9;58;False;1;P = T1?;ST1_high_4;1;Same;high;96;70;96;f;v;1;f;b;2605.4209000012634
kl65!f9;59;False;1;P = T2?;ST1_high_1;1;Same;high;82;112;82;f;v;1;j;v;1989.9709000001167
kl65!f9;60;False;1;P = T1?;ST2_high_6;2;Same;high;132;96;96;f;v;0;f;b;3782.8838000004907
kl65!f9;61;False;1;P = T2?;ST1_low_1;1;Same;low;82;132;82;f;v;1;j;v;1738.186600001427
kl65!f9;62;False;1;P = T1?;ST2_high_1;2;Same;high;82;112;112;f;v;0;f;b;1482.7065999998013
kl65!f9;63;False;1;P = T2?;ST2_high_3;2;Same;high;70;96;96;f;v;0;j;v;1260.4104000001826
kl65!f9;64;False;1;P = T2?;ST2_low_6;2;Same;low;154;96;96;f;v;0;j;v;1259.856699998636
kl65!f9;65;False;1;P = T1?;DT1_low_2;1;Different;low;132;82;154;f;v;0;f;v;1991.3986999999906
kl65!f9;66;False;1;P = T1?;ST1_low_4;1;Same;low;112;70;112;f;v;1;f;v;1367.306500000268
kl65!f9;67;False;1;P = T2?;ST2_low_6;2;Same;low;154;96;96;f;v;0;j;v;1634.0032999996765
kl65!f9;68;False;1;P = T2?;ST1_high_2;1;Same;high;112;82;112;f;v;1;j;v;3078.259399999297
kl65!f9;69;False;1;P = T2?;ST1_high_1;1;Same;high;82;112;82;f;v;0;f;n;2002.9021999998804
kl65!f9;70;False;1;P = T2?;ST2_high_4;2;Same;high;96;70;70;f;v;1;f;n;3084.886999999071
kl65!f9;71;False;1;P = T2?;ST1_low_5;1;Same;low;96;154;96;f;v;1;j;b;3240.8349000015733
kl65!f9;72;False;1;P = T1?;ST2_high_6;2;Same;high;132;96;96;f;v;1;j;b;2400.3666000007797
kl65!f9;73;False;1;P = T1?;ST2_high_6;2;Same;high;132;96;96;f;v;0;f;v;4329.788800001552
kl65!f9;74;False;1;P = T1?;ST2_low_3;2;Same;low;70;112;112;f;v;1;j;v;2293.874400000277
kl65!f9;75;False;1;P = T1?;ST1_low_6;1;Same;low;154;96;154;f;v;1;f;b;1308.6478000004718
kl65!f9;76;False;1;P = T1?;ST1_high_5;1;Same;high;96;132;96;f;v;0;j;n;4703.345500000069
kl65!f9;77;False;1;P = T1?;ST1_high_4;1;Same;high;96;70;96;f;v;1;f;b;3795.5852000013692
kl65!f9;78;False;1;P = T2?;ST1_high_2;1;Same;high;112;82;112;f;v;1;j;v;3330.969599999662
kl65!f9;79;False;1;P = T1?;DT2_low_6;2;Different;low;154;96;82;f;v;0;f;b;5817.162600000302
kl65!f9;80;False;1;P = T2?;ST2_low_3;2;Same;low;70;112;112;f;v;0;j;b;2768.7254000011308
kl65!f9;81;False;1;P = T1?;ST1_high_2;1;Same;high;112;82;112;f;v;0;j;v;2370.462299999417
kl65!f9;82;False;1;P = T1?;ST1_high_1;1;Same;high;82;112;82;f;v;1;f;b;1237.3339000005217
kl65!f9;83;False;1;P = T1?;ST2_low_5;2;Same;low;96;154;154;f;v;1;j;v;1056.1250999999174
kl65!f9;84;False;1;P = T1?;ST2_low_1;2;Same;low;82;132;132;f;v;1;j;v;1295.183199999883
kl65!f9;85;False;1;P = T1?;ST2_high_2;2;Same;high;112;82;82;f;v;1;j;b;1718.3147000014287
kl65!f9;86;False;1;P = T1?;ST2_low_2;2;Same;low;132;82;82;f;v;1;j;v;1498.8678999998228
kl65!f9;87;False;1;P = T1?;ST2_high_3;2;Same;high;70;96;96;f;v;0;f;b;1262.096799999199
kl65!f9;88;False;1;P = T1?;ST2_low_3;2;Same;low;70;112;112;f;v;1;j;v;2868.3868999996776
kl65!f9;89;False;1;P = T1?;STb_5;0;Same;None;112;112;112;f;v;1;f;v;1621.328100000028
kl65!f9;90;False;1;P = T2?;ST2_low_2;2;Same;low;132;82;82;f;v;0;j;n;7678.7076000000525
kl65!f9;91;False;1;P = T2?;ST2_high_6;2;Same;high;132;96;96;f;v;0;j;b;4727.9794000005495
kl65!f9;92;False;1;P = T1?;ST1_high_6;1;Same;high;132;96;132;f;v;0;j;v;1204.4163999999
kl65!f9;93;False;1;P = T2?;ST1_low_4;1;Same;low;112;70;112;f;v;1;j;v;1383.1234999997832
kl65!f9;94;False;1;P = T2?;DT2_low_2;2;Different;low;132;82;70;f;v;1;j;v;1355.822100000296
kl65!f9;95;False;1;P = T1?;ST1_high_3;1;Same;high;70;96;70;f;v;1;f;b;1836.841899999854
kl65!f9;96;False;1;P = T2?;ST2_low_1;2;Same;low;82;132;132;f;v;0;j;v;1519.2489000000933
kl65!f9;97;False;1;P = T2?;ST2_low_6;2;Same;low;154;96;96;f;v;1;f;b;1975.748900000326
kl65!f9;98;False;1;P = T1?;ST2_low_3;2;Same;low;70;112;112;f;v;1;j;v;1703.4163999996963
kl65!f9;99;False;1;P = T2?;ST1_low_2;1;Same;low;132;82;132;f;v;1;j;v;1465.744299999642
kl65!f9;100;False;1;P = T1?;ST1_low_6;1;Same;low;154;96;154;f;v;1;f;v;1502.013799999986
kl65!f9;101;False;1;P = T2?;ST2_high_4;2;Same;high;96;70;70;f;v;1;f;b;2802.951800000301
kl65!f9;102;False;1;P = T1?;ST1_high_1;1;Same;high;82;112;82;f;v;1;f;b;1374.9470000002475
kl65!f9;103;False;1;P = T2?;ST1_low_1;1;Same;low;82;132;82;f;v;1;j;v;1252.3956000004546
kl65!f9;104;False;1;P = T1?;DT1_high_3;1;Different;high;70;96;60;f;v;1;j;v;2282.5939000013022
kl65!f9;105;False;1;P = T1?;ST2_low_4;2;Same;low;112;70;70;f;v;1;j;b;1057.2834000013245
kl65!f9;106;False;1;P = T2?;ST2_high_3;2;Same;high;70;96;96;f;v;0;j;n;3592.510600001333
kl65!f9;107;False;1;P = T1?;DT2_low_2;2;Different;low;132;82;70;f;v;1;j;v;4054.5258000001922
kl65!f9;108;False;1;P = T1?;ST1_high_4;1;Same;high;96;70;96;f;v;0;j;v;1741.0949999994045
kl65!f9;109;False;1;P = T2?;STb_5;0;Same;None;112;112;112;f;v;1;f;v;4624.218200000541
kl65!f9;110;False;1;P = T2?;ST1_high_5;1;Same;high;96;132;96;f;v;0;f;v;1341.3978999997198
kl65!f9;111;False;1;P = T2?;ST2_high_4;2;Same;high;96;70;70;f;v;1;f;b;1580.0486000007368
kl65!f9;112;False;1;P = T2?;ST1_low_6;1;Same;low;154;96;154;f;v;1;j;v;1120.5159000001004
kl65!f9;113;False;1;P = T2?;ST1_high_2;1;Same;high;112;82;112;f;v;1;j;b;1258.9029999999184
kl65!f9;114;False;1;P = T1?;ST1_low_3;1;Same;low;70;112;70;f;v;1;f;b;1253.750800000489
kl65!f9;115;False;1;P = T2?;DT2_low_5;2;Different;low;96;154;180;f;v;1;j;v;1981.564799998523
kl65!f9;116;False;1;P = T1?;ST2_low_6;2;Same;low;154;96;96;f;v;1;j;v;2226.464400000623
kl65!f9;117;False;1;P = T2?;ST2_high_5;2;Same;high;96;132;132;f;v;0;j;b;2114.01560000013
kl65!f9;118;False;1;P = T2?;ST1_low_1;1;Same;low;82;132;82;f;v;1;j;v;9946.355399999447
kl65!f9;119;False;1;P = T2?;ST2_high_6;2;Same;high;132;96;96;f;v;0;j;v;859.5182999997633
kl65!f9;120;False;1;P = T2?;ST2_high_2;2;Same;high;112;82;82;f;v;1;f;b;1125.6291999998211
kl65!f9;121;False;1;P = T2?;DT2_low_4;2;Different;low;112;70;60;f;v;1;j;v;2254.4589000008273
kl65!f9;122;False;1;P = T1?;ST2_high_1;2;Same;high;82;112;112;f;v;1;j;b;4853.200900000957
kl65!f9;123;False;1;P = T2?;ST2_low_5;2;Same;low;96;154;154;f;v;1;f;v;3969.3251000007876
kl65!f9;124;False;1;P = T2?;DT1_low_1;1;Different;low;82;132;70;f;v;1;j;v;1222.8086000013718
kl65!f9;125;False;1;P = T2?;STb_4;0;Same;None;96;96;96;f;v;1;f;v;973.7588000007236
kl65!f9;126;False;1;P = T1?;ST2_high_3;2;Same;high;70;96;96;f;v;0;f;v;931.7025000000285
kl65!f9;127;False;1;P = T1?;ST1_high_2;1;Same;high;112;82;112;f;v;1;f;v;1009.2346999990696
kl65!f9;128;False;1;P = T2?;ST2_high_5;2;Same;high;96;132;132;f;v;1;f;v;1022.3742999987735
kl65!f9;129;False;1;P = T2?;ST2_high_1;2;Same;high;82;112;112;f;v;1;f;v;1018.4179000007134
kl65!f9;130;False;1;P = T1?;DT1_high_5;1;Different;high;96;132;82;f;v;0;f;b;1240.2398000012909
kl65!f9;131;False;1;P = T2?;ST1_low_6;1;Same;low;154;96;154;f;v;1;j;v;1158.1371000011131
kl65!f9;132;False;1;P = T1?;ST2_high_3;2;Same;high;70;96;96;f;v;0;f;v;866.1603000000468
kl65!f9;133;False;1;P = T1?;STb_7;0;Same;None;154;154;154;f;v;1;f;b;1144.352400000571
kl65!f9;134;False;1;P = T2?;STb_6;0;Same;None;132;132;132;f;v;1;f;v;558.8705000009213
kl65!f9;135;False;1;P = T2?;ST2_low_4;2;Same;low;112;70;70;f;v;0;j;v;1164.4489000009344
kl65!f9;136;False;1;P = T1?;ST1_high_1;1;Same;high;82;112;82;f;v;1;f;b;2231.34089999985
kl65!f9;137;False;1;P = T1?;ST1_high_6;1;Same;high;132;96;132;f;v;1;f;v;1119.3978000010247
kl65!f9;138;False;1;P = T1?;ST2_low_1;2;Same;low;82;132;132;f;v;1;j;v;1184.6787000013137
kl65!f9;139;False;1;P = T1?;ST2_high_5;2;Same;high;96;132;132;f;v;1;j;v;1026.407699999254
kl65!f9;140;False;1;P = T2?;STb_1;0;Same;None;60;60;60;f;v;1;f;v;1200.5606000002444
kl65!f9;141;False;1;P = T1?;ST2_low_6;2;Same;low;154;96;96;f;v;1;j;b;3811.4234000004217
kl65!f9;142;False;1;P = T2?;ST2_low_3;2;Same;low;70;112;112;f;v;1;f;v;1118.0046000008588
kl65!f9;143;False;1;P = T2?;ST1_high_3;1;Same;high;70;96;70;f;v;1;j;v;2105.3362999991805
kl65!f9;144;False;1;P = T1?;ST2_high_5;2;Same;high;96;132;132;f;v;1;j;v;1434.5874999999069
kl65!f9;145;False;1;P = T2?;ST1_low_4;1;Same;low;112;70;112;f;v;1;j;v;936.4965999993728
kl65!f9;146;False;1;P = T2?;DT1_high_2;1;Different;high;112;82;132;f;v;1;j;v;1873.782000000574
kl65!f9;147;False;1;P = T2?;ST2_low_2;2;Same;low;132;82;82;f;v;1;f;v;1626.7558999988978
kl65!f9;148;False;1;P = T2?;ST1_low_3;1;Same;low;70;112;70;f;v;1;j;v;1904.1626999987784
kl65!f9;149;False;1;P = T1?;ST1_low_5;1;Same;low;96;154;96;f;v;1;f;b;3131.995100000495
kl65!f9;150;False;1;P = T1?;ST1_low_2;1;Same;low;132;82;132;f;v;1;f;v;2201.0683999997127
kl65!f9;151;False;1;P = T2?;ST2_low_3;2;Same;low;70;112;112;f;v;0;j;v;3394.626099998277
kl65!f9;152;False;1;P = T1?;STb_1;0;Same;None;60;60;60;f;v;0;j;n;9435.017199999493
kl65!f9;153;False;1;P = T2?;ST1_high_5;1;Same;high;96;132;96;f;v;1;j;v;1271.0993999990023
kl65!f9;154;False;1;P = T1?;ST2_high_4;2;Same;high;96;70;70;f;v;0;f;b;1368.8479000011284
kl65!f9;155;False;1;P = T2?;ST1_high_6;1;Same;high;132;96;132;f;v;1;j;v;1053.6744000000908
kl65!f9;156;False;1;P = T1?;ST1_low_3;1;Same;low;70;112;70;f;v;1;f;n;6683.251899999959
kl65!f9;157;False;1;P = T1?;STb_6;0;Same;None;132;132;132;f;v;1;f;v;918.0917000012414
kl65!f9;158;False;1;P = T2?;ST2_low_4;2;Same;low;112;70;70;f;v;1;f;v;1506.094000000303
kl65!f9;159;False;1;P = T2?;ST1_low_4;1;Same;low;112;70;112;f;v;1;j;v;1039.4206999990274
kl65!f9;160;False;1;P = T1?;ST1_low_6;1;Same;low;154;96;154;f;v;1;f;v;997.0401000009588
kl65!f9;161;False;1;P = T1?;ST1_low_4;1;Same;low;112;70;112;f;v;1;f;v;874.393100000816
kl65!f9;162;False;1;P = T1?;ST2_low_2;2;Same;low;132;82;82;f;v;1;j;v;1210.8872999997402
kl65!f9;163;False;1;P = T2?;ST1_high_3;1;Same;high;70;96;70;f;v;1;j;v;1856.7476000007446
kl65!f9;164;False;1;P = T2?;ST2_low_1;2;Same;low;82;132;132;f;v;0;j;v;1453.6736999998539
kl65!f9;165;False;1;P = T2?;ST1_low_2;1;Same;low;132;82;132;f;v;1;j;v;1289.7569999986445
kl65!f9;166;False;1;P = T2?;ST2_low_5;2;Same;low;96;154;154;f;v;1;f;b;1214.1690000007657
kl65!f9;167;False;1;P = T1?;ST1_low_1;1;Same;low;82;132;82;f;v;1;f;v;1109.889800000019
kl65!f9;168;False;1;P = T2?;DT1_high_3;1;Different;high;70;96;60;f;v;1;j;n;1323.5838000000513
kl65!f9;169;False;1;P = T1?;ST2_high_2;2;Same;high;112;82;82;f;v;1;j;v;1166.1178000013024
kl65!f9;170;False;1;P = T2?;ST2_high_1;2;Same;high;82;112;112;f;v;0;j;b;1709.1446999984328
kl65!f9;171;False;1;P = T1?;ST2_high_1;2;Same;high;82;112;112;f;v;1;j;b;2166.89629999928
kl65!f9;172;False;1;P = T1?;STb_8;0;Same;None;180;180;180;f;v;0;j;n;4371.305900000152
kl65!f9;173;False;1;P = T2?;ST2_low_1;2;Same;low;82;132;132;f;v;1;f;v;1239.8964000003616
kl65!f9;174;False;1;P = T1?;STb_2;0;Same;None;70;70;70;f;v;1;f;v;1017.2772999994777
kl65!f9;175;False;1;P = T2?;ST2_high_5;2;Same;high;96;132;132;f;v;1;f;v;5466.285900000003
kl65!f9;176;False;1;P = T1?;ST1_low_2;1;Same;low;132;82;132;f;v;1;f;v;1147.644799999398
kl65!f9;1;True;2;P != T1?;DT1_low_1;1;Different;low;82;132;70;f;v;0;j;b;19551.29669999951
kl65!f9;2;True;2;P != T2?;ST2_high_1;2;Same;high;82;112;112;f;v;1;j;v;3109.246500000154
kl65!f9;3;True;2;P != T2?;DT2_high_3;2;Different;high;70;96;112;f;v;0;j;v;2162.4817000010808
kl65!f9;4;True;2;P != T2?;ST1_high_5;1;Same;high;96;132;96;f;v;1;f;v;3245.049900000595
kl65!f9;5;True;2;P != T1?;STb_4;0;Same;None;96;96;96;f;v;1;j;v;2588.335200000074
kl65!f9;6;True;2;P != T2?;DT1_low_1;1;Different;low;82;132;70;f;v;1;f;v;2147.4859999998444
kl65!f9;7;True;2;P != T1?;STb_6;0;Same;None;132;132;132;f;v;1;j;v;1936.1133000002155
kl65!f9;8;True;2;P != T2?;STb_6;0;Same;None;132;132;132;f;v;0;f;v;6397.1180000007735
kl65!f9;9;True;2;P != T2?;ST2_low_2;2;Same;low;132;82;82;f;v;0;f;n;3185.050500000216
kl65!f9;10;True;2;P != T2?;STb_8;0;Same;None;180;180;180;f;v;1;j;v;2647.524699999849
kl65!f9;11;True;2;P != T1?;DT2_high_1;2;Different;high;82;112;132;f;v;1;f;b;8324.329000000944
kl65!f9;12;True;2;P != T1?;ST1_high_2;1;Same;high;112;82;112;f;v;0;f;v;2145.2196999998705
kl65!f9;13;True;2;P != T1?;ST2_high_6;2;Same;high;132;96;96;f;v;0;j;b;3121.9423999991704
kl65!f9;14;True;2;P != T1?;ST1_low_6;1;Same;low;154;96;154;f;v;1;j;v;2182.994400000098
kl65!f9;15;True;2;P != T2?;ST1_low_6;1;Same;low;154;96;154;f;v;1;f;b;1755.3676000006817
kl65!f9;16;True;2;P != T1?;ST2_low_5;2;Same;low;96;154;154;f;v;1;f;v;1673.571900000752
kl65!f9;1;False;2;P != T2?;ST1_low_2;1;Same;low;132;82;132;f;v;1;f;v;2150.1871999989817
kl65!f9;2;False;2;P != T1?;ST1_low_6;1;Same;low;154;96;154;f;v;1;j;v;2069.428600001629
kl65!f9;3;False;2;P != T2?;ST2_high_4;2;Same;high;96;70;70;f;v;1;j;b;3709.630900000775
kl65!f9;4;False;2;P != T1?;ST2_low_3;2;Same;low;70;112;112;f;v;1;f;v;1428.48690000028
kl65!f9;5;False;2;P != T1?;STb_7;0;Same;None;154;154;154;f;v;1;j;n;2938.2432000002154
kl65!f9;6;False;2;P != T2?;ST2_low_2;2;Same;low;132;82;82;f;v;0;f;v;2141.1497999997664
kl65!f9;7;False;2;P != T2?;ST2_high_3;2;Same;high;70;96;96;f;v;1;j;b;2477.91160000088
kl65!f9;8;False;2;P != T1?;ST2_low_1;2;Same;low;82;132;132;f;v;1;f;v;2558.3445000011125
kl65!f9;9;False;2;P != T2?;ST1_low_6;1;Same;low;154;96;154;f;v;1;f;v;1653.1139999988227
kl65!f9;10;False;2;P != T1?;ST2_high_1;2;Same;high;82;112;112;f;v;1;f;n;2892.137400000138
kl65!f9;11;False;2;P != T1?;ST1_low_6;1;Same;low;154;96;154;f;v;1;j;v;1689.441500000612
kl65!f9;12;False;2;P != T1?;ST1_high_5;1;Same;high;96;132;96;f;v;1;j;v;1336.5068999992218
kl65!f9;13;False;2;P != T1?;ST2_low_6;2;Same;low;154;96;96;f;v;1;f;v;2798.6096999993606
kl65!f9;14;False;2;P != T2?;DT2_high_4;2;Different;high;96;70;60;f;v;0;j;v;1629.14389999969
kl65!f9;15;False;2;P != T1?;DT1_low_2;1;Different;low;132;82;154;f;v;0;j;v;3619.7298000006413
kl65!f9;16;False;2;P != T2?;ST1_high_1;1;Same;high;82;112;82;f;v;0;j;b;2017.128400000729
kl65!f9;17;False;2;P != T2?;ST1_low_5;1;Same;low;96;154;96;f;v;1;f;v;2251.2568999991345
kl65!f9;18;False;2;P != T1?;ST2_high_6;2;Same;high;132;96;96;f;v;1;f;v;2556.7936999996164
kl65!f9;19;False;2;P != T2?;STb_7;0;Same;None;154;154;154;f;v;1;j;v;1386.6345000005822
kl65!f9;20;False;2;P != T2?;ST2_high_6;2;Same;high;132;96;96;f;v;1;j;v;2102.7444999999716
kl65!f9;21;False;2;P != T2?;ST1_low_3;1;Same;low;70;112;70;f;v;1;f;n;7943.657499999972
kl65!f9;22;False;2;P != T1?;ST1_low_5;1;Same;low;96;154;96;f;v;1;j;n;3548.018699999375
kl65!f9;23;False;2;P != T2?;ST1_high_1;1;Same;high;82;112;82;f;v;0;j;v;1435.8976999992592
kl65!f9;24;False;2;P != T1?;ST2_high_5;2;Same;high;96;132;132;f;v;0;j;b;2110.245000001669
kl65!f9;25;False;2;P != T2?;ST2_high_6;2;Same;high;132;96;96;f;v;0;f;b;3675.638299999264
kl65!f9;26;False;2;P != T1?;ST1_high_1;1;Same;high;82;112;82;f;v;1;j;b;2087.9555999999866
kl65!f9;27;False;2;P != T1?;ST2_low_2;2;Same;low;132;82;82;f;v;1;f;v;3386.523999999554
kl65!f9;28;False;2;P != T2?;ST1_low_4;1;Same;low;112;70;112;f;v;1;f;v;2622.5284000011015
kl65!f9;29;False;2;P != T2?;ST2_high_5;2;Same;high;96;132;132;f;v;1;j;b;3621.015200000329
kl65!f9;30;False;2;P != T1?;ST1_low_4;1;Same;low;112;70;112;f;v;1;j;v;2884.0679000004457
kl65!f9;31;False;2;P != T2?;ST1_low_6;1;Same;low;154;96;154;f;v;1;f;v;2418.7138000015693
kl65!f9;32;False;2;P != T2?;ST1_high_1;1;Same;high;82;112;82;f;v;0;j;b;1304.8849999995582
kl65!f9;33;False;2;P != T2?;ST2_high_1;2;Same;high;82;112;112;f;v;1;j;v;1052.4576999996498
kl65!f9;34;False;2;P != T2?;ST2_high_2;2;Same;high;112;82;82;f;v;1;j;v;1286.7970999996032
kl65!f9;35;False;2;P != T2?;ST1_high_5;1;Same;high;96;132;96;f;v;1;f;v;3652.5297000007413
kl65!f9;36;False;2;P != T2?;ST2_low_6;2;Same;low;154;96;96;f;v;1;j;b;12898.497899999711
kl65!f9;37;False;2;P != T2?;ST2_low_5;2;Same;low;96;154;154;f;v;1;j;b;1765.9303000000364
kl65!f9;38;False;2;P != T2?;STb_8;0;Same;None;180;180;180;f;v;1;j;v;954.7937000006641
kl65!f9;39;False;2;P != T2?;ST2_high_2;2;Same;high;112;82;82;f;v;1;j;v;1394.490600001518
kl65!f9;40;False;2;P != T2?;ST1_high_6;1;Same;high;132;96;132;f;v;0;j;b;3307.366799999727
kl65!f9;41;False;2;P != T2?;DT1_high_4;1;Different;high;96;70;112;f;v;1;f;v;2758.555999998862
kl65!f9;42;False;2;P != T2?;STb_5;0;Same;None;112;112;112;f;v;1;j;v;6261.732799999663
kl65!f9;43;False;2;P != T1?;ST1_high_1;1;Same;high;82;112;82;f;v;0;f;b;2476.065999999264
kl65!f9;44;False;2;P != T2?;ST1_high_5;1;Same;high;96;132;96;f;v;0;j;b;4327.270800000406
kl65!f9;45;False;2;P != T1?;ST2_low_3;2;Same;low;70;112;112;f;v;0;j;v;2159.6806999987166
kl65!f9;46;False;2;P != T1?;DT1_high_4;1;Different;high;96;70;112;f;v;1;f;v;2834.7627999992255
kl65!f9;47;False;2;P != T1?;ST2_high_2;2;Same;high;112;82;82;f;v;0;j;v;1242.2536999984004
kl65!f9;48;False;2;P != T2?;ST2_low_3;2;Same;low;70;112;112;f;v;1;j;v;1273.4943999985262
kl65!f9;49;False;2;P != T1?;ST2_low_5;2;Same;low;96;154;154;f;v;1;f;v;1823.742399999901
kl65!f9;50;False;2;P != T2?;ST1_low_4;1;Same;low;112;70;112;f;v;1;f;v;2345.440099999905
kl65!f9;51;False;2;P != T2?;ST1_high_4;1;Same;high;96;70;96;f;v;1;f;v;9930.6274999999
kl65!f9;52;False;2;P != T1?;ST1_high_2;1;Same;high;112;82;112;f;v;1;j;b;1528.23349999926
kl65!f9;53;False;2;P != T2?;ST1_high_4;1;Same;high;96;70;96;f;v;1;f;v;1575.2281000004587
kl65!f9;54;False;2;P != T1?;ST2_high_3;2;Same;high;70;96;96;f;v;1;f;v;2980.2842999997665
kl65!f9;55;False;2;P != T1?;STb_8;0;Same;None;180;180;180;f;v;1;j;b;1676.554200001192
kl65!f9;56;False;2;P != T2?;ST2_low_2;2;Same;low;132;82;82;f;v;1;j;b;1797.6493000005576
kl65!f9;57;False;2;P != T1?;ST1_high_6;1;Same;high;132;96;132;f;v;1;j;v;1446.1641999987478
kl65!f9;58;False;2;P != T1?;STb_2;0;Same;None;70;70;70;f;v;1;j;b;7758.8453999997
kl65!f9;59;False;2;P != T1?;ST1_low_6;1;Same;low;154;96;154;f;v;1;j;v;1262.2864000004483
kl65!f9;60;False;2;P != T2?;ST1_low_1;1;Same;low;82;132;82;f;v;0;j;b;5944.972000001144
kl65!f9;61;False;2;P != T1?;ST1_high_3;1;Same;high;70;96;70;f;v;1;j;v;1859.6990000005462
kl65!f9;62;False;2;P != T2?;DT1_low_4;1;Different;low;112;70;132;f;v;1;f;v;3626.3769999986835
kl65!f9;63;False;2;P != T1?;ST2_high_2;2;Same;high;112;82;82;f;v;0;j;v;4247.1575000017765
kl65!f9;64;False;2;P != T2?;ST1_low_1;1;Same;low;82;132;82;f;v;0;j;v;1421.9706000003498
kl65!f9;65;False;2;P != T1?;ST1_high_6;1;Same;high;132;96;132;f;v;1;j;v;1255.7410999997956
kl65!f9;66;False;2;P != T1?;ST2_high_5;2;Same;high;96;132;132;f;v;0;j;b;3066.575599999851
kl65!f9;67;False;2;P != T2?;ST2_high_4;2;Same;high;96;70;70;f;v;1;j;v;1763.7094000001525
kl65!f9;68;False;2;P != T1?;ST2_high_5;2;Same;high;96;132;132;f;v;0;j;b;6305.997399998887
kl65!f9;69;False;2;P != T2?;ST1_high_4;1;Same;high;96;70;96;f;v;0;j;b;4133.207099999709
kl65!f9;70;False;2;P != T1?;ST2_high_3;2;Same;high;70;96;96;f;v;0;j;b;4639.417700000195
kl65!f9;71;False;2;P != T2?;ST1_high_2;1;Same;high;112;82;112;f;v;1;f;b;4794.0856000004715
kl65!f9;72;False;2;P != T1?;STb_4;0;Same;None;96;96;96;f;v;0;f;b;2755.915300000197
kl65!f9;73;False;2;P != T1?;ST2_low_1;2;Same;low;82;132;132;f;v;0;j;v;9292.534599999271
kl65!f9;74;False;2;P != T2?;ST1_high_3;1;Same;high;70;96;70;f;v;0;j;v;1082.1640000012849
kl65!f9;75;False;2;P != T2?;STb_2;0;Same;None;70;70;70;f;v;1;j;v;1283.3783000005496
kl65!f9;76;False;2;P != T1?;ST1_low_3;1;Same;low;70;112;70;f;v;0;f;b;7293.991799999276
kl65!f9;77;False;2;P != T1?;ST1_high_2;1;Same;high;112;82;112;f;v;1;j;v;872.5973000000522
kl65!f9;78;False;2;P != T2?;ST2_low_1;2;Same;low;82;132;132;f;v;1;j;v;2260.178900000028
kl65!f9;79;False;2;P != T2?;STb_4;0;Same;None;96;96;96;f;v;1;j;v;1569.2441999999573
kl65!f9;80;False;2;P != T2?;STb_3;0;Same;None;82;82;82;f;v;1;j;v;2264.703799999552
kl65!f9;81;False;2;P != T2?;STb_1;0;Same;None;60;60;60;f;v;1;j;b;4970.075499999439
kl65!f9;82;False;2;P != T2?;ST2_low_1;2;Same;low;82;132;132;f;v;1;j;b;4711.723800000982
kl65!f9;83;False;2;P != T2?;ST1_high_3;1;Same;high;70;96;70;f;v;0;j;v;1645.6625999999233
kl65!f9;84;False;2;P != T2?;ST2_low_1;2;Same;low;82;132;132;f;v;1;j;b;6267.8931999998895
kl65!f9;85;False;2;P != T1?;DT2_low_6;2;Different;low;154;96;82;f;v;1;f;v;2586.7037999996683
kl65!f9;86;False;2;P != T1?;ST1_low_2;1;Same;low;132;82;132;f;v;1;j;b;1616.3113999991765
kl65!f9;87;False;2;P != T1?;DT2_high_4;2;Different;high;96;70;60;f;v;1;f;v;2272.4827000001824
kl65!f9;88;False;2;P != T2?;STb_6;0;Same;None;132;132;132;f;v;1;j;v;997.5044999991951
kl65!f9;89;False;2;P != T1?;ST2_low_2;2;Same;low;132;82;82;f;v;1;f;v;1731.7321999998967
kl65!f9;90;False;2;P != T2?;ST2_low_5;2;Same;low;96;154;154;f;v;1;j;b;3231.160799999998
kl65!f9;91;False;2;P != T1?;ST2_high_6;2;Same;high;132;96;96;f;v;1;f;v;1455.3290999992896
kl65!f9;92;False;2;P != T1?;ST2_low_4;2;Same;low;112;70;70;f;v;1;f;v;3710.4161999995995
kl65!f9;93;False;2;P != T2?;ST1_high_3;1;Same;high;70;96;70;f;v;0;j;v;2605.90190000039
kl65!f9;94;False;2;P != T1?;DT1_high_6;1;Different;high;132;96;154;f;v;0;j;v;1469.751400001769
kl65!f9;95;False;2;P != T1?;STb_3;0;Same;None;82;82;82;f;v;1;j;v;2799.8057000004337
kl65!f9;96;False;2;P != T1?;ST2_low_5;2;Same;low;96;154;154;f;v;1;f;v;1308.3265999994182
kl65!f9;97;False;2;P != T1?;ST1_high_4;1;Same;high;96;70;96;f;v;1;j;v;2057.02410000049
kl65!f9;98;False;2;P != T1?;ST2_low_6;2;Same;low;154;96;96;f;v;1;f;v;2414.133199999924
kl65!f9;99;False;2;P != T2?;ST2_low_6;2;Same;low;154;96;96;f;v;1;j;n;2232.8766000009637
kl65!f9;100;False;2;P != T1?;ST1_high_1;1;Same;high;82;112;82;f;v;0;f;v;1818.2675999996718
kl65!f9;101;False;2;P != T1?;STb_1;0;Same;None;60;60;60;f;v;1;j;v;3517.823899999712
kl65!f9;102;False;2;P != T2?;ST1_high_2;1;Same;high;112;82;112;f;v;0;j;v;1517.2241000000213
kl65!f9;103;False;2;P != T1?;ST1_low_4;1;Same;low;112;70;112;f;v;1;j;v;1856.2519000006432
kl65!f9;104;False;2;P != T2?;ST1_high_2;1;Same;high;112;82;112;f;v;0;j;n;10039.865099999588
kl65!f9;105;False;2;P != T2?;ST1_low_5;1;Same;low;96;154;96;f;v;1;f;v;2336.12549999998
kl65!f9;106;False;2;P != T1?;STb_6;0;Same;None;132;132;132;f;v;1;j;v;2719.419499999276
kl65!f9;107;False;2;P != T2?;ST2_high_2;2;Same;high;112;82;82;f;v;1;j;v;1297.9888999998366
kl65!f9;108;False;2;P != T1?;ST1_low_3;1;Same;low;70;112;70;f;v;1;j;v;1612.2524999991583
kl65!f9;109;False;2;P != T2?;ST2_high_6;2;Same;high;132;96;96;f;v;0;f;b;4606.092899999567
kl65!f9;110;False;2;P != T2?;ST2_high_3;2;Same;high;70;96;96;f;v;0;f;b;1930.3933999999572
kl65!f9;111;False;2;P != T1?;ST2_high_2;2;Same;high;112;82;82;f;v;1;f;v;1553.866399999606
kl65!f9;112;False;2;P != T2?;ST1_high_6;1;Same;high;132;96;132;f;v;1;f;v;1428.0959999996412
kl65!f9;113;False;2;P != T1?;ST2_high_6;2;Same;high;132;96;96;f;v;1;f;v;1690.830100000312
kl65!f9;114;False;2;P != T1?;ST2_high_1;2;Same;high;82;112;112;f;v;0;j;v;1223.8535999986198
kl65!f9;115;False;2;P != T2?;DT2_high_3;2;Different;high;70;96;112;f;v;0;j;v;3304.7129000005953
kl65!f9;116;False;2;P != T1?;ST1_low_5;1;Same;low;96;154;96;f;v;1;j;v;1365.9418000006553
kl65!f9;117;False;2;P != T2?;ST2_low_2;2;Same;low;132;82;82;f;v;1;j;v;3154.327700000067
kl65!f9;118;False;2;P != T1?;ST1_low_1;1;Same;low;82;132;82;f;v;1;j;v;1706.2211000011303
kl65!f9;119;False;2;P != T2?;ST2_low_3;2;Same;low;70;112;112;f;v;0;f;b;3203.4832000008464
kl65!f9;120;False;2;P != T2?;ST2_high_5;2;Same;high;96;132;132;f;v;1;j;v;1313.1736000013916
kl65!f9;121;False;2;P != T1?;ST2_low_4;2;Same;low;112;70;70;f;v;1;f;v;1750.2137999999832
kl65!f9;122;False;2;P != T2?;ST1_low_3;1;Same;low;70;112;70;f;v;1;f;v;2271.1655000002793
kl65!f9;123;False;2;P != T1?;DT2_low_4;2;Different;low;112;70;60;f;v;1;f;v;2692.4500000004628
kl65!f9;124;False;2;P != T1?;DT2_high_3;2;Different;high;70;96;112;f;v;0;j;b;5690.529999999853
kl65!f9;125;False;2;P != T2?;ST2_low_4;2;Same;low;112;70;70;f;v;1;j;v;1564.6799000005558
kl65!f9;126;False;2;P != T1?;ST1_low_4;1;Same;low;112;70;112;f;v;0;f;v;3408.1432999992103
kl65!f9;127;False;2;P != T1?;DT2_low_5;2;Different;low;96;154;180;f;v;1;f;v;1821.4846000009857
kl65!f9;128;False;2;P != T2?;DT1_low_3;1;Different;low;70;112;60;f;v;1;f;v;3765.4203999991296
kl65!f9;129;False;2;P != T1?;ST1_low_2;1;Same;low;132;82;132;f;v;1;j;v;1295.6517999991775
kl65!f9;130;False;2;P != T2?;ST1_high_6;1;Same;high;132;96;132;f;v;1;f;b;3557.1143999986816
kl65!f9;131;False;2;P != T2?;ST1_low_4;1;Same;low;112;70;112;f;v;1;f;b;3137.1772999991663
kl65!f9;132;False;2;P != T2?;ST1_low_1;1;Same;low;82;132;82;f;v;0;j;v;3026.1215000009543
kl65!f9;133;False;2;P != T1?;ST1_high_5;1;Same;high;96;132;96;f;v;1;j;b;3134.4099000016286
kl65!f9;134;False;2;P != T2?;ST2_low_6;2;Same;low;154;96;96;f;v;1;j;b;1422.1688999987236
kl65!f9;135;False;2;P != T2?;ST2_high_1;2;Same;high;82;112;112;f;v;1;j;v;690.4513000008592
kl65!f9;136;False;2;P != T1?;ST1_high_6;1;Same;high;132;96;132;f;v;1;j;v;1361.4467999996123
kl65!f9;137;False;2;P != T1?;ST2_low_1;2;Same;low;82;132;132;f;v;0;j;v;1131.8221000001358
kl65!f9;138;False;2;P != T1?;ST1_high_2;1;Same;high;112;82;112;f;v;1;j;v;1165.5710000013642
kl65!f9;139;False;2;P != T1?;ST1_low_1;1;Same;low;82;132;82;f;v;1;j;v;1146.507899999051
kl65!f9;140;False;2;P != T1?;ST1_high_5;1;Same;high;96;132;96;f;v;1;j;v;1057.5454999998328
kl65!f9;141;False;2;P != T1?;ST2_high_1;2;Same;high;82;112;112;f;v;0;j;v;1335.836999998719
kl65!f9;142;False;2;P != T1?;ST1_high_3;1;Same;high;70;96;70;f;v;1;j;v;1616.2081000002217
kl65!f9;143;False;2;P != T2?;ST2_low_5;2;Same;low;96;154;154;f;v;1;j;b;5320.206399999734
kl65!f9;144;False;2;P != T1?;ST2_low_3;2;Same;low;70;112;112;f;v;0;j;v;1390.9409000007145
kl65!f9;145;False;2;P != T2?;ST1_low_3;1;Same;low;70;112;70;f;v;1;f;b;3713.6238000002777
kl65!f9;146;False;2;P != T1?;ST2_low_5;2;Same;low;96;154;154;f;v;1;f;v;1771.142100000361
kl65!f9;147;False;2;P != T1?;ST2_low_4;2;Same;low;112;70;70;f;v;1;f;v;1017.0240999996167
kl65!f9;148;False;2;P != T2?;ST1_high_5;1;Same;high;96;132;96;f;v;0;j;v;1616.585199999463
kl65!f9;149;False;2;P != T2?;ST1_low_2;1;Same;low;132;82;132;f;v;1;f;v;2640.9311999996135
kl65!f9;150;False;2;P != T1?;ST2_low_2;2;Same;low;132;82;82;f;v;0;j;b;1483.7017999998352
kl65!f9;151;False;2;P != T1?;STb_5;0;Same;None;112;112;112;f;v;1;j;b;1368.267100000594
kl65!f9;152;False;2;P != T1?;ST2_high_4;2;Same;high;96;70;70;f;v;1;f;b;2812.414500000159
kl65!f9;153;False;2;P != T1?;ST1_high_3;1;Same;high;70;96;70;f;v;0;f;b;2033.7988000010228
kl65!f9;154;False;2;P != T1?;ST1_low_3;1;Same;low;70;112;70;f;v;1;j;v;3380.5887999988045
kl65!f9;155;False;2;P != T2?;ST1_low_2;1;Same;low;132;82;132;f;v;1;f;v;1835.349099999803
kl65!f9;156;False;2;P != T2?;DT2_high_1;2;Different;high;82;112;132;f;v;0;j;v;1126.5404999994644
kl65!f9;157;False;2;P != T1?;ST2_high_4;2;Same;high;96;70;70;f;v;1;f;v;1507.6146999999764
kl65!f9;158;False;2;P != T2?;DT1_low_1;1;Different;low;82;132;70;f;v;1;f;v;2670.1017000013962
kl65!f9;159;False;2;P != T1?;ST1_low_1;1;Same;low;82;132;82;f;v;1;j;v;1569.9151999997412
kl65!f9;160;False;2;P != T2?;ST2_low_4;2;Same;low;112;70;70;f;v;0;f;v;1551.3606000004074
kl65!f9;161;False;2;P != T1?;ST1_low_5;1;Same;low;96;154;96;f;v;1;j;v;1176.0322999998607
kl65!f9;162;False;2;P != T1?;ST1_high_4;1;Same;high;96;70;96;f;v;0;f;b;6399.783599999864
kl65!f9;163;False;2;P != T2?;ST2_high_1;2;Same;high;82;112;112;f;v;0;f;b;2719.031900000118
kl65!f9;164;False;2;P != T2?;ST2_low_4;2;Same;low;112;70;70;f;v;1;j;b;1612.0715999986714
kl65!f9;165;False;2;P != T1?;ST1_low_2;1;Same;low;132;82;132;f;v;1;j;b;1452.184899999338
kl65!f9;166;False;2;P != T2?;DT1_high_2;1;Different;high;112;82;132;f;v;1;f;b;4938.400899998669
kl65!f9;167;False;2;P != T2?;ST1_low_6;1;Same;low;154;96;154;f;v;1;f;n;3167.6695000005566
kl65!f9;168;False;2;P != T1?;ST2_high_3;2;Same;high;70;96;96;f;v;0;j;v;435.6974000002083
kl65!f9;169;False;2;P != T1?;ST2_low_6;2;Same;low;154;96;96;f;v;1;f;b;1827.7457999993203
kl65!f9;170;False;2;P != T2?;ST1_low_5;1;Same;low;96;154;96;f;v;1;f;b;1470.4075999998167
kl65!f9;171;False;2;P != T1?;ST1_high_4;1;Same;high;96;70;96;f;v;1;j;v;1171.4248999996926
kl65!f9;172;False;2;P != T2?;ST2_high_5;2;Same;high;96;132;132;f;v;1;j;v;1078.399800000625
kl65!f9;173;False;2;P != T1?;ST2_high_4;2;Same;high;96;70;70;f;v;1;f;b;1353.3227000007173
kl65!f9;174;False;2;P != T2?;ST2_high_3;2;Same;high;70;96;96;f;v;1;j;b;2643.6996000011277
kl65!f9;175;False;2;P != T2?;ST2_high_4;2;Same;high;96;70;70;f;v;0;f;b;3492.259099999501
kl65!f9;176;False;2;P != T2?;ST2_low_3;2;Same;low;70;112;112;f;v;1;j;b;2269.793800000116
