p_code;trial_nr;practice;block;question;condition;seqPos;Same_or_Diff;ITS;T1_hz;T2_hz;P_hz;yes_key;sure_key;correct;yes_no;rating;resp_time
!lg258m;1;True;1;P != T2?;DT2_high_2;2;Different;high;112;82;70;j;v;1;j;b;6787.671699999919
!lg258m;2;True;1;P != T2?;STb_2;0;Same;None;70;70;70;j;v;0;j;b;1748.5587999999552
!lg258m;3;True;1;P != T2?;ST1_low_3;1;Same;low;70;112;70;j;v;0;f;v;2965.6451000000743
!lg258m;4;True;1;P != T2?;DT1_high_2;1;Different;high;112;82;132;j;v;0;f;b;3975.688099999843
!lg258m;5;True;1;P != T2?;ST2_high_2;2;Same;high;112;82;82;j;v;0;j;b;1806.2411000000793
!lg258m;6;True;1;P != T2?;ST1_high_2;1;Same;high;112;82;112;j;v;0;f;b;2068.4904999998253
!lg258m;7;True;1;P != T1?;ST2_low_6;2;Same;low;154;96;96;j;v;0;f;b;1723.5964000001331
!lg258m;8;True;1;P != T1?;ST2_low_4;2;Same;low;112;70;70;j;v;0;f;b;1593.1455999998434
!lg258m;9;True;1;P != T1?;DT2_high_6;2;Different;high;132;96;82;j;v;0;f;n;2230.39209999979
!lg258m;10;True;1;P != T1?;STb_7;0;Same;None;154;154;154;j;v;1;f;n;1619.8921000000155
!lg258m;11;True;1;P != T1?;ST1_low_3;1;Same;low;70;112;70;j;v;0;j;v;3602.3763999996845
!lg258m;12;True;1;P != T1?;DT1_high_5;1;Different;high;96;132;82;j;v;1;j;b;2533.8010999998914
!lg258m;13;True;1;P != T2?;STb_3;0;Same;None;82;82;82;j;v;0;j;b;1754.4483000001492
!lg258m;14;True;1;P != T1?;ST1_high_1;1;Same;high;82;112;82;j;v;0;j;b;1553.920399999697
!lg258m;15;True;1;P != T2?;ST2_low_6;2;Same;low;154;96;96;j;v;0;j;b;1215.899900000295
!lg258m;16;True;1;P != T1?;STb_4;0;Same;None;96;96;96;j;v;0;j;b;935.9973999999056
p_code;trial_nr;practice;block;question;condition;seqPos;Same_or_Diff;ITS;T1_hz;T2_hz;P_hz;yes_key;sure_key;correct;yes_no;rating;resp_time
!lg258m;1;False;1;P != T1?;ST2_low_1;2;Same;low;82;132;132;j;v;0;f;b;1659.4073000001117
!lg258m;2;False;1;P != T1?;ST1_high_2;1;Same;high;112;82;112;j;v;0;j;b;1408.9407000001302
!lg258m;3;False;1;P != T1?;STb_6;0;Same;None;132;132;132;j;v;0;j;b;1334.3393999998625
!lg258m;4;False;1;P != T1?;ST2_low_2;2;Same;low;132;82;82;j;v;0;f;b;1337.3647000003075
!lg258m;5;False;1;P != T1?;ST2_high_4;2;Same;high;96;70;70;j;v;0;f;b;1883.2488999996713
!lg258m;6;False;1;P != T2?;ST1_high_2;1;Same;high;112;82;112;j;v;0;f;b;1672.6011000000653
!lg258m;7;False;1;P != T2?;ST2_high_1;2;Same;high;82;112;112;j;v;0;j;b;1571.3808999998946
!lg258m;8;False;1;P != T2?;ST2_high_1;2;Same;high;82;112;112;j;v;0;j;v;1928.0711999999767
!lg258m;9;False;1;P != T2?;ST2_low_6;2;Same;low;154;96;96;j;v;1;f;n;2088.7602000002516
!lg258m;10;False;1;P != T1?;ST1_high_2;1;Same;high;112;82;112;j;v;0;j;b;2572.9722000000947
!lg258m;11;False;1;P != T1?;ST2_low_6;2;Same;low;154;96;96;j;v;0;f;b;1479.3687999999747
!lg258m;12;False;1;P != T2?;ST1_high_2;1;Same;high;112;82;112;j;v;1;j;b;1629.6447999998236
!lg258m;13;False;1;P != T2?;ST1_high_1;1;Same;high;82;112;82;j;v;0;f;b;1253.3877000000757
!lg258m;14;False;1;P != T1?;ST2_high_1;2;Same;high;82;112;112;j;v;0;f;n;2152.569599999879
!lg258m;15;False;1;P != T1?;STb_7;0;Same;None;154;154;154;j;v;0;j;b;1339.8145000001023
!lg258m;16;False;1;P != T2?;STb_5;0;Same;None;112;112;112;j;v;0;j;b;1602.0948000000317
!lg258m;17;False;1;P != T2?;ST2_high_3;2;Same;high;70;96;96;j;v;0;j;b;4978.102999999919
!lg258m;18;False;1;P != T2?;ST1_low_4;1;Same;low;112;70;112;j;v;0;f;b;1413.6328999998113
!lg258m;19;False;1;P != T1?;ST2_high_6;2;Same;high;132;96;96;j;v;0;f;v;1222.952499999792
!lg258m;20;False;1;P != T2?;ST2_high_2;2;Same;high;112;82;82;j;v;0;j;v;1327.2710999999617
!lg258m;21;False;1;P != T2?;DT1_low_4;1;Different;low;112;70;132;j;v;0;f;b;1416.113000000223
!lg258m;22;False;1;P != T1?;DT2_high_3;2;Different;high;70;96;112;j;v;0;f;b;1199.9697000001106
!lg258m;23;False;1;P != T1?;ST2_low_3;2;Same;low;70;112;112;j;v;0;f;b;1251.5533000000687
!lg258m;24;False;1;P != T2?;ST2_high_5;2;Same;high;96;132;132;j;v;0;j;b;1451.1423999997533
!lg258m;25;False;1;P != T1?;ST1_low_4;1;Same;low;112;70;112;j;v;0;j;b;3130.399699999998
!lg258m;26;False;1;P != T2?;ST2_low_2;2;Same;low;132;82;82;j;v;0;j;b;2857.1615999999267
!lg258m;27;False;1;P != T1?;ST1_high_6;1;Same;high;132;96;132;j;v;1;f;n;1347.6294000001872
!lg258m;28;False;1;P != T1?;ST2_low_5;2;Same;low;96;154;154;j;v;0;f;v;1345.1663999999255
!lg258m;29;False;1;P != T2?;ST2_high_4;2;Same;high;96;70;70;j;v;0;j;v;1332.7558999999383
!lg258m;30;False;1;P != T1?;ST2_low_3;2;Same;low;70;112;112;j;v;0;f;b;1187.2165999998288
!lg258m;31;False;1;P != T2?;ST2_high_3;2;Same;high;70;96;96;j;v;0;j;b;3102.6661000000786
!lg258m;32;False;1;P != T1?;ST1_high_6;1;Same;high;132;96;132;j;v;1;f;n;2211.902000000009
!lg258m;33;False;1;P != T2?;ST1_low_3;1;Same;low;70;112;70;j;v;1;j;b;1446.3537999999971
!lg258m;34;False;1;P != T2?;ST1_low_3;1;Same;low;70;112;70;j;v;0;f;n;4522.045799999887
!lg258m;35;False;1;P != T1?;ST1_low_3;1;Same;low;70;112;70;j;v;0;j;b;1554.366299999856
!lg258m;36;False;1;P != T1?;ST1_high_3;1;Same;high;70;96;70;j;v;0;j;v;1211.500000000342
!lg258m;37;False;1;P != T1?;ST2_low_1;2;Same;low;82;132;132;j;v;0;f;b;2506.9224000003487
!lg258m;38;False;1;P != T1?;STb_4;0;Same;None;96;96;96;j;v;0;j;n;2717.5999000000957
!lg258m;39;False;1;P != T2?;ST2_low_5;2;Same;low;96;154;154;j;v;0;j;v;1357.376099999783
!lg258m;40;False;1;P != T1?;ST1_high_1;1;Same;high;82;112;82;j;v;0;j;v;1467.2098000000915
!lg258m;41;False;1;P != T2?;DT1_low_2;1;Different;low;132;82;154;j;v;0;f;b;1295.720000000074
!lg258m;42;False;1;P != T2?;DT2_high_3;2;Different;high;70;96;112;j;v;1;j;b;1044.4937000002028
!lg258m;43;False;1;P != T2?;ST2_low_4;2;Same;low;112;70;70;j;v;0;j;b;1148.311399999784
!lg258m;44;False;1;P != T1?;ST2_high_6;2;Same;high;132;96;96;j;v;1;j;b;1776.1313999999402
!lg258m;45;False;1;P != T2?;ST2_high_5;2;Same;high;96;132;132;j;v;0;j;v;1145.9006000000045
!lg258m;46;False;1;P != T2?;ST1_high_6;1;Same;high;132;96;132;j;v;0;f;n;1210.2047999997012
!lg258m;47;False;1;P != T1?;ST2_low_3;2;Same;low;70;112;112;j;v;0;f;n;1181.8975000001046
!lg258m;48;False;1;P != T2?;ST1_low_6;1;Same;low;154;96;154;j;v;0;f;b;1083.7397999998757
!lg258m;49;False;1;P != T1?;DT2_high_5;2;Different;high;96;132;154;j;v;1;j;v;1279.7269999996388
!lg258m;50;False;1;P != T2?;ST2_low_3;2;Same;low;70;112;112;j;v;0;j;b;1261.2933999998859
!lg258m;51;False;1;P != T2?;ST2_high_4;2;Same;high;96;70;70;j;v;0;j;v;1317.6433999997244
!lg258m;52;False;1;P != T2?;ST1_high_4;1;Same;high;96;70;96;j;v;1;j;b;1373.4176000002662
!lg258m;53;False;1;P != T2?;ST1_high_1;1;Same;high;82;112;82;j;v;0;f;b;1261.6941000001134
!lg258m;54;False;1;P != T2?;ST2_low_6;2;Same;low;154;96;96;j;v;0;j;n;1328.6920999998983
!lg258m;55;False;1;P != T1?;ST1_low_2;1;Same;low;132;82;132;j;v;0;j;b;1720.251499999904
!lg258m;56;False;1;P != T2?;ST1_high_3;1;Same;high;70;96;70;j;v;0;f;b;1546.1381000000074
!lg258m;57;False;1;P != T2?;STb_6;0;Same;None;132;132;132;j;v;0;j;b;3808.929000000262
!lg258m;58;False;1;P != T1?;ST2_low_2;2;Same;low;132;82;82;j;v;1;j;n;4204.128599999876
!lg258m;59;False;1;P != T1?;ST2_high_2;2;Same;high;112;82;82;j;v;0;f;n;4184.447900000123
!lg258m;60;False;1;P != T1?;ST1_low_4;1;Same;low;112;70;112;j;v;0;j;b;1249.0113000003475
!lg258m;61;False;1;P != T1?;ST2_low_6;2;Same;low;154;96;96;j;v;0;f;n;1330.018999999993
!lg258m;62;False;1;P != T1?;ST1_high_6;1;Same;high;132;96;132;j;v;1;f;b;1107.3300000002746
!lg258m;63;False;1;P != T1?;ST1_low_4;1;Same;low;112;70;112;j;v;0;j;b;1271.0111000001234
!lg258m;64;False;1;P != T2?;ST2_high_4;2;Same;high;96;70;70;j;v;0;j;b;1079.8604999999952
!lg258m;65;False;1;P != T1?;STb_5;0;Same;None;112;112;112;j;v;1;f;b;1309.532499999932
!lg258m;66;False;1;P != T2?;ST2_high_6;2;Same;high;132;96;96;j;v;1;f;n;1180.1156000001356
!lg258m;67;False;1;P != T1?;ST2_low_4;2;Same;low;112;70;70;j;v;0;f;b;1088.9013999999406
!lg258m;68;False;1;P != T2?;DT1_high_3;1;Different;high;70;96;60;j;v;0;f;b;1505.735100000038
!lg258m;69;False;1;P != T2?;ST1_high_3;1;Same;high;70;96;70;j;v;1;j;n;2502.6488999997127
!lg258m;70;False;1;P != T2?;STb_1;0;Same;None;60;60;60;j;v;1;f;n;2204.7544000001835
!lg258m;71;False;1;P != T1?;ST2_low_5;2;Same;low;96;154;154;j;v;0;f;b;984.3669000001682
!lg258m;72;False;1;P != T1?;ST2_high_1;2;Same;high;82;112;112;j;v;1;j;n;2455.171600000085
!lg258m;73;False;1;P != T1?;ST1_high_4;1;Same;high;96;70;96;j;v;0;j;b;4654.825199999777
!lg258m;74;False;1;P != T2?;ST1_low_6;1;Same;low;154;96;154;j;v;0;f;b;1467.7946000001612
!lg258m;75;False;1;P != T1?;DT1_low_1;1;Different;low;82;132;70;j;v;1;j;v;1507.5016999999207
!lg258m;76;False;1;P != T1?;ST2_low_5;2;Same;low;96;154;154;j;v;0;f;b;1701.441000000159
!lg258m;77;False;1;P != T1?;ST1_low_6;1;Same;low;154;96;154;j;v;0;j;b;1852.6498999999603
!lg258m;78;False;1;P != T2?;ST1_low_5;1;Same;low;96;154;96;j;v;0;f;v;1567.749300000287
!lg258m;79;False;1;P != T1?;ST1_high_3;1;Same;high;70;96;70;j;v;0;j;b;1318.7334999997802
!lg258m;80;False;1;P != T1?;DT1_low_6;1;Different;low;154;96;180;j;v;1;j;v;1267.8492000000006
!lg258m;81;False;1;P != T2?;ST2_high_3;2;Same;high;70;96;96;j;v;0;j;n;1726.1782999999014
!lg258m;82;False;1;P != T2?;ST2_high_2;2;Same;high;112;82;82;j;v;0;j;b;1207.582900000034
!lg258m;83;False;1;P != T1?;ST1_high_1;1;Same;high;82;112;82;j;v;0;j;b;1196.399299999939
!lg258m;84;False;1;P != T1?;ST2_low_6;2;Same;low;154;96;96;j;v;0;f;n;1504.588600000261
!lg258m;85;False;1;P != T2?;ST1_high_5;1;Same;high;96;132;96;j;v;0;f;b;1731.9065000001501
!lg258m;86;False;1;P != T2?;ST1_high_5;1;Same;high;96;132;96;j;v;0;f;n;1063.9611000001423
!lg258m;87;False;1;P != T2?;ST1_low_2;1;Same;low;132;82;132;j;v;0;f;b;1731.3036999998985
!lg258m;88;False;1;P != T1?;ST2_high_5;2;Same;high;96;132;132;j;v;1;j;b;1242.8288999999495
!lg258m;89;False;1;P != T2?;ST2_low_1;2;Same;low;82;132;132;j;v;1;f;n;1250.2991000001202
!lg258m;90;False;1;P != T1?;ST2_low_4;2;Same;low;112;70;70;j;v;0;f;b;1226.5023999998448
!lg258m;91;False;1;P != T2?;ST1_low_1;1;Same;low;82;132;82;j;v;1;j;n;1594.0550000000258
!lg258m;92;False;1;P != T2?;ST2_high_1;2;Same;high;82;112;112;j;v;0;j;b;1014.1810000000078
!lg258m;93;False;1;P != T2?;ST1_low_4;1;Same;low;112;70;112;j;v;0;f;n;1116.748699999789
!lg258m;94;False;1;P != T1?;ST2_high_3;2;Same;high;70;96;96;j;v;1;j;b;1333.0250999997588
!lg258m;95;False;1;P != T1?;ST2_low_2;2;Same;low;132;82;82;j;v;0;f;n;2398.396600000069
!lg258m;96;False;1;P != T1?;ST1_low_5;1;Same;low;96;154;96;j;v;1;f;b;1845.7955000003494
!lg258m;97;False;1;P != T1?;DT2_high_2;2;Different;high;112;82;70;j;v;0;f;b;1230.3660999996282
!lg258m;98;False;1;P != T2?;STb_8;0;Same;None;180;180;180;j;v;0;j;b;1013.0941999996139
!lg258m;99;False;1;P != T2?;ST1_low_1;1;Same;low;82;132;82;j;v;0;f;n;1049.7451000001092
!lg258m;100;False;1;P != T2?;ST2_low_4;2;Same;low;112;70;70;j;v;0;j;v;1217.5130000000536
!lg258m;101;False;1;P != T2?;ST1_high_1;1;Same;high;82;112;82;j;v;0;f;b;1313.552399999935
!lg258m;102;False;1;P != T1?;ST2_high_3;2;Same;high;70;96;96;j;v;1;j;b;1344.7721000002275
!lg258m;103;False;1;P != T1?;ST1_low_3;1;Same;low;70;112;70;j;v;0;j;v;1248.7993999998253
!lg258m;104;False;1;P != T1?;ST1_high_4;1;Same;high;96;70;96;j;v;0;j;b;1188.8036000000284
!lg258m;105;False;1;P != T1?;ST1_low_2;1;Same;low;132;82;132;j;v;0;j;n;2665.190900000198
!lg258m;106;False;1;P != T2?;ST1_low_2;1;Same;low;132;82;132;j;v;0;f;n;1485.221200000069
!lg258m;107;False;1;P != T2?;ST2_low_6;2;Same;low;154;96;96;j;v;0;j;b;1406.99050000012
!lg258m;108;False;1;P != T1?;ST1_high_5;1;Same;high;96;132;96;j;v;0;j;n;2711.7937999996684
!lg258m;109;False;1;P != T2?;ST1_high_4;1;Same;high;96;70;96;j;v;1;j;v;1212.5568999999814
!lg258m;110;False;1;P != T2?;ST2_low_5;2;Same;low;96;154;154;j;v;0;j;b;1067.382600000201
!lg258m;111;False;1;P != T1?;DT2_low_4;2;Different;low;112;70;60;j;v;0;f;b;1676.4431999999942
!lg258m;112;False;1;P != T2?;STb_4;0;Same;None;96;96;96;j;v;0;j;v;958.1922999996095
!lg258m;113;False;1;P != T1?;STb_2;0;Same;None;70;70;70;j;v;1;f;n;2336.8540999999823
!lg258m;114;False;1;P != T2?;ST2_low_5;2;Same;low;96;154;154;j;v;0;j;v;1670.0197000000117
!lg258m;115;False;1;P != T2?;ST2_low_1;2;Same;low;82;132;132;j;v;0;j;b;1235.4402999999365
!lg258m;116;False;1;P != T2?;ST2_low_3;2;Same;low;70;112;112;j;v;0;j;b;1159.8724999998922
!lg258m;117;False;1;P != T1?;ST1_low_5;1;Same;low;96;154;96;j;v;0;j;n;1265.781600000082
!lg258m;118;False;1;P != T1?;STb_1;0;Same;None;60;60;60;j;v;0;j;b;1482.282700000269
!lg258m;119;False;1;P != T1?;STb_3;0;Same;None;82;82;82;j;v;1;f;n;1245.1490999997077
!lg258m;120;False;1;P != T1?;ST1_low_1;1;Same;low;82;132;82;j;v;0;j;b;1721.9684000001507
!lg258m;121;False;1;P != T1?;ST2_high_3;2;Same;high;70;96;96;j;v;1;j;b;1443.3236999998371
!lg258m;122;False;1;P != T1?;ST2_low_4;2;Same;low;112;70;70;j;v;0;f;b;1459.3756999997822
!lg258m;123;False;1;P != T1?;ST2_high_5;2;Same;high;96;132;132;j;v;1;j;b;981.0225000001083
!lg258m;124;False;1;P != T2?;ST1_low_5;1;Same;low;96;154;96;j;v;0;f;n;1174.9384999998256
!lg258m;125;False;1;P != T1?;ST1_high_1;1;Same;high;82;112;82;j;v;0;j;b;1229.3730000001233
!lg258m;126;False;1;P != T1?;ST1_low_3;1;Same;low;70;112;70;j;v;0;j;b;1202.2252000001572
!lg258m;127;False;1;P != T2?;ST2_high_2;2;Same;high;112;82;82;j;v;0;j;b;1301.0646000002453
!lg258m;128;False;1;P != T1?;ST2_high_1;2;Same;high;82;112;112;j;v;0;f;n;1454.7038000000612
!lg258m;129;False;1;P != T1?;ST2_high_2;2;Same;high;112;82;82;j;v;1;j;b;1183.850600000369
!lg258m;130;False;1;P != T2?;ST1_high_4;1;Same;high;96;70;96;j;v;0;f;b;1495.8784999998898
!lg258m;131;False;1;P != T2?;DT2_low_2;2;Different;low;132;82;70;j;v;1;j;n;1370.1977000000625
!lg258m;132;False;1;P != T2?;ST2_low_2;2;Same;low;132;82;82;j;v;0;j;n;2987.06889999994
!lg258m;133;False;1;P != T2?;ST1_high_6;1;Same;high;132;96;132;j;v;0;f;b;1188.6828000001515
!lg258m;134;False;1;P != T2?;DT2_high_2;2;Different;high;112;82;70;j;v;1;j;b;1053.8789000001998
!lg258m;135;False;1;P != T2?;STb_7;0;Same;None;154;154;154;j;v;0;j;v;869.7022000001198
!lg258m;136;False;1;P != T1?;ST1_low_1;1;Same;low;82;132;82;j;v;0;j;v;1170.9194000000025
!lg258m;137;False;1;P != T1?;STb_8;0;Same;None;180;180;180;j;v;0;j;v;820.7447999998294
!lg258m;138;False;1;P != T2?;STb_2;0;Same;None;70;70;70;j;v;1;f;n;1163.9055000000553
!lg258m;139;False;1;P != T2?;ST2_high_5;2;Same;high;96;132;132;j;v;0;j;b;1107.0718000000852
!lg258m;140;False;1;P != T2?;ST1_high_3;1;Same;high;70;96;70;j;v;0;f;n;1316.7711000000963
!lg258m;141;False;1;P != T1?;ST2_high_6;2;Same;high;132;96;96;j;v;1;j;b;1183.0098999998881
!lg258m;142;False;1;P != T1?;ST2_high_2;2;Same;high;112;82;82;j;v;0;f;n;2190.4987999996592
!lg258m;143;False;1;P != T2?;ST1_high_6;1;Same;high;132;96;132;j;v;0;f;n;1141.6300999999294
!lg258m;144;False;1;P != T2?;ST1_low_5;1;Same;low;96;154;96;j;v;1;j;n;2073.502400000507
!lg258m;145;False;1;P != T1?;ST1_high_4;1;Same;high;96;70;96;j;v;1;f;n;1140.7116999998834
!lg258m;146;False;1;P != T2?;ST1_low_6;1;Same;low;154;96;154;j;v;0;f;b;1340.7867000005353
!lg258m;147;False;1;P != T1?;ST1_low_2;1;Same;low;132;82;132;j;v;0;j;b;1088.8419000002614
!lg258m;148;False;1;P != T2?;ST2_low_3;2;Same;low;70;112;112;j;v;0;j;b;920.7053999998607
!lg258m;149;False;1;P != T2?;ST2_low_1;2;Same;low;82;132;132;j;v;0;j;b;1053.871099999924
!lg258m;150;False;1;P != T1?;ST1_low_1;1;Same;low;82;132;82;j;v;0;j;v;1089.6975000005114
!lg258m;151;False;1;P != T2?;ST1_low_2;1;Same;low;132;82;132;j;v;0;f;b;1035.45000000031
!lg258m;152;False;1;P != T1?;ST1_high_5;1;Same;high;96;132;96;j;v;0;j;b;1028.1233999994583
!lg258m;153;False;1;P != T1?;ST2_high_5;2;Same;high;96;132;132;j;v;0;f;n;1805.68889999995
!lg258m;154;False;1;P != T1?;ST1_high_2;1;Same;high;112;82;112;j;v;0;j;b;1426.1674999997922
!lg258m;155;False;1;P != T1?;ST2_high_4;2;Same;high;96;70;70;j;v;0;f;b;1135.9763999998904
!lg258m;156;False;1;P != T1?;ST1_high_3;1;Same;high;70;96;70;j;v;0;j;b;1053.9967000004253
!lg258m;157;False;1;P != T2?;ST2_high_6;2;Same;high;132;96;96;j;v;0;j;b;809.9184000002424
!lg258m;158;False;1;P != T2?;ST1_high_2;1;Same;high;112;82;112;j;v;0;f;n;1367.8427000004376
!lg258m;159;False;1;P != T2?;ST2_high_6;2;Same;high;132;96;96;j;v;0;j;v;1305.9215999992375
!lg258m;160;False;1;P != T2?;ST1_low_4;1;Same;low;112;70;112;j;v;1;j;n;1805.3480999997191
!lg258m;161;False;1;P != T1?;DT1_low_2;1;Different;low;132;82;154;j;v;1;j;b;1185.6982999997854
!lg258m;162;False;1;P != T2?;ST1_low_3;1;Same;low;70;112;70;j;v;0;f;n;9788.13590000027
!lg258m;163;False;1;P != T2?;ST1_high_5;1;Same;high;96;132;96;j;v;1;j;b;952.6010999998107
!lg258m;164;False;1;P != T1?;ST1_low_5;1;Same;low;96;154;96;j;v;0;j;b;821.9299000002138
!lg258m;165;False;1;P != T2?;ST1_low_1;1;Same;low;82;132;82;j;v;1;j;b;1329.544199999873
!lg258m;166;False;1;P != T2?;DT2_high_6;2;Different;high;132;96;82;j;v;0;f;n;1181.4254000000801
!lg258m;167;False;1;P != T2?;DT1_high_1;1;Different;high;82;112;70;j;v;0;f;n;1668.4761999995317
!lg258m;168;False;1;P != T2?;ST2_low_2;2;Same;low;132;82;82;j;v;0;j;b;1257.5653000003513
!lg258m;169;False;1;P != T1?;ST1_high_5;1;Same;high;96;132;96;j;v;1;f;b;1041.9098000002123
!lg258m;170;False;1;P != T2?;STb_3;0;Same;None;82;82;82;j;v;0;j;n;1285.3522999994311
!lg258m;171;False;1;P != T1?;ST1_low_6;1;Same;low;154;96;154;j;v;0;j;v;1154.1156000002957
!lg258m;172;False;1;P != T1?;DT2_low_5;2;Different;low;96;154;180;j;v;0;f;v;1169.0035000001444
!lg258m;173;False;1;P != T2?;ST2_low_4;2;Same;low;112;70;70;j;v;0;j;v;1194.6474000005765
!lg258m;174;False;1;P != T1?;ST2_high_4;2;Same;high;96;70;70;j;v;0;f;b;1194.0240000003541
!lg258m;175;False;1;P != T1?;ST1_low_6;1;Same;low;154;96;154;j;v;0;j;b;1211.3251999999193
!lg258m;176;False;1;P != T1?;ST2_low_1;2;Same;low;82;132;132;j;v;0;f;n;1249.9698000001445
!lg258m;1;True;2;P = T2?;ST1_low_4;1;Same;low;112;70;112;j;v;0;j;n;10455.045800000335
!lg258m;2;True;2;P = T1?;ST2_high_1;2;Same;high;82;112;112;j;v;0;j;n;20504.305599999498
!lg258m;3;True;2;P = T2?;ST1_high_5;1;Same;high;96;132;96;j;v;0;j;n;1110.5023999998593
!lg258m;4;True;2;P = T1?;STb_5;0;Same;None;112;112;112;j;v;1;j;n;1292.8295000001526
!lg258m;5;True;2;P = T2?;DT2_high_6;2;Different;high;132;96;82;j;v;0;j;b;3943.205100000341
!lg258m;6;True;2;P = T2?;STb_1;0;Same;None;60;60;60;j;v;1;j;v;955.6390999996438
!lg258m;7;True;2;P = T2?;STb_8;0;Same;None;180;180;180;j;v;1;j;v;1648.355499999525
!lg258m;8;True;2;P = T1?;DT2_high_4;2;Different;high;96;70;60;j;v;1;f;v;1252.2284999995463
!lg258m;9;True;2;P = T1?;DT1_low_3;1;Different;low;70;112;60;j;v;0;j;n;2923.768800000289
!lg258m;10;True;2;P = T1?;ST2_low_4;2;Same;low;112;70;70;j;v;1;f;n;1561.93870000061
!lg258m;11;True;2;P = T2?;ST2_low_5;2;Same;low;96;154;154;j;v;1;j;v;1097.4457000002076
!lg258m;12;True;2;P = T1?;ST1_low_1;1;Same;low;82;132;82;j;v;1;j;v;1051.0347999997975
!lg258m;13;True;2;P = T2?;DT1_low_6;1;Different;low;154;96;180;j;v;1;f;b;1088.6977000000115
!lg258m;14;True;2;P = T1?;ST1_high_4;1;Same;high;96;70;96;j;v;0;f;n;19362.99239999971
!lg258m;15;True;2;P = T2?;ST2_low_4;2;Same;low;112;70;70;j;v;1;j;b;1157.5198999998975
!lg258m;16;True;2;P = T1?;STb_7;0;Same;None;154;154;154;j;v;1;j;b;1243.5650000006717
!lg258m;1;False;2;P = T2?;DT2_high_5;2;Different;high;96;132;154;j;v;0;j;b;1480.06020000048
!lg258m;2;False;2;P = T2?;ST1_high_3;1;Same;high;70;96;70;j;v;1;f;b;1252.8369000001476
!lg258m;3;False;2;P = T2?;ST1_low_1;1;Same;low;82;132;82;j;v;1;f;b;1084.203599999455
!lg258m;4;False;2;P = T2?;ST1_high_6;1;Same;high;132;96;132;j;v;0;j;n;1696.1396000006062
!lg258m;5;False;2;P = T2?;ST1_low_4;1;Same;low;112;70;112;j;v;1;f;n;1776.7518000000564
!lg258m;6;False;2;P = T2?;ST2_high_6;2;Same;high;132;96;96;j;v;1;j;n;1124.4909999995798
!lg258m;7;False;2;P = T2?;ST1_high_5;1;Same;high;96;132;96;j;v;0;j;n;1295.1598999998168
!lg258m;8;False;2;P = T1?;ST2_low_6;2;Same;low;154;96;96;j;v;0;j;b;1495.612799999435
!lg258m;9;False;2;P = T2?;ST2_high_2;2;Same;high;112;82;82;j;v;0;f;n;2321.1241999997583
!lg258m;10;False;2;P = T1?;ST1_low_2;1;Same;low;132;82;132;j;v;1;j;v;2635.79000000027
!lg258m;11;False;2;P = T1?;DT2_high_2;2;Different;high;112;82;70;j;v;1;f;b;1113.2186000004367
!lg258m;12;False;2;P = T1?;ST1_low_4;1;Same;low;112;70;112;j;v;1;j;b;1062.6873999999589
!lg258m;13;False;2;P = T2?;DT2_low_1;2;Different;low;82;132;154;j;v;0;j;b;982.4572999996235
!lg258m;14;False;2;P = T2?;ST1_high_2;1;Same;high;112;82;112;j;v;0;j;b;1079.7696999998152
!lg258m;15;False;2;P = T2?;ST2_low_4;2;Same;low;112;70;70;j;v;1;j;v;1097.634300000209
!lg258m;16;False;2;P = T1?;ST1_high_2;1;Same;high;112;82;112;j;v;1;j;b;1278.6948000002667
!lg258m;17;False;2;P = T1?;STb_1;0;Same;None;60;60;60;j;v;1;j;b;892.9858000001332
!lg258m;18;False;2;P = T1?;ST1_low_5;1;Same;low;96;154;96;j;v;1;j;n;1928.7678000000597
!lg258m;19;False;2;P = T1?;ST2_high_5;2;Same;high;96;132;132;j;v;1;f;n;2610.688200000368
!lg258m;20;False;2;P = T1?;ST2_low_1;2;Same;low;82;132;132;j;v;1;f;n;1200.0321999994412
!lg258m;21;False;2;P = T2?;ST2_low_5;2;Same;low;96;154;154;j;v;1;j;b;976.1823999997432
!lg258m;22;False;2;P = T1?;DT2_low_5;2;Different;low;96;154;180;j;v;1;f;b;1111.8398999997225
!lg258m;23;False;2;P = T1?;ST1_low_3;1;Same;low;70;112;70;j;v;1;j;b;1307.7574999997523
!lg258m;24;False;2;P = T1?;ST1_low_1;1;Same;low;82;132;82;j;v;1;j;b;1014.4806999996945
!lg258m;25;False;2;P = T1?;ST1_high_4;1;Same;high;96;70;96;j;v;1;j;b;1107.2629999998753
!lg258m;26;False;2;P = T2?;ST2_high_3;2;Same;high;70;96;96;j;v;1;j;b;1114.4125000000713
!lg258m;27;False;2;P = T2?;ST1_high_1;1;Same;high;82;112;82;j;v;1;f;n;1101.2845000004745
!lg258m;28;False;2;P = T1?;ST2_low_3;2;Same;low;70;112;112;j;v;1;f;n;1138.8966000004075
!lg258m;29;False;2;P = T1?;STb_4;0;Same;None;96;96;96;j;v;1;j;b;1005.503200000021
!lg258m;30;False;2;P = T1?;DT1_low_6;1;Different;low;154;96;180;j;v;0;j;b;1225.356699999793
!lg258m;31;False;2;P = T1?;STb_8;0;Same;None;180;180;180;j;v;1;j;v;905.3504999992583
!lg258m;32;False;2;P = T2?;STb_5;0;Same;None;112;112;112;j;v;1;j;v;996.9148999998652
!lg258m;33;False;2;P = T1?;ST2_low_4;2;Same;low;112;70;70;j;v;0;j;n;3969.8146000000634
!lg258m;34;False;2;P = T1?;ST1_low_3;1;Same;low;70;112;70;j;v;1;j;v;985.9016000000338
!lg258m;35;False;2;P = T2?;ST1_low_5;1;Same;low;96;154;96;j;v;0;j;n;2932.1833000003608
!lg258m;36;False;2;P = T2?;DT1_high_4;1;Different;high;96;70;112;j;v;0;j;b;1052.8083999997762
!lg258m;37;False;2;P = T2?;ST1_low_3;1;Same;low;70;112;70;j;v;1;f;b;1962.4153000004299
!lg258m;38;False;2;P = T2?;ST1_high_6;1;Same;high;132;96;132;j;v;1;f;n;1344.9209000000337
!lg258m;39;False;2;P = T1?;ST2_low_4;2;Same;low;112;70;70;j;v;1;f;b;1253.4244000007675
!lg258m;40;False;2;P = T2?;ST2_high_4;2;Same;high;96;70;70;j;v;1;j;v;1153.9285999997446
!lg258m;41;False;2;P = T1?;STb_2;0;Same;None;70;70;70;j;v;1;j;n;1373.1070000003456
!lg258m;42;False;2;P = T2?;ST2_low_4;2;Same;low;112;70;70;j;v;1;j;b;1072.1794999999474
!lg258m;43;False;2;P = T1?;STb_3;0;Same;None;82;82;82;j;v;1;j;n;2748.1188000001566
!lg258m;44;False;2;P = T1?;ST2_high_5;2;Same;high;96;132;132;j;v;0;j;b;1227.7604999999312
!lg258m;45;False;2;P = T1?;ST2_low_5;2;Same;low;96;154;154;j;v;1;f;n;1003.3936999998332
!lg258m;46;False;2;P = T2?;ST1_high_4;1;Same;high;96;70;96;j;v;1;f;b;1448.0222000001959
!lg258m;47;False;2;P = T1?;ST2_low_3;2;Same;low;70;112;112;j;v;0;j;n;1417.068200000358
!lg258m;48;False;2;P = T1?;DT1_high_6;1;Different;high;132;96;154;j;v;0;j;b;1230.9307000004992
!lg258m;49;False;2;P = T2?;ST1_high_1;1;Same;high;82;112;82;j;v;1;f;n;2650.7085000002917
!lg258m;50;False;2;P = T1?;ST2_low_5;2;Same;low;96;154;154;j;v;0;j;n;2963.742799999636
!lg258m;51;False;2;P = T2?;DT1_low_1;1;Different;low;82;132;70;j;v;1;f;v;1665.2492000002894
!lg258m;52;False;2;P = T2?;ST2_high_1;2;Same;high;82;112;112;j;v;1;j;b;1155.0674999998591
!lg258m;53;False;2;P = T2?;ST1_high_2;1;Same;high;112;82;112;j;v;0;j;n;5071.38920000034
!lg258m;54;False;2;P = T1?;ST1_high_6;1;Same;high;132;96;132;j;v;1;j;n;1861.8167000004178
!lg258m;55;False;2;P = T1?;ST2_high_1;2;Same;high;82;112;112;j;v;1;f;n;1675.43569999998
!lg258m;56;False;2;P = T1?;ST2_low_6;2;Same;low;154;96;96;j;v;0;j;n;1339.054699999906
!lg258m;57;False;2;P = T1?;ST2_high_6;2;Same;high;132;96;96;j;v;0;j;b;1349.7973000003185
!lg258m;58;False;2;P = T1?;ST1_high_6;1;Same;high;132;96;132;j;v;1;j;b;1441.5435000000798
!lg258m;59;False;2;P = T2?;ST2_high_1;2;Same;high;82;112;112;j;v;1;j;n;1146.356299999752
!lg258m;60;False;2;P = T2?;ST1_high_5;1;Same;high;96;132;96;j;v;1;f;n;1208.0284000003303
!lg258m;61;False;2;P = T1?;ST2_high_4;2;Same;high;96;70;70;j;v;1;f;b;1117.6211000001786
!lg258m;62;False;2;P = T2?;ST1_low_2;1;Same;low;132;82;132;j;v;1;f;b;1263.0989999997837
!lg258m;63;False;2;P = T1?;DT2_high_4;2;Different;high;96;70;60;j;v;1;f;n;1000.1606000005268
!lg258m;64;False;2;P = T2?;ST2_low_6;2;Same;low;154;96;96;j;v;1;j;b;1003.3153999993374
!lg258m;65;False;2;P = T1?;ST2_high_6;2;Same;high;132;96;96;j;v;0;j;b;1604.2333000004874
!lg258m;66;False;2;P = T1?;ST1_low_5;1;Same;low;96;154;96;j;v;1;j;n;4209.432599999673
!lg258m;67;False;2;P = T1?;ST1_low_1;1;Same;low;82;132;82;j;v;1;j;n;1645.412399999259
!lg258m;68;False;2;P = T2?;ST1_low_6;1;Same;low;154;96;154;j;v;0;j;n;975.3555999996024
!lg258m;69;False;2;P = T1?;ST2_high_1;2;Same;high;82;112;112;j;v;0;j;b;1092.098299999634
!lg258m;70;False;2;P = T2?;ST2_high_5;2;Same;high;96;132;132;j;v;1;j;n;1086.4691999995557
!lg258m;71;False;2;P = T1?;ST2_high_1;2;Same;high;82;112;112;j;v;0;j;b;919.7581999997055
!lg258m;72;False;2;P = T2?;ST1_low_6;1;Same;low;154;96;154;j;v;1;f;b;1246.4895000002798
!lg258m;73;False;2;P = T1?;STb_6;0;Same;None;132;132;132;j;v;1;j;b;799.0587999993295
!lg258m;74;False;2;P = T1?;ST1_low_4;1;Same;low;112;70;112;j;v;1;j;b;1031.6646000001128
!lg258m;75;False;2;P = T2?;ST2_high_1;2;Same;high;82;112;112;j;v;1;j;b;1091.4162999997643
!lg258m;76;False;2;P = T2?;ST2_low_4;2;Same;low;112;70;70;j;v;1;j;b;1163.5397000000012
!lg258m;77;False;2;P = T2?;DT1_high_2;1;Different;high;112;82;132;j;v;1;f;b;1279.7147999999652
!lg258m;78;False;2;P = T2?;DT1_low_6;1;Different;low;154;96;180;j;v;1;f;b;1118.0297000000792
!lg258m;79;False;2;P = T2?;ST2_high_2;2;Same;high;112;82;82;j;v;1;j;b;1136.5909999994983
!lg258m;80;False;2;P = T1?;ST2_low_4;2;Same;low;112;70;70;j;v;1;f;v;1177.500599999803
!lg258m;81;False;2;P = T1?;ST1_high_3;1;Same;high;70;96;70;j;v;1;j;b;1128.6407000006875
!lg258m;82;False;2;P = T2?;ST1_low_4;1;Same;low;112;70;112;j;v;0;j;n;3320.8503000005294
!lg258m;83;False;2;P = T2?;ST2_low_1;2;Same;low;82;132;132;j;v;1;j;b;1093.6484000003475
!lg258m;84;False;2;P = T2?;ST2_high_5;2;Same;high;96;132;132;j;v;1;j;b;853.9336000003459
!lg258m;85;False;2;P = T2?;ST2_high_4;2;Same;high;96;70;70;j;v;1;j;n;1037.3465000002398
!lg258m;86;False;2;P = T2?;ST1_high_5;1;Same;high;96;132;96;j;v;0;j;n;2422.906000000694
!lg258m;87;False;2;P = T1?;ST1_low_6;1;Same;low;154;96;154;j;v;1;j;b;1314.2474999995102
!lg258m;88;False;2;P = T1?;ST2_high_2;2;Same;high;112;82;82;j;v;1;f;b;1182.654499999444
!lg258m;89;False;2;P = T2?;ST2_high_6;2;Same;high;132;96;96;j;v;1;j;b;1243.081799999345
!lg258m;90;False;2;P = T1?;ST1_high_2;1;Same;high;112;82;112;j;v;1;j;b;1026.7701999991914
!lg258m;91;False;2;P = T2?;STb_7;0;Same;None;154;154;154;j;v;1;j;n;1433.7958999994953
!lg258m;92;False;2;P = T1?;STb_7;0;Same;None;154;154;154;j;v;1;j;b;1320.1063999995313
!lg258m;93;False;2;P = T1?;ST1_low_1;1;Same;low;82;132;82;j;v;1;j;v;1135.0490000004356
!lg258m;94;False;2;P = T2?;STb_8;0;Same;None;180;180;180;j;v;0;f;n;1478.4982999999556
!lg258m;95;False;2;P = T1?;ST1_low_2;1;Same;low;132;82;132;j;v;1;j;v;962.3234999999113
!lg258m;96;False;2;P = T1?;ST2_high_4;2;Same;high;96;70;70;j;v;1;f;n;1753.7327000000005
!lg258m;97;False;2;P = T1?;ST1_high_2;1;Same;high;112;82;112;j;v;1;j;b;994.29980000059
!lg258m;98;False;2;P = T1?;ST2_low_5;2;Same;low;96;154;154;j;v;1;f;n;1202.6486999993722
!lg258m;99;False;2;P = T2?;STb_3;0;Same;None;82;82;82;j;v;0;f;n;1162.6851000000897
!lg258m;100;False;2;P = T2?;ST1_low_6;1;Same;low;154;96;154;j;v;1;f;b;1140.2570000000196
!lg258m;101;False;2;P = T2?;ST2_low_5;2;Same;low;96;154;154;j;v;1;j;b;1229.117299999416
!lg258m;102;False;2;P = T1?;ST2_high_2;2;Same;high;112;82;82;j;v;1;f;n;1232.304699999986
!lg258m;103;False;2;P = T1?;ST1_low_3;1;Same;low;70;112;70;j;v;1;j;v;1052.7993000005154
!lg258m;104;False;2;P = T2?;DT2_high_1;2;Different;high;82;112;132;j;v;0;j;b;1033.6569999999483
!lg258m;105;False;2;P = T1?;STb_5;0;Same;None;112;112;112;j;v;1;j;b;1241.4269000000786
!lg258m;106;False;2;P = T1?;ST1_high_1;1;Same;high;82;112;82;j;v;1;j;b;946.6713000001619
!lg258m;107;False;2;P = T2?;STb_6;0;Same;None;132;132;132;j;v;1;j;b;1346.4914000005592
!lg258m;108;False;2;P = T2?;ST2_low_1;2;Same;low;82;132;132;j;v;0;f;n;1356.9937000002028
!lg258m;109;False;2;P = T2?;ST2_high_6;2;Same;high;132;96;96;j;v;1;j;b;874.7780000003331
!lg258m;110;False;2;P = T1?;ST2_high_4;2;Same;high;96;70;70;j;v;1;f;n;1120.7425000002331
!lg258m;111;False;2;P = T2?;ST1_low_4;1;Same;low;112;70;112;j;v;1;f;n;1235.786299999745
!lg258m;112;False;2;P = T2?;STb_1;0;Same;None;60;60;60;j;v;1;j;n;1147.877000000335
!lg258m;113;False;2;P = T1?;ST2_high_6;2;Same;high;132;96;96;j;v;0;j;b;828.0379999996512
!lg258m;114;False;2;P = T2?;STb_2;0;Same;None;70;70;70;j;v;1;j;b;830.6347999996433
!lg258m;115;False;2;P = T1?;ST1_high_5;1;Same;high;96;132;96;j;v;0;f;n;1190.5885999995007
!lg258m;116;False;2;P = T1?;ST2_high_3;2;Same;high;70;96;96;j;v;1;f;n;1539.0086000006704
!lg258m;117;False;2;P = T2?;ST1_high_4;1;Same;high;96;70;96;j;v;0;j;b;1130.5196999992404
!lg258m;118;False;2;P = T2?;ST2_high_2;2;Same;high;112;82;82;j;v;1;j;b;1178.2275999994454
!lg258m;119;False;2;P = T2?;ST1_low_3;1;Same;low;70;112;70;j;v;1;f;b;1327.6655999998184
!lg258m;120;False;2;P = T1?;ST1_low_6;1;Same;low;154;96;154;j;v;1;j;b;1282.8551000002335
!lg258m;121;False;2;P = T2?;ST2_low_2;2;Same;low;132;82;82;j;v;1;j;n;1259.2929000002187
!lg258m;122;False;2;P = T1?;DT2_high_6;2;Different;high;132;96;82;j;v;1;f;b;1045.5093000000488
!lg258m;123;False;2;P = T2?;ST1_high_2;1;Same;high;112;82;112;j;v;0;j;n;3008.8689000003797
!lg258m;124;False;2;P = T2?;ST1_high_1;1;Same;high;82;112;82;j;v;0;j;n;1088.0950999999186
!lg258m;125;False;2;P = T2?;ST2_low_5;2;Same;low;96;154;154;j;v;1;j;b;1419.2119999997885
!lg258m;126;False;2;P = T2?;ST2_high_4;2;Same;high;96;70;70;j;v;1;j;b;784.6621000007872
!lg258m;127;False;2;P = T1?;ST1_high_3;1;Same;high;70;96;70;j;v;1;j;n;1210.957899999812
!lg258m;128;False;2;P = T1?;ST1_low_4;1;Same;low;112;70;112;j;v;1;j;b;2020.6255000002784
!lg258m;129;False;2;P = T2?;ST1_high_4;1;Same;high;96;70;96;j;v;0;j;b;1441.6083000005528
!lg258m;130;False;2;P = T2?;ST1_low_5;1;Same;low;96;154;96;j;v;1;f;n;1106.2942999997176
!lg258m;131;False;2;P = T1?;ST2_low_2;2;Same;low;132;82;82;j;v;1;f;b;1162.9955999997037
!lg258m;132;False;2;P = T1?;ST2_high_2;2;Same;high;112;82;82;j;v;0;j;n;1251.5116000004127
!lg258m;133;False;2;P = T2?;ST2_low_3;2;Same;low;70;112;112;j;v;1;j;b;1030.3008000000773
!lg258m;134;False;2;P = T2?;ST1_low_2;1;Same;low;132;82;132;j;v;1;f;n;1064.12679999994
!lg258m;135;False;2;P = T2?;STb_4;0;Same;None;96;96;96;j;v;1;j;b;1030.0378000001729
!lg258m;136;False;2;P = T2?;ST1_high_6;1;Same;high;132;96;132;j;v;1;f;b;989.1366000001653
!lg258m;137;False;2;P = T2?;ST2_low_6;2;Same;low;154;96;96;j;v;1;j;b;1048.783000000185
!lg258m;138;False;2;P = T2?;ST2_high_3;2;Same;high;70;96;96;j;v;1;j;b;1022.2255999997287
!lg258m;139;False;2;P = T2?;ST2_high_3;2;Same;high;70;96;96;j;v;1;j;b;840.9501000005548
!lg258m;140;False;2;P = T2?;ST2_low_2;2;Same;low;132;82;82;j;v;1;j;b;773.4676999998555
!lg258m;141;False;2;P = T2?;ST1_low_5;1;Same;low;96;154;96;j;v;1;f;b;1138.326400000551
!lg258m;142;False;2;P = T1?;ST1_low_6;1;Same;low;154;96;154;j;v;1;j;v;1564.9194999996325
!lg258m;143;False;2;P = T1?;ST1_high_1;1;Same;high;82;112;82;j;v;1;j;v;2540.887300000577
!lg258m;144;False;2;P = T2?;ST2_low_2;2;Same;low;132;82;82;j;v;0;f;n;1137.311000000409
!lg258m;145;False;2;P = T1?;ST2_high_3;2;Same;high;70;96;96;j;v;1;f;b;1075.4931000001307
!lg258m;146;False;2;P = T1?;ST1_low_5;1;Same;low;96;154;96;j;v;1;j;b;1287.5620000004346
!lg258m;147;False;2;P = T2?;ST1_low_1;1;Same;low;82;132;82;j;v;1;f;b;1073.1772999997702
!lg258m;148;False;2;P = T2?;ST1_high_3;1;Same;high;70;96;70;j;v;1;f;b;1040.4773999998724
!lg258m;149;False;2;P = T1?;ST1_high_5;1;Same;high;96;132;96;j;v;1;j;b;1142.4142000005304
!lg258m;150;False;2;P = T2?;ST2_low_6;2;Same;low;154;96;96;j;v;1;j;b;1136.5772999997716
!lg258m;151;False;2;P = T1?;ST2_low_1;2;Same;low;82;132;132;j;v;1;f;b;974.4737000000896
!lg258m;152;False;2;P = T1?;ST1_high_4;1;Same;high;96;70;96;j;v;1;j;b;833.3099000001312
!lg258m;153;False;2;P = T1?;ST1_high_6;1;Same;high;132;96;132;j;v;1;j;b;912.0420999997805
!lg258m;154;False;2;P = T1?;ST2_low_3;2;Same;low;70;112;112;j;v;1;f;b;890.9152000005633
!lg258m;155;False;2;P = T1?;ST1_low_2;1;Same;low;132;82;132;j;v;1;j;v;861.0060000000885
!lg258m;156;False;2;P = T2?;ST2_low_3;2;Same;low;70;112;112;j;v;1;j;v;1168.209299999944
!lg258m;157;False;2;P = T2?;ST1_low_3;1;Same;low;70;112;70;j;v;1;f;b;1273.7385000000359
!lg258m;158;False;2;P = T2?;ST2_low_1;2;Same;low;82;132;132;j;v;1;j;b;1202.951799999937
!lg258m;159;False;2;P = T1?;ST2_high_5;2;Same;high;96;132;132;j;v;1;f;n;1231.0367999998562
!lg258m;160;False;2;P = T1?;ST2_low_2;2;Same;low;132;82;82;j;v;1;f;v;1134.7556000000623
!lg258m;161;False;2;P = T1?;ST2_low_6;2;Same;low;154;96;96;j;v;1;f;n;973.4043999997084
!lg258m;162;False;2;P = T1?;ST2_low_1;2;Same;low;82;132;132;j;v;1;f;n;1163.4579000001395
!lg258m;163;False;2;P = T2?;ST1_low_1;1;Same;low;82;132;82;j;v;1;f;v;1532.2270999995453
!lg258m;164;False;2;P = T2?;ST1_high_3;1;Same;high;70;96;70;j;v;1;f;n;1172.6472000000285
!lg258m;165;False;2;P = T2?;ST2_high_5;2;Same;high;96;132;132;j;v;1;j;b;1142.2163999995973
!lg258m;166;False;2;P = T2?;ST1_low_2;1;Same;low;132;82;132;j;v;1;f;n;1010.9656999993604
!lg258m;167;False;2;P = T1?;ST2_high_3;2;Same;high;70;96;96;j;v;0;j;n;1619.9418999995032
!lg258m;168;False;2;P = T2?;ST2_low_3;2;Same;low;70;112;112;j;v;1;j;b;1036.9853000001967
!lg258m;169;False;2;P = T2?;DT1_high_1;1;Different;high;82;112;70;j;v;1;f;b;1324.760000000424
!lg258m;170;False;2;P = T1?;DT1_low_5;1;Different;low;96;154;82;j;v;0;j;b;1076.7268999998123
!lg258m;171;False;2;P = T1?;ST2_low_2;2;Same;low;132;82;82;j;v;1;f;n;1208.3301000002393
!lg258m;172;False;2;P = T1?;ST1_high_4;1;Same;high;96;70;96;j;v;1;j;n;1218.78900000047
!lg258m;173;False;2;P = T1?;ST1_high_5;1;Same;high;96;132;96;j;v;1;j;n;1226.2275000002774
!lg258m;174;False;2;P = T1?;ST1_high_3;1;Same;high;70;96;70;j;v;1;j;n;1163.4420999998838
!lg258m;175;False;2;P = T1?;ST1_high_1;1;Same;high;82;112;82;j;v;1;j;b;1447.8674000001774
!lg258m;176;False;2;P = T1?;DT1_high_1;1;Different;high;82;112;70;j;v;0;j;b;1006.3177000001815
