p_code;trial_nr;practice;block;question;condition;seqPos;Same_or_Diff;ITS;T1_hz;T2_hz;P_hz;yes_key;sure_key;correct;yes_no;rating;resp_time
oy421#h;1;True;1;P != T1?;STb_7;0;Same;None;154;154;154;j;n;1;f;b;2372.1040999998877
oy421#h;2;True;1;P != T2?;ST1_low_3;1;Same;low;70;112;70;j;n;1;j;b;2448.245199999292
oy421#h;3;True;1;P != T2?;ST1_high_6;1;Same;high;132;96;132;j;n;0;f;b;2700.815799999873
oy421#h;4;True;1;P != T1?;STb_3;0;Same;None;82;82;82;j;n;1;f;v;1501.65829999969
oy421#h;5;True;1;P != T2?;ST2_low_6;2;Same;low;154;96;96;j;n;1;f;b;1159.1668999999456
oy421#h;6;True;1;P != T1?;ST1_low_5;1;Same;low;96;154;96;j;n;0;j;v;4503.390099999706
oy421#h;7;True;1;P != T2?;DT1_high_1;1;Different;high;82;112;70;j;n;1;j;b;4887.885099999949
oy421#h;8;True;1;P != T1?;ST1_high_5;1;Same;high;96;132;96;j;n;1;f;b;5305.33159999959
oy421#h;9;True;1;P != T2?;ST2_high_3;2;Same;high;70;96;96;j;n;1;f;v;1016.5563999998994
oy421#h;10;True;1;P != T1?;DT1_high_3;1;Different;high;70;96;60;j;n;1;j;b;1124.744599999758
oy421#h;11;True;1;P != T2?;DT1_high_6;1;Different;high;132;96;154;j;n;0;f;b;7242.245600000388
oy421#h;12;True;1;P != T1?;DT1_low_6;1;Different;low;154;96;180;j;n;1;j;b;3159.063399999468
oy421#h;13;True;1;P != T1?;ST2_high_4;2;Same;high;96;70;70;j;n;1;j;n;2806.71540000003
oy421#h;14;True;1;P != T1?;ST2_low_2;2;Same;low;132;82;82;j;n;0;f;b;2353.6340000000564
oy421#h;15;True;1;P != T2?;STb_7;0;Same;None;154;154;154;j;n;1;f;v;13088.227899999765
oy421#h;16;True;1;P != T2?;STb_3;0;Same;None;82;82;82;j;n;1;f;v;1788.661100000354
p_code;trial_nr;practice;block;question;condition;seqPos;Same_or_Diff;ITS;T1_hz;T2_hz;P_hz;yes_key;sure_key;correct;yes_no;rating;resp_time
oy421#h;1;False;1;P != T2?;ST1_low_1;1;Same;low;82;132;82;j;n;1;j;b;2552.3381999992125
oy421#h;2;False;1;P != T1?;DT1_low_5;1;Different;low;96;154;82;j;n;0;f;v;1570.2033999996274
oy421#h;3;False;1;P != T1?;ST1_low_4;1;Same;low;112;70;112;j;n;1;f;v;1328.966500000206
oy421#h;4;False;1;P != T2?;ST1_high_1;1;Same;high;82;112;82;j;n;0;f;v;4746.3192999994135
oy421#h;5;False;1;P != T1?;ST1_low_5;1;Same;low;96;154;96;j;n;1;f;n;3580.3525000001173
oy421#h;6;False;1;P != T1?;ST1_high_4;1;Same;high;96;70;96;j;n;1;f;b;884.8530999994182
oy421#h;7;False;1;P != T1?;ST2_low_5;2;Same;low;96;154;154;j;n;0;f;b;4119.173600000067
oy421#h;8;False;1;P != T2?;ST1_low_3;1;Same;low;70;112;70;j;n;1;j;b;1738.21019999923
oy421#h;9;False;1;P != T2?;ST2_high_2;2;Same;high;112;82;82;j;n;1;f;b;1794.3973999999798
oy421#h;10;False;1;P != T2?;ST1_high_1;1;Same;high;82;112;82;j;n;0;f;b;26686.442299999726
oy421#h;11;False;1;P != T2?;ST1_high_4;1;Same;high;96;70;96;j;n;0;f;v;1131.2551999999414
oy421#h;12;False;1;P != T1?;ST2_low_2;2;Same;low;132;82;82;j;n;0;f;b;1719.5616999997583
oy421#h;13;False;1;P != T1?;DT1_low_3;1;Different;low;70;112;60;j;n;1;j;n;1860.671000000366
oy421#h;14;False;1;P != T2?;ST1_high_2;1;Same;high;112;82;112;j;n;0;f;b;1439.820100000361
oy421#h;15;False;1;P != T1?;ST2_low_4;2;Same;low;112;70;70;j;n;0;f;v;3275.2291000006153
oy421#h;16;False;1;P != T1?;ST2_low_5;2;Same;low;96;154;154;j;n;1;j;b;1533.6833000001207
oy421#h;17;False;1;P != T1?;ST1_high_1;1;Same;high;82;112;82;j;n;1;f;b;6160.377600000174
oy421#h;18;False;1;P != T2?;ST2_low_2;2;Same;low;132;82;82;j;n;1;f;v;1620.4113000003417
oy421#h;19;False;1;P != T1?;ST1_high_1;1;Same;high;82;112;82;j;n;0;j;b;2593.477000000348
oy421#h;20;False;1;P != T2?;ST2_low_6;2;Same;low;154;96;96;j;n;1;f;v;6949.6509000000515
oy421#h;21;False;1;P != T1?;ST1_low_1;1;Same;low;82;132;82;j;n;1;f;b;2669.823800000813
oy421#h;22;False;1;P != T1?;STb_6;0;Same;None;132;132;132;j;n;1;f;b;916.2102000000232
oy421#h;23;False;1;P != T1?;ST1_high_3;1;Same;high;70;96;70;j;n;1;f;n;1566.5605999993204
oy421#h;24;False;1;P != T2?;ST2_low_2;2;Same;low;132;82;82;j;n;1;f;v;2245.24829999973
oy421#h;25;False;1;P != T2?;ST2_low_1;2;Same;low;82;132;132;j;n;1;f;n;1431.3006000002133
oy421#h;26;False;1;P != T1?;ST2_low_3;2;Same;low;70;112;112;j;n;0;f;b;920.7369999994626
oy421#h;27;False;1;P != T1?;ST2_high_5;2;Same;high;96;132;132;j;n;0;f;b;1998.477300000559
oy421#h;28;False;1;P != T2?;ST2_high_4;2;Same;high;96;70;70;j;n;1;f;b;3207.1427999999287
oy421#h;29;False;1;P != T1?;ST1_low_6;1;Same;low;154;96;154;j;n;0;j;v;4629.641500000616
oy421#h;30;False;1;P != T2?;ST1_high_5;1;Same;high;96;132;96;j;n;1;j;b;5297.736000000441
oy421#h;31;False;1;P != T1?;ST1_high_4;1;Same;high;96;70;96;j;n;1;f;v;1074.26039999973
oy421#h;32;False;1;P != T2?;DT1_high_6;1;Different;high;132;96;154;j;n;0;f;v;2537.174600000071
oy421#h;33;False;1;P != T1?;ST2_high_2;2;Same;high;112;82;82;j;n;0;f;v;1084.6109000003707
oy421#h;34;False;1;P != T1?;ST2_high_6;2;Same;high;132;96;96;j;n;1;j;b;4382.335399999647
oy421#h;35;False;1;P != T1?;ST1_high_5;1;Same;high;96;132;96;j;n;1;f;b;1492.030800000066
oy421#h;36;False;1;P != T1?;DT1_low_6;1;Different;low;154;96;180;j;n;0;f;v;6690.475999999762
oy421#h;37;False;1;P != T1?;ST2_low_4;2;Same;low;112;70;70;j;n;0;f;n;1481.0765000001993
oy421#h;38;False;1;P != T2?;ST2_low_6;2;Same;low;154;96;96;j;n;1;f;v;1804.0246999999
oy421#h;39;False;1;P != T1?;STb_3;0;Same;None;82;82;82;j;n;1;f;v;936.3142000001972
oy421#h;40;False;1;P != T1?;STb_8;0;Same;None;180;180;180;j;n;1;f;v;2884.2051000001447
oy421#h;41;False;1;P != T2?;DT2_high_6;2;Different;high;132;96;82;j;n;0;f;b;1518.5806999998022
oy421#h;42;False;1;P != T2?;ST2_high_6;2;Same;high;132;96;96;j;n;1;f;b;1918.462399999953
oy421#h;43;False;1;P != T2?;ST1_high_3;1;Same;high;70;96;70;j;n;1;j;v;6343.798899999456
oy421#h;44;False;1;P != T1?;ST2_low_1;2;Same;low;82;132;132;j;n;0;f;v;2808.503600000222
oy421#h;45;False;1;P != T2?;DT1_high_3;1;Different;high;70;96;60;j;n;1;j;b;3187.832499999786
oy421#h;46;False;1;P != T2?;ST2_high_2;2;Same;high;112;82;82;j;n;1;f;b;4172.951799999282
oy421#h;47;False;1;P != T1?;ST2_high_2;2;Same;high;112;82;82;j;n;0;f;v;7793.001999999433
oy421#h;48;False;1;P != T2?;ST1_low_2;1;Same;low;132;82;132;j;n;0;f;b;5928.819899999326
oy421#h;49;False;1;P != T2?;DT1_high_5;1;Different;high;96;132;82;j;n;1;j;b;2465.60110000064
oy421#h;50;False;1;P != T1?;ST2_high_4;2;Same;high;96;70;70;j;n;0;f;v;4001.22569999985
oy421#h;51;False;1;P != T2?;ST1_high_4;1;Same;high;96;70;96;j;n;0;f;v;858.706500000153
oy421#h;52;False;1;P != T2?;ST2_high_5;2;Same;high;96;132;132;j;n;1;f;b;861.1939000002167
oy421#h;53;False;1;P != T2?;ST2_high_3;2;Same;high;70;96;96;j;n;1;f;n;873.6682999997356
oy421#h;54;False;1;P != T1?;ST2_high_3;2;Same;high;70;96;96;j;n;0;f;b;1287.9444000000149
oy421#h;55;False;1;P != T1?;ST1_high_4;1;Same;high;96;70;96;j;n;1;f;v;853.2162999999855
oy421#h;56;False;1;P != T2?;ST1_high_3;1;Same;high;70;96;70;j;n;0;f;v;924.7197000004235
oy421#h;57;False;1;P != T2?;ST1_low_4;1;Same;low;112;70;112;j;n;1;j;n;3944.7300000001633
oy421#h;58;False;1;P != T1?;ST1_low_5;1;Same;low;96;154;96;j;n;1;f;v;2083.875799999987
oy421#h;59;False;1;P != T2?;ST1_high_3;1;Same;high;70;96;70;j;n;1;j;b;2350.7589000000735
oy421#h;60;False;1;P != T2?;ST2_low_4;2;Same;low;112;70;70;j;n;0;j;b;3226.533600000039
oy421#h;61;False;1;P != T1?;ST1_low_3;1;Same;low;70;112;70;j;n;1;f;b;1863.8216999997894
oy421#h;62;False;1;P != T2?;ST1_high_2;1;Same;high;112;82;112;j;n;0;f;v;1788.7192999996842
oy421#h;63;False;1;P != T1?;DT1_high_3;1;Different;high;70;96;60;j;n;1;j;n;1604.252699999961
oy421#h;64;False;1;P != T2?;ST2_low_4;2;Same;low;112;70;70;j;n;1;f;v;2762.0509000007587
oy421#h;65;False;1;P != T1?;ST2_high_6;2;Same;high;132;96;96;j;n;1;j;n;1465.2277000004688
oy421#h;66;False;1;P != T1?;ST2_high_2;2;Same;high;112;82;82;j;n;1;j;b;1837.6259999995455
oy421#h;67;False;1;P != T1?;ST2_low_5;2;Same;low;96;154;154;j;n;1;j;n;1282.1676000003208
oy421#h;68;False;1;P != T1?;STb_1;0;Same;None;60;60;60;j;n;0;j;b;1552.3732999999993
oy421#h;69;False;1;P != T1?;ST1_low_2;1;Same;low;132;82;132;j;n;1;f;b;1696.9483999992008
oy421#h;70;False;1;P != T2?;ST2_high_3;2;Same;high;70;96;96;j;n;1;f;v;2875.20239999958
oy421#h;71;False;1;P != T1?;ST1_high_1;1;Same;high;82;112;82;j;n;1;f;b;1063.8860999997632
oy421#h;72;False;1;P != T2?;ST2_low_3;2;Same;low;70;112;112;j;n;1;f;v;899.456299999656
oy421#h;73;False;1;P != T1?;ST1_high_2;1;Same;high;112;82;112;j;n;1;f;n;1482.213700000102
oy421#h;74;False;1;P != T2?;ST1_high_6;1;Same;high;132;96;132;j;n;1;j;n;2201.324300000124
oy421#h;75;False;1;P != T1?;ST1_high_6;1;Same;high;132;96;132;j;n;1;f;b;1158.0628000001525
oy421#h;76;False;1;P != T1?;ST2_low_1;2;Same;low;82;132;132;j;n;0;f;b;1031.2353999997868
oy421#h;77;False;1;P != T1?;ST2_high_4;2;Same;high;96;70;70;j;n;0;f;v;9133.362999999918
oy421#h;78;False;1;P != T2?;ST1_low_1;1;Same;low;82;132;82;j;n;1;j;v;5201.320199999827
oy421#h;79;False;1;P != T2?;ST1_low_3;1;Same;low;70;112;70;j;n;0;f;b;870.7171999994898
oy421#h;80;False;1;P != T1?;ST1_low_4;1;Same;low;112;70;112;j;n;1;f;v;3816.8522000005396
oy421#h;81;False;1;P != T2?;ST1_high_1;1;Same;high;82;112;82;j;n;0;f;v;6696.726699999999
oy421#h;82;False;1;P != T2?;ST1_low_4;1;Same;low;112;70;112;j;n;0;f;b;2090.1997000000847
oy421#h;83;False;1;P != T1?;ST1_high_2;1;Same;high;112;82;112;j;n;1;f;b;2439.053299999614
oy421#h;84;False;1;P != T1?;DT2_high_2;2;Different;high;112;82;70;j;n;0;f;b;774.1557999997895
oy421#h;85;False;1;P != T1?;ST2_high_1;2;Same;high;82;112;112;j;n;1;j;v;12696.787900000345
oy421#h;86;False;1;P != T2?;DT1_low_3;1;Different;low;70;112;60;j;n;1;j;n;1728.3661000001302
oy421#h;87;False;1;P != T1?;ST1_high_3;1;Same;high;70;96;70;j;n;0;j;b;2438.638599999649
oy421#h;88;False;1;P != T1?;ST1_high_5;1;Same;high;96;132;96;j;n;1;f;n;2845.946399999775
oy421#h;89;False;1;P != T2?;STb_3;0;Same;None;82;82;82;j;n;1;f;n;857.5799000000188
oy421#h;90;False;1;P != T2?;ST1_low_5;1;Same;low;96;154;96;j;n;1;j;n;1466.344599999502
oy421#h;91;False;1;P != T2?;ST2_low_1;2;Same;low;82;132;132;j;n;0;j;b;3180.050800000572
oy421#h;92;False;1;P != T2?;ST2_high_1;2;Same;high;82;112;112;j;n;1;f;b;951.5988000002835
oy421#h;93;False;1;P != T1?;ST2_high_1;2;Same;high;82;112;112;j;n;0;f;v;12064.597100000356
oy421#h;94;False;1;P != T1?;ST2_low_3;2;Same;low;70;112;112;j;n;0;f;v;2011.1685000001671
oy421#h;95;False;1;P != T2?;ST1_low_3;1;Same;low;70;112;70;j;n;0;f;v;16679.05359999986
oy421#h;96;False;1;P != T2?;ST1_low_1;1;Same;low;82;132;82;j;n;0;f;b;2816.5766000001895
oy421#h;97;False;1;P != T1?;ST2_low_6;2;Same;low;154;96;96;j;n;1;j;n;2094.9295000000347
oy421#h;98;False;1;P != T2?;ST2_high_5;2;Same;high;96;132;132;j;n;1;f;n;919.818899999882
oy421#h;99;False;1;P != T2?;ST1_low_5;1;Same;low;96;154;96;j;n;1;j;n;2688.987499999712
oy421#h;100;False;1;P != T2?;ST2_high_4;2;Same;high;96;70;70;j;n;1;f;v;10086.311799999748
oy421#h;101;False;1;P != T1?;ST1_low_6;1;Same;low;154;96;154;j;n;1;f;n;1389.1005000004952
oy421#h;102;False;1;P != T1?;ST2_high_5;2;Same;high;96;132;132;j;n;0;f;v;2511.845600000015
oy421#h;103;False;1;P != T1?;ST2_low_2;2;Same;low;132;82;82;j;n;1;j;v;6101.915400000507
oy421#h;104;False;1;P != T2?;DT2_high_1;2;Different;high;82;112;132;j;n;0;f;b;974.0692000004856
oy421#h;105;False;1;P != T1?;ST2_high_1;2;Same;high;82;112;112;j;n;0;f;b;845.5653999999413
oy421#h;106;False;1;P != T2?;ST1_high_5;1;Same;high;96;132;96;j;n;1;j;b;1716.0840999995344
oy421#h;107;False;1;P != T1?;ST1_low_6;1;Same;low;154;96;154;j;n;1;f;n;5044.579200000044
oy421#h;108;False;1;P != T2?;STb_1;0;Same;None;60;60;60;j;n;1;f;n;1078.6832000003415
oy421#h;109;False;1;P != T1?;ST2_low_6;2;Same;low;154;96;96;j;n;1;j;b;1796.1019999993368
oy421#h;110;False;1;P != T1?;ST2_low_6;2;Same;low;154;96;96;j;n;1;j;n;2971.0659000002124
oy421#h;111;False;1;P != T1?;ST1_high_5;1;Same;high;96;132;96;j;n;1;f;n;3278.337300000203
oy421#h;112;False;1;P != T2?;STb_6;0;Same;None;132;132;132;j;n;1;f;n;1665.0236000004952
oy421#h;113;False;1;P != T1?;ST1_high_6;1;Same;high;132;96;132;j;n;1;f;b;1616.5599000005386
oy421#h;114;False;1;P != T1?;ST1_low_1;1;Same;low;82;132;82;j;n;1;f;n;1403.7935000005746
oy421#h;115;False;1;P != T2?;ST1_high_6;1;Same;high;132;96;132;j;n;0;f;v;10366.793999999572
oy421#h;116;False;1;P != T2?;ST1_high_6;1;Same;high;132;96;132;j;n;1;j;n;2284.58320000027
oy421#h;117;False;1;P != T2?;ST2_low_6;2;Same;low;154;96;96;j;n;1;f;n;1642.6715999996304
oy421#h;118;False;1;P != T2?;ST1_high_2;1;Same;high;112;82;112;j;n;0;f;v;27777.595599999586
oy421#h;119;False;1;P != T2?;DT2_low_1;2;Different;low;82;132;154;j;n;0;f;b;1911.2121000007392
oy421#h;120;False;1;P != T1?;ST2_high_5;2;Same;high;96;132;132;j;n;0;f;v;5816.695800000161
oy421#h;121;False;1;P != T2?;ST1_low_6;1;Same;low;154;96;154;j;n;1;j;n;1603.6561000000802
oy421#h;122;False;1;P != T1?;STb_4;0;Same;None;96;96;96;j;n;1;f;b;4585.35959999972
oy421#h;123;False;1;P != T1?;ST2_low_3;2;Same;low;70;112;112;j;n;0;f;v;42326.44049999999
oy421#h;124;False;1;P != T2?;ST2_high_4;2;Same;high;96;70;70;j;n;1;f;v;1218.4034000001702
oy421#h;125;False;1;P != T1?;ST1_high_3;1;Same;high;70;96;70;j;n;1;f;v;1763.3724999996048
oy421#h;126;False;1;P != T1?;ST2_low_1;2;Same;low;82;132;132;j;n;1;j;n;1436.3629999988916
oy421#h;127;False;1;P != T2?;ST2_high_1;2;Same;high;82;112;112;j;n;1;f;n;1518.701200000578
oy421#h;128;False;1;P != T2?;STb_5;0;Same;None;112;112;112;j;n;1;f;b;1100.5588000007265
oy421#h;129;False;1;P != T2?;ST2_low_4;2;Same;low;112;70;70;j;n;1;f;v;1273.3826000003319
oy421#h;130;False;1;P != T1?;DT2_low_3;2;Different;low;70;112;132;j;n;1;j;b;1097.8460000005725
oy421#h;131;False;1;P != T1?;ST2_low_4;2;Same;low;112;70;70;j;n;0;f;v;17944.486500000494
oy421#h;132;False;1;P != T2?;ST2_low_3;2;Same;low;70;112;112;j;n;1;f;v;2695.8890999994765
oy421#h;133;False;1;P != T2?;ST2_high_3;2;Same;high;70;96;96;j;n;1;f;v;9871.17660000149
oy421#h;134;False;1;P != T1?;ST1_low_1;1;Same;low;82;132;82;j;n;1;f;b;1676.0997000001225
oy421#h;135;False;1;P != T2?;ST2_high_2;2;Same;high;112;82;82;j;n;1;f;b;746.192800001154
oy421#h;136;False;1;P != T2?;ST2_low_1;2;Same;low;82;132;132;j;n;1;f;b;8393.05930000046
oy421#h;137;False;1;P != T1?;ST2_high_3;2;Same;high;70;96;96;j;n;0;f;n;672.5795000002108
oy421#h;138;False;1;P != T2?;STb_8;0;Same;None;180;180;180;j;n;1;f;b;2096.5030000006664
oy421#h;139;False;1;P != T1?;DT2_high_1;2;Different;high;82;112;132;j;n;0;f;b;701.9092999998975
oy421#h;140;False;1;P != T2?;ST1_low_6;1;Same;low;154;96;154;j;n;1;j;b;2007.9941999993025
oy421#h;141;False;1;P != T2?;DT2_low_6;2;Different;low;154;96;82;j;n;1;j;b;846.6152000000875
oy421#h;142;False;1;P != T1?;ST1_high_2;1;Same;high;112;82;112;j;n;1;f;b;227.37039999992703
oy421#h;143;False;1;P != T1?;DT2_low_6;2;Different;low;154;96;82;j;n;1;j;v;1909.7145999985514
oy421#h;144;False;1;P != T1?;ST1_low_3;1;Same;low;70;112;70;j;n;1;f;b;2451.6024999993533
oy421#h;145;False;1;P != T1?;ST1_low_4;1;Same;low;112;70;112;j;n;0;j;v;2430.1811999994243
oy421#h;146;False;1;P != T1?;ST2_high_4;2;Same;high;96;70;70;j;n;0;f;v;3709.10510000067
oy421#h;147;False;1;P != T1?;ST1_high_6;1;Same;high;132;96;132;j;n;0;j;b;1808.3232000008138
oy421#h;148;False;1;P != T2?;ST1_high_4;1;Same;high;96;70;96;j;n;1;j;v;5081.706099999792
oy421#h;149;False;1;P != T1?;ST1_low_2;1;Same;low;132;82;132;j;n;1;f;v;13442.63460000002
oy421#h;150;False;1;P != T2?;ST2_low_5;2;Same;low;96;154;154;j;n;1;f;b;1154.0074000004097
oy421#h;151;False;1;P != T2?;ST1_low_6;1;Same;low;154;96;154;j;n;0;f;v;2674.5455999989645
oy421#h;152;False;1;P != T1?;STb_7;0;Same;None;154;154;154;j;n;1;f;b;3459.3652000003203
oy421#h;153;False;1;P != T1?;STb_5;0;Same;None;112;112;112;j;n;1;f;b;8092.4510000004375
oy421#h;154;False;1;P != T1?;STb_2;0;Same;None;70;70;70;j;n;1;f;b;634.5196000002034
oy421#h;155;False;1;P != T2?;STb_2;0;Same;None;70;70;70;j;n;0;j;v;6061.360700001387
oy421#h;156;False;1;P != T2?;ST1_low_4;1;Same;low;112;70;112;j;n;1;j;v;461.41290000014124
oy421#h;157;False;1;P != T2?;ST1_low_2;1;Same;low;132;82;132;j;n;1;j;n;825.4717999989225
oy421#h;158;False;1;P != T2?;ST2_low_2;2;Same;low;132;82;82;j;n;1;f;v;1509.8813000004156
oy421#h;159;False;1;P != T2?;ST2_high_6;2;Same;high;132;96;96;j;n;1;f;b;238.59129999982542
oy421#h;160;False;1;P != T2?;ST2_high_1;2;Same;high;82;112;112;j;n;1;f;b;1646.1046999993414
oy421#h;161;False;1;P != T2?;ST1_low_5;1;Same;low;96;154;96;j;n;0;f;v;4312.288299999636
oy421#h;162;False;1;P != T1?;ST2_high_6;2;Same;high;132;96;96;j;n;1;j;b;1789.7532000006322
oy421#h;163;False;1;P != T2?;ST2_high_5;2;Same;high;96;132;132;j;n;1;f;b;6098.340799999278
oy421#h;164;False;1;P != T2?;ST2_low_3;2;Same;low;70;112;112;j;n;1;f;b;242.0734999996057
oy421#h;165;False;1;P != T2?;ST1_high_5;1;Same;high;96;132;96;j;n;0;f;b;5201.823900000818
oy421#h;166;False;1;P != T2?;ST2_low_5;2;Same;low;96;154;154;j;n;1;f;b;4857.204899999488
oy421#h;167;False;1;P != T1?;ST1_low_3;1;Same;low;70;112;70;j;n;0;j;b;1916.5280000015628
oy421#h;168;False;1;P != T1?;ST2_high_3;2;Same;high;70;96;96;j;n;0;f;b;225.42429999884916
oy421#h;169;False;1;P != T1?;ST2_low_2;2;Same;low;132;82;82;j;n;0;f;b;37.386900001365575
oy421#h;170;False;1;P != T2?;ST2_low_5;2;Same;low;96;154;154;j;n;1;f;b;1258.4034999999858
oy421#h;171;False;1;P != T1?;ST1_low_5;1;Same;low;96;154;96;j;n;1;f;b;1720.588599999246
oy421#h;172;False;1;P != T2?;ST2_high_6;2;Same;high;132;96;96;j;n;0;j;b;1495.801000000938
oy421#h;173;False;1;P != T2?;ST1_low_2;1;Same;low;132;82;132;j;n;0;f;v;8219.828399998732
oy421#h;174;False;1;P != T2?;STb_7;0;Same;None;154;154;154;j;n;1;f;b;269.2265000005136
oy421#h;175;False;1;P != T1?;ST1_low_2;1;Same;low;132;82;132;j;n;1;f;b;988.1662000007054
oy421#h;176;False;1;P != T2?;STb_4;0;Same;None;96;96;96;j;n;1;f;b;4873.457299998336
oy421#h;1;True;2;P = T2?;DT2_high_2;2;Different;high;112;82;70;j;n;0;j;v;28159.950799999933
oy421#h;2;True;2;P = T1?;DT1_low_1;1;Different;low;82;132;70;j;n;0;j;b;957.7237000012246
oy421#h;3;True;2;P = T2?;STb_8;0;Same;None;180;180;180;j;n;1;j;b;2242.6224000009825
oy421#h;4;True;2;P = T1?;DT1_low_4;1;Different;low;112;70;132;j;n;0;j;b;1696.6218999987177
oy421#h;5;True;2;P = T2?;DT1_low_4;1;Different;low;112;70;132;j;n;1;f;b;1682.5278000014805
oy421#h;6;True;2;P = T2?;ST2_low_4;2;Same;low;112;70;70;j;n;1;j;b;2032.2154000004957
oy421#h;7;True;2;P = T1?;STb_7;0;Same;None;154;154;154;j;n;1;j;b;604.7465999999986
oy421#h;8;True;2;P = T1?;ST2_low_4;2;Same;low;112;70;70;j;n;1;f;n;1217.6237000003312
oy421#h;9;True;2;P = T1?;ST1_low_5;1;Same;low;96;154;96;j;n;0;f;v;3220.4559999991034
oy421#h;10;True;2;P = T2?;ST1_high_3;1;Same;high;70;96;70;j;n;0;j;b;21622.73109999842
oy421#h;11;True;2;P = T1?;ST1_high_3;1;Same;high;70;96;70;j;n;1;j;b;258.3047999996779
oy421#h;12;True;2;P = T2?;ST2_high_4;2;Same;high;96;70;70;j;n;1;j;b;138.8688999995793
oy421#h;13;True;2;P = T2?;ST1_low_5;1;Same;low;96;154;96;j;n;1;f;n;1595.1392000006308
oy421#h;14;True;2;P = T1?;STb_3;0;Same;None;82;82;82;j;n;1;j;b;109.73749999902793
oy421#h;15;True;2;P = T2?;STb_3;0;Same;None;82;82;82;j;n;1;j;b;1419.0187000003789
oy421#h;16;True;2;P = T1?;ST2_high_6;2;Same;high;132;96;96;j;n;1;f;b;1063.5507000006328
oy421#h;1;False;2;P = T1?;ST1_low_2;1;Same;low;132;82;132;j;n;1;j;b;696.1219000004348
oy421#h;2;False;2;P = T1?;ST1_low_3;1;Same;low;70;112;70;j;n;1;j;v;10187.707899998713
oy421#h;3;False;2;P = T2?;ST1_high_1;1;Same;high;82;112;82;j;n;0;j;b;641.0888000009436
oy421#h;4;False;2;P = T2?;ST1_high_4;1;Same;high;96;70;96;j;n;0;j;b;7114.870200000951
oy421#h;5;False;2;P = T1?;ST2_low_6;2;Same;low;154;96;96;j;n;1;f;n;1080.597799998941
oy421#h;6;False;2;P = T2?;STb_2;0;Same;None;70;70;70;j;n;1;j;v;5345.417499998803
oy421#h;7;False;2;P = T1?;ST2_low_3;2;Same;low;70;112;112;j;n;1;f;n;1594.9572999998054
oy421#h;8;False;2;P = T2?;ST1_high_3;1;Same;high;70;96;70;j;n;0;j;v;953.9920999995957
oy421#h;9;False;2;P = T2?;ST2_high_4;2;Same;high;96;70;70;j;n;1;j;v;16209.691199999725
oy421#h;10;False;2;P = T1?;ST1_high_4;1;Same;high;96;70;96;j;n;1;j;n;469.98899999925925
oy421#h;11;False;2;P = T1?;ST2_high_1;2;Same;high;82;112;112;j;n;1;f;b;902.6063000001159
oy421#h;12;False;2;P = T2?;ST2_low_5;2;Same;low;96;154;154;j;n;1;j;b;2307.3022999997193
oy421#h;13;False;2;P = T2?;ST1_low_5;1;Same;low;96;154;96;j;n;1;f;b;1172.0901999997295
oy421#h;14;False;2;P = T2?;ST2_high_4;2;Same;high;96;70;70;j;n;1;j;b;298.0671000004804
oy421#h;15;False;2;P = T1?;ST2_low_3;2;Same;low;70;112;112;j;n;1;f;n;1129.5734999985143
oy421#h;16;False;2;P = T2?;ST1_low_2;1;Same;low;132;82;132;j;n;1;f;n;1271.2612000013905
oy421#h;17;False;2;P = T1?;DT2_low_1;2;Different;low;82;132;154;j;n;0;j;v;21594.22700000141
oy421#h;18;False;2;P = T1?;ST1_low_5;1;Same;low;96;154;96;j;n;1;j;n;819.9120999997831
oy421#h;19;False;2;P = T2?;ST2_high_5;2;Same;high;96;132;132;j;n;1;j;b;659.0257000007114
oy421#h;20;False;2;P = T2?;ST2_high_2;2;Same;high;112;82;82;j;n;1;j;b;221.3021999996272
oy421#h;21;False;2;P = T2?;ST2_high_6;2;Same;high;132;96;96;j;n;1;j;b;183.3321000012802
oy421#h;22;False;2;P = T1?;ST1_low_1;1;Same;low;82;132;82;j;n;1;j;b;822.9298000005656
oy421#h;23;False;2;P = T1?;ST2_low_2;2;Same;low;132;82;82;j;n;1;f;v;1218.1168000006437
oy421#h;24;False;2;P = T1?;DT1_high_4;1;Different;high;96;70;112;j;n;0;j;v;1326.6385000006267
oy421#h;25;False;2;P = T1?;ST1_low_6;1;Same;low;154;96;154;j;n;1;j;v;852.4596000006568
oy421#h;26;False;2;P = T1?;ST2_low_3;2;Same;low;70;112;112;j;n;0;j;v;1446.5332999989187
oy421#h;27;False;2;P = T1?;ST1_high_4;1;Same;high;96;70;96;j;n;1;j;v;2525.8374999993976
oy421#h;28;False;2;P = T1?;ST1_low_4;1;Same;low;112;70;112;j;n;0;f;b;2097.4003999999695
oy421#h;29;False;2;P = T2?;ST2_low_3;2;Same;low;70;112;112;j;n;1;j;b;1461.1285999999382
oy421#h;30;False;2;P = T1?;ST1_low_5;1;Same;low;96;154;96;j;n;1;j;b;774.2135999997117
oy421#h;31;False;2;P = T2?;ST1_high_3;1;Same;high;70;96;70;j;n;1;f;v;1921.5187000008882
oy421#h;32;False;2;P = T2?;DT1_low_1;1;Different;low;82;132;70;j;n;0;j;b;1427.7117000001454
oy421#h;33;False;2;P = T1?;DT2_high_4;2;Different;high;96;70;60;j;n;0;j;b;1527.705699998478
oy421#h;34;False;2;P = T2?;ST1_low_6;1;Same;low;154;96;154;j;n;1;f;b;1449.9990999993315
oy421#h;35;False;2;P = T2?;ST1_low_1;1;Same;low;82;132;82;j;n;1;f;v;54542.210100000375
oy421#h;36;False;2;P = T1?;ST1_high_6;1;Same;high;132;96;132;j;n;0;f;b;1092.7324000003864
oy421#h;37;False;2;P = T2?;ST2_low_5;2;Same;low;96;154;154;j;n;1;j;v;956.5899999997782
oy421#h;38;False;2;P = T2?;ST1_high_3;1;Same;high;70;96;70;j;n;0;j;b;832.2661000001972
oy421#h;39;False;2;P = T2?;DT1_low_3;1;Different;low;70;112;60;j;n;1;f;b;6261.947099999816
oy421#h;40;False;2;P = T1?;ST1_high_2;1;Same;high;112;82;112;j;n;0;f;v;1671.456299998681
oy421#h;41;False;2;P = T1?;ST2_low_5;2;Same;low;96;154;154;j;n;1;f;b;1091.5607000006275
oy421#h;42;False;2;P = T2?;STb_5;0;Same;None;112;112;112;j;n;0;f;b;938.7894999999844
oy421#h;43;False;2;P = T1?;ST2_low_5;2;Same;low;96;154;154;j;n;1;f;b;1076.8489000001864
oy421#h;44;False;2;P = T1?;ST1_high_3;1;Same;high;70;96;70;j;n;0;f;v;3329.710199999681
oy421#h;45;False;2;P = T1?;ST1_high_1;1;Same;high;82;112;82;j;n;1;j;b;736.2188999995851
oy421#h;46;False;2;P = T2?;ST1_high_1;1;Same;high;82;112;82;j;n;1;f;v;930.3020000006654
oy421#h;47;False;2;P = T1?;STb_1;0;Same;None;60;60;60;j;n;1;j;n;254.54290000016044
oy421#h;48;False;2;P = T2?;ST2_low_4;2;Same;low;112;70;70;j;n;0;f;v;1447.5583000003098
oy421#h;49;False;2;P = T1?;ST1_high_1;1;Same;high;82;112;82;j;n;1;j;b;554.3259000005492
oy421#h;50;False;2;P = T1?;ST2_low_2;2;Same;low;132;82;82;j;n;0;j;b;1295.54459999963
oy421#h;51;False;2;P = T2?;STb_3;0;Same;None;82;82;82;j;n;1;j;b;401.178299998719
oy421#h;52;False;2;P = T1?;ST1_low_4;1;Same;low;112;70;112;j;n;1;j;v;683.5820000014792
oy421#h;53;False;2;P = T2?;ST2_high_6;2;Same;high;132;96;96;j;n;1;j;b;724.1180000000895
oy421#h;54;False;2;P = T2?;ST2_high_1;2;Same;high;82;112;112;j;n;1;j;b;3729.023899999447
oy421#h;55;False;2;P = T2?;ST1_low_2;1;Same;low;132;82;132;j;n;1;f;n;1573.5934000003908
oy421#h;56;False;2;P = T1?;ST2_low_5;2;Same;low;96;154;154;j;n;1;f;n;1445.451100000355
oy421#h;57;False;2;P = T1?;ST2_low_6;2;Same;low;154;96;96;j;n;0;j;v;16133.860300000379
oy421#h;58;False;2;P = T2?;ST1_high_2;1;Same;high;112;82;112;j;n;1;f;v;781.6216999999597
oy421#h;59;False;2;P = T2?;ST2_low_2;2;Same;low;132;82;82;j;n;1;j;b;707.8738000000158
oy421#h;60;False;2;P = T2?;ST2_low_6;2;Same;low;154;96;96;j;n;1;j;b;5529.78240000084
oy421#h;61;False;2;P = T1?;ST1_high_3;1;Same;high;70;96;70;j;n;1;j;b;1757.5646999994206
oy421#h;62;False;2;P = T1?;ST2_high_2;2;Same;high;112;82;82;j;n;1;f;n;1353.6170000006678
oy421#h;63;False;2;P = T1?;ST2_low_4;2;Same;low;112;70;70;j;n;0;j;b;205.32249999996566
oy421#h;64;False;2;P = T2?;ST1_low_6;1;Same;low;154;96;154;j;n;1;f;b;953.6953999995603
oy421#h;65;False;2;P = T1?;ST1_high_5;1;Same;high;96;132;96;j;n;1;j;b;658.4397999995417
oy421#h;66;False;2;P = T1?;ST2_low_1;2;Same;low;82;132;132;j;n;0;j;b;1663.6259000006248
oy421#h;67;False;2;P = T1?;DT1_high_6;1;Different;high;132;96;154;j;n;0;j;b;1977.4930000003224
oy421#h;68;False;2;P = T1?;ST2_high_6;2;Same;high;132;96;96;j;n;1;f;v;1186.5323999991233
oy421#h;69;False;2;P = T2?;ST1_low_6;1;Same;low;154;96;154;j;n;1;f;n;1308.2355999995343
oy421#h;70;False;2;P = T2?;ST1_low_1;1;Same;low;82;132;82;j;n;0;j;v;27117.672200000015
oy421#h;71;False;2;P = T2?;ST2_high_5;2;Same;high;96;132;132;j;n;1;j;b;778.4580999996251
oy421#h;72;False;2;P = T1?;DT2_low_5;2;Different;low;96;154;180;j;n;1;f;b;222.3403000007238
oy421#h;73;False;2;P = T1?;ST1_low_5;1;Same;low;96;154;96;j;n;1;j;b;885.1159999994707
oy421#h;74;False;2;P = T1?;ST1_low_6;1;Same;low;154;96;154;j;n;1;j;b;737.9581000004691
oy421#h;75;False;2;P = T2?;ST1_low_4;1;Same;low;112;70;112;j;n;0;j;b;231.5902999998798
oy421#h;76;False;2;P = T1?;ST2_high_3;2;Same;high;70;96;96;j;n;1;f;v;1696.6368000012153
oy421#h;77;False;2;P = T2?;ST1_low_3;1;Same;low;70;112;70;j;n;1;f;b;367.00089999976626
oy421#h;78;False;2;P = T2?;ST2_low_3;2;Same;low;70;112;112;j;n;1;j;v;3511.9125000001077
oy421#h;79;False;2;P = T2?;ST2_low_6;2;Same;low;154;96;96;j;n;1;j;v;19153.00279999974
oy421#h;80;False;2;P = T1?;ST1_high_5;1;Same;high;96;132;96;j;n;1;j;v;1654.226300001028
oy421#h;81;False;2;P = T1?;ST1_low_2;1;Same;low;132;82;132;j;n;1;j;b;995.0965999996697
oy421#h;82;False;2;P = T1?;STb_2;0;Same;None;70;70;70;j;n;1;j;v;2079.4365999990987
oy421#h;83;False;2;P = T2?;ST2_low_3;2;Same;low;70;112;112;j;n;1;j;b;1402.051199998823
oy421#h;84;False;2;P = T1?;ST2_high_3;2;Same;high;70;96;96;j;n;0;j;b;430.56539999997767
oy421#h;85;False;2;P = T1?;ST1_low_1;1;Same;low;82;132;82;j;n;1;j;v;1557.259699999122
oy421#h;86;False;2;P = T2?;ST2_high_3;2;Same;high;70;96;96;j;n;1;j;b;1461.0819999998057
oy421#h;87;False;2;P = T2?;ST1_high_5;1;Same;high;96;132;96;j;n;1;f;v;24693.946599998526
oy421#h;88;False;2;P = T1?;ST1_low_1;1;Same;low;82;132;82;j;n;1;j;v;6471.309300000939
oy421#h;89;False;2;P = T1?;DT1_high_5;1;Different;high;96;132;82;j;n;0;j;v;162.49450000032084
oy421#h;90;False;2;P = T2?;ST1_low_3;1;Same;low;70;112;70;j;n;0;j;b;2967.641100000037
oy421#h;91;False;2;P = T1?;ST2_high_5;2;Same;high;96;132;132;j;n;1;f;b;1138.378499999817
oy421#h;92;False;2;P = T2?;ST2_low_6;2;Same;low;154;96;96;j;n;1;j;n;1005.6825000010576
oy421#h;93;False;2;P = T2?;ST2_high_1;2;Same;high;82;112;112;j;n;1;j;v;279.5791000007739
oy421#h;94;False;2;P = T2?;STb_8;0;Same;None;180;180;180;j;n;1;j;b;433.59979999877396
oy421#h;95;False;2;P = T1?;ST1_high_3;1;Same;high;70;96;70;j;n;1;j;b;622.2466999988683
oy421#h;96;False;2;P = T1?;ST2_high_4;2;Same;high;96;70;70;j;n;0;j;b;899.5179000012286
oy421#h;97;False;2;P = T2?;ST2_high_2;2;Same;high;112;82;82;j;n;1;j;v;700.7518999998865
oy421#h;98;False;2;P = T2?;ST1_low_4;1;Same;low;112;70;112;j;n;0;j;v;311.7112999989331
oy421#h;99;False;2;P = T1?;ST2_low_1;2;Same;low;82;132;132;j;n;1;f;v;1492.5397999995766
oy421#h;100;False;2;P = T2?;ST1_high_4;1;Same;high;96;70;96;j;n;0;j;b;373.3662999984517
oy421#h;101;False;2;P = T2?;ST2_high_1;2;Same;high;82;112;112;j;n;1;j;v;2123.0197999993834
oy421#h;102;False;2;P = T1?;ST1_low_4;1;Same;low;112;70;112;j;n;0;f;b;1165.599399999337
oy421#h;103;False;2;P = T1?;ST2_low_4;2;Same;low;112;70;70;j;n;0;j;b;269.07759999994596
oy421#h;104;False;2;P = T2?;STb_1;0;Same;None;60;60;60;j;n;1;j;v;221.0388999992574
oy421#h;105;False;2;P = T2?;ST2_high_2;2;Same;high;112;82;82;j;n;1;j;b;880.9712000002037
oy421#h;106;False;2;P = T2?;DT2_high_3;2;Different;high;70;96;112;j;n;0;j;b;867.2516000005999
oy421#h;107;False;2;P = T2?;DT1_high_5;1;Different;high;96;132;82;j;n;1;f;b;1080.6599999996251
oy421#h;108;False;2;P = T2?;STb_4;0;Same;None;96;96;96;j;n;1;j;b;9954.724399998668
oy421#h;109;False;2;P = T1?;DT2_low_4;2;Different;low;112;70;60;j;n;0;j;v;882.9775999984122
oy421#h;110;False;2;P = T1?;STb_3;0;Same;None;82;82;82;j;n;1;j;v;221.46339999926568
oy421#h;111;False;2;P = T1?;ST2_high_1;2;Same;high;82;112;112;j;n;0;j;v;329.90439999957744
oy421#h;112;False;2;P = T1?;STb_7;0;Same;None;154;154;154;j;n;1;j;v;223.88880000107747
oy421#h;113;False;2;P = T1?;ST2_low_6;2;Same;low;154;96;96;j;n;1;f;v;1685.0560999992013
oy421#h;114;False;2;P = T1?;ST1_low_3;1;Same;low;70;112;70;j;n;0;f;v;6688.166000001729
oy421#h;115;False;2;P = T1?;ST2_high_5;2;Same;high;96;132;132;j;n;1;f;v;1689.612500000294
oy421#h;116;False;2;P = T2?;ST2_high_4;2;Same;high;96;70;70;j;n;1;j;v;29862.833799999862
oy421#h;117;False;2;P = T2?;ST2_high_3;2;Same;high;70;96;96;j;n;1;j;n;320.37660000059986
oy421#h;118;False;2;P = T1?;ST1_high_6;1;Same;high;132;96;132;j;n;0;f;v;1482.900900000459
oy421#h;119;False;2;P = T1?;ST2_high_5;2;Same;high;96;132;132;j;n;0;j;v;11003.987500000221
oy421#h;120;False;2;P = T1?;ST1_low_2;1;Same;low;132;82;132;j;n;0;f;v;303.0609000015829
oy421#h;121;False;2;P = T2?;DT1_high_1;1;Different;high;82;112;70;j;n;0;j;b;898.5441999993782
oy421#h;122;False;2;P = T2?;ST2_low_2;2;Same;low;132;82;82;j;n;1;j;b;702.7261999992334
oy421#h;123;False;2;P = T1?;ST2_low_4;2;Same;low;112;70;70;j;n;1;f;v;6293.891700001041
oy421#h;124;False;2;P = T1?;STb_5;0;Same;None;112;112;112;j;n;0;f;v;958.9576999987912
oy421#h;125;False;2;P = T1?;ST1_high_2;1;Same;high;112;82;112;j;n;1;j;v;16205.495299998802
oy421#h;126;False;2;P = T1?;ST1_high_1;1;Same;high;82;112;82;j;n;1;j;n;295.90339999958815
oy421#h;127;False;2;P = T2?;ST1_low_3;1;Same;low;70;112;70;j;n;0;j;n;224.18780000043625
oy421#h;128;False;2;P = T2?;ST1_high_2;1;Same;high;112;82;112;j;n;0;j;b;1170.9653999987495
oy421#h;129;False;2;P = T2?;DT2_high_1;2;Different;high;82;112;132;j;n;1;f;n;1199.666200000138
oy421#h;130;False;2;P = T1?;ST1_low_6;1;Same;low;154;96;154;j;n;1;j;n;714.6907999995165
oy421#h;131;False;2;P = T1?;ST1_high_4;1;Same;high;96;70;96;j;n;1;j;b;248.98729999949865
oy421#h;132;False;2;P = T1?;ST2_high_4;2;Same;high;96;70;70;j;n;0;j;b;972.0274999999674
oy421#h;133;False;2;P = T2?;STb_6;0;Same;None;132;132;132;j;n;1;j;b;3721.573900000294
oy421#h;134;False;2;P = T1?;ST1_high_5;1;Same;high;96;132;96;j;n;1;j;n;885.5075999999826
oy421#h;135;False;2;P = T1?;ST2_high_2;2;Same;high;112;82;82;j;n;0;j;b;266.81319999988773
oy421#h;136;False;2;P = T2?;ST1_high_6;1;Same;high;132;96;132;j;n;0;j;b;1559.0959000001021
oy421#h;137;False;2;P = T2?;ST2_high_5;2;Same;high;96;132;132;j;n;1;j;b;501.42740000046615
oy421#h;138;False;2;P = T2?;ST1_low_2;1;Same;low;132;82;132;j;n;1;f;b;1526.4743999996426
oy421#h;139;False;2;P = T2?;ST1_low_5;1;Same;low;96;154;96;j;n;1;f;b;1087.1386999988317
oy421#h;140;False;2;P = T2?;ST2_low_4;2;Same;low;112;70;70;j;n;0;f;b;4429.03219999971
oy421#h;141;False;2;P = T2?;DT2_low_3;2;Different;low;70;112;132;j;n;1;f;v;364.19910000040545
oy421#h;142;False;2;P = T1?;DT1_low_1;1;Different;low;82;132;70;j;n;0;j;v;1234.8719999990863
oy421#h;143;False;2;P = T1?;ST1_high_2;1;Same;high;112;82;112;j;n;1;j;v;445.17850000011094
oy421#h;144;False;2;P = T2?;ST2_high_3;2;Same;high;70;96;96;j;n;1;j;v;133.1859000001714
oy421#h;145;False;2;P = T1?;ST2_high_2;2;Same;high;112;82;82;j;n;0;j;b;312.94309999975667
oy421#h;146;False;2;P = T1?;ST1_high_6;1;Same;high;132;96;132;j;n;1;j;b;745.9558000009565
oy421#h;147;False;2;P = T2?;ST1_high_4;1;Same;high;96;70;96;j;n;0;j;v;4093.757099999493
oy421#h;148;False;2;P = T1?;ST1_low_3;1;Same;low;70;112;70;j;n;1;j;b;555.1357999993343
oy421#h;149;False;2;P = T1?;ST2_high_4;2;Same;high;96;70;70;j;n;0;j;b;660.1007000008394
oy421#h;150;False;2;P = T2?;ST2_low_1;2;Same;low;82;132;132;j;n;1;j;n;963.0702000013116
oy421#h;151;False;2;P = T1?;ST2_low_2;2;Same;low;132;82;82;j;n;1;f;n;1154.4904000002134
oy421#h;152;False;2;P = T1?;ST2_high_1;2;Same;high;82;112;112;j;n;0;j;v;20260.701600000175
oy421#h;153;False;2;P = T2?;ST2_low_1;2;Same;low;82;132;132;j;n;0;f;v;339.19219999916095
oy421#h;154;False;2;P = T2?;ST1_high_6;1;Same;high;132;96;132;j;n;1;f;n;1221.0431000003155
oy421#h;155;False;2;P = T1?;STb_4;0;Same;None;96;96;96;j;n;1;j;v;5054.70509999941
oy421#h;156;False;2;P = T2?;ST2_low_5;2;Same;low;96;154;154;j;n;1;j;b;384.083400000236
oy421#h;157;False;2;P = T2?;ST2_high_6;2;Same;high;132;96;96;j;n;1;j;b;1535.6104000002233
oy421#h;158;False;2;P = T2?;ST1_high_2;1;Same;high;112;82;112;j;n;0;j;v;1026.219299999866
oy421#h;159;False;2;P = T2?;STb_7;0;Same;None;154;154;154;j;n;0;f;v;253.21880000046804
oy421#h;160;False;2;P = T2?;ST1_low_4;1;Same;low;112;70;112;j;n;0;j;b;366.5114999985235
oy421#h;161;False;2;P = T2?;DT2_high_2;2;Different;high;112;82;70;j;n;1;f;v;1298.9606999999523
oy421#h;162;False;2;P = T2?;ST1_low_5;1;Same;low;96;154;96;j;n;1;f;b;891.8281000005663
oy421#h;163;False;2;P = T1?;STb_8;0;Same;None;180;180;180;j;n;1;j;b;758.2652999990387
oy421#h;164;False;2;P = T1?;STb_6;0;Same;None;132;132;132;j;n;0;f;v;2204.335499998706
oy421#h;165;False;2;P = T2?;ST1_high_1;1;Same;high;82;112;82;j;n;1;f;v;3947.980599999937
oy421#h;166;False;2;P = T2?;ST2_low_1;2;Same;low;82;132;132;j;n;1;j;b;4214.833700001691
oy421#h;167;False;2;P = T1?;ST2_low_1;2;Same;low;82;132;132;j;n;0;j;b;860.3440999995655
oy421#h;168;False;2;P = T2?;ST2_low_2;2;Same;low;132;82;82;j;n;1;j;b;395.9844000000885
oy421#h;169;False;2;P = T1?;ST2_high_3;2;Same;high;70;96;96;j;n;1;f;v;11722.547999999733
oy421#h;170;False;2;P = T2?;ST1_low_1;1;Same;low;82;132;82;j;n;1;f;v;1961.134299999685
oy421#h;171;False;2;P = T2?;ST1_high_6;1;Same;high;132;96;132;j;n;1;f;v;274.62740000009944
oy421#h;172;False;2;P = T2?;ST2_low_4;2;Same;low;112;70;70;j;n;1;j;b;1189.2377000003762
oy421#h;173;False;2;P = T2?;ST1_high_5;1;Same;high;96;132;96;j;n;0;j;b;246.00989999999
oy421#h;174;False;2;P = T2?;ST1_high_5;1;Same;high;96;132;96;j;n;0;j;v;2482.701900000393
oy421#h;175;False;2;P = T1?;ST2_high_6;2;Same;high;132;96;96;j;n;0;j;b;151.72770000026503
oy421#h;176;False;2;P = T1?;ST2_high_6;2;Same;high;132;96;96;j;n;0;j;b;338.0226999997831
