p_code;trial_nr;practice;block;question;condition;seqPos;Same_or_Diff;ITS;T1_hz;T2_hz;P_hz;yes_key;sure_key;correct;yes_no;rating;resp_time
2b4x7u#;1;True;1;P = T2?;DT2_high_3;2;Different;high;70;96;112;j;n;0;j;n;1204.3346999998903
2b4x7u#;2;True;1;P = T1?;DT1_high_1;1;Different;high;82;112;70;j;n;0;j;b;1070.019599999796
2b4x7u#;3;True;1;P = T2?;DT1_high_3;1;Different;high;70;96;60;j;n;0;j;b;1061.9759000001068
2b4x7u#;4;True;1;P = T1?;ST1_high_4;1;Same;high;96;70;96;j;n;0;f;b;1436.394399999699
2b4x7u#;5;True;1;P = T2?;STb_4;0;Same;None;96;96;96;j;n;1;j;b;1088.4237999998732
2b4x7u#;6;True;1;P = T1?;DT2_high_6;2;Different;high;132;96;82;j;n;1;f;v;3049.7355999996216
2b4x7u#;7;True;1;P = T2?;ST2_low_1;2;Same;low;82;132;132;j;n;1;j;v;2931.3461000001553
2b4x7u#;8;True;1;P = T2?;ST1_high_5;1;Same;high;96;132;96;j;n;1;f;v;1287.2889999998733
2b4x7u#;9;True;1;P = T1?;ST1_high_4;1;Same;high;96;70;96;j;n;1;j;v;2446.752600000764
2b4x7u#;10;True;1;P = T1?;STb_6;0;Same;None;132;132;132;j;n;1;j;b;1260.1988999995228
2b4x7u#;11;True;1;P = T2?;ST1_high_1;1;Same;high;82;112;82;j;n;0;j;v;1544.7597000002133
2b4x7u#;12;True;1;P = T1?;STb_8;0;Same;None;180;180;180;j;n;0;f;v;2529.139700000087
2b4x7u#;13;True;1;P = T1?;ST2_high_4;2;Same;high;96;70;70;j;n;1;f;n;1266.5082000003167
2b4x7u#;14;True;1;P = T1?;ST2_low_5;2;Same;low;96;154;154;j;n;0;j;v;937.0552000000316
2b4x7u#;15;True;1;P = T2?;STb_7;0;Same;None;154;154;154;j;n;1;j;n;955.0803999991331
2b4x7u#;16;True;1;P = T2?;ST2_high_6;2;Same;high;132;96;96;j;n;1;j;b;900.3257999993366
p_code;trial_nr;practice;block;question;condition;seqPos;Same_or_Diff;ITS;T1_hz;T2_hz;P_hz;yes_key;sure_key;correct;yes_no;rating;resp_time
2b4x7u#;1;False;1;P = T1?;ST2_low_6;2;Same;low;154;96;96;j;n;1;f;n;858.1097000005684
2b4x7u#;2;False;1;P = T1?;ST2_high_5;2;Same;high;96;132;132;j;n;1;f;n;1199.2639000000054
2b4x7u#;3;False;1;P = T1?;ST1_low_4;1;Same;low;112;70;112;j;n;1;j;b;983.2335999999486
2b4x7u#;4;False;1;P = T1?;ST1_low_5;1;Same;low;96;154;96;j;n;1;j;b;740.5017000000953
2b4x7u#;5;False;1;P = T1?;DT1_high_1;1;Different;high;82;112;70;j;n;0;j;v;3210.862799998722
2b4x7u#;6;False;1;P = T1?;ST2_low_1;2;Same;low;82;132;132;j;n;1;f;b;1413.2175000013376
2b4x7u#;7;False;1;P = T1?;ST2_low_5;2;Same;low;96;154;154;j;n;1;f;b;1296.6810999987501
2b4x7u#;8;False;1;P = T2?;ST1_low_5;1;Same;low;96;154;96;j;n;0;j;v;4206.53350000066
2b4x7u#;9;False;1;P = T1?;DT1_high_4;1;Different;high;96;70;112;j;n;0;j;b;755.8957000001101
2b4x7u#;10;False;1;P = T2?;ST2_low_2;2;Same;low;132;82;82;j;n;1;j;b;743.9638999985618
2b4x7u#;11;False;1;P = T2?;ST1_high_3;1;Same;high;70;96;70;j;n;0;j;b;1175.0702999997884
2b4x7u#;12;False;1;P = T1?;ST2_high_3;2;Same;high;70;96;96;j;n;0;j;v;3035.430899999483
2b4x7u#;13;False;1;P = T2?;STb_4;0;Same;None;96;96;96;j;n;1;j;b;2053.296699999919
2b4x7u#;14;False;1;P = T2?;ST2_high_2;2;Same;high;112;82;82;j;n;1;j;n;748.9438999982667
2b4x7u#;15;False;1;P = T2?;ST1_high_3;1;Same;high;70;96;70;j;n;1;f;v;2084.2733999998018
2b4x7u#;16;False;1;P = T1?;ST1_low_3;1;Same;low;70;112;70;j;n;1;j;v;1867.0127999994293
2b4x7u#;17;False;1;P = T2?;STb_5;0;Same;None;112;112;112;j;n;1;j;n;740.6015999986266
2b4x7u#;18;False;1;P = T1?;ST2_low_4;2;Same;low;112;70;70;j;n;1;f;b;1214.9208999999246
2b4x7u#;19;False;1;P = T2?;ST2_low_2;2;Same;low;132;82;82;j;n;1;j;n;940.3868000008515
2b4x7u#;20;False;1;P = T2?;ST2_low_4;2;Same;low;112;70;70;j;n;1;j;n;799.9266999995598
2b4x7u#;21;False;1;P = T1?;ST2_low_4;2;Same;low;112;70;70;j;n;1;f;b;955.3996000013285
2b4x7u#;22;False;1;P = T2?;ST1_low_6;1;Same;low;154;96;154;j;n;1;f;n;1105.6214999989606
2b4x7u#;23;False;1;P = T2?;ST2_low_3;2;Same;low;70;112;112;j;n;1;j;n;1066.8397999997978
2b4x7u#;24;False;1;P = T2?;ST1_high_4;1;Same;high;96;70;96;j;n;0;j;n;3052.121499998975
2b4x7u#;25;False;1;P = T2?;ST1_low_3;1;Same;low;70;112;70;j;n;1;f;v;1316.129999999248
2b4x7u#;26;False;1;P = T1?;ST2_low_1;2;Same;low;82;132;132;j;n;0;j;v;1409.9495000009483
2b4x7u#;27;False;1;P = T1?;ST2_high_1;2;Same;high;82;112;112;j;n;0;j;n;1019.8084999992716
2b4x7u#;28;False;1;P = T1?;ST1_low_5;1;Same;low;96;154;96;j;n;1;j;n;635.7076999993296
2b4x7u#;29;False;1;P = T1?;ST2_low_3;2;Same;low;70;112;112;j;n;0;j;v;2436.1735000002227
2b4x7u#;30;False;1;P = T1?;STb_2;0;Same;None;70;70;70;j;n;1;j;n;1101.1717000001227
2b4x7u#;31;False;1;P = T2?;ST2_low_1;2;Same;low;82;132;132;j;n;0;f;b;1280.9732999994594
2b4x7u#;32;False;1;P = T2?;ST2_high_2;2;Same;high;112;82;82;j;n;1;j;n;474.2906999999832
2b4x7u#;33;False;1;P = T2?;ST1_high_1;1;Same;high;82;112;82;j;n;1;f;b;1368.8259000009566
2b4x7u#;34;False;1;P = T1?;ST1_high_1;1;Same;high;82;112;82;j;n;1;j;b;1981.4356000006228
2b4x7u#;35;False;1;P = T2?;ST2_low_5;2;Same;low;96;154;154;j;n;1;j;n;871.6571000004478
2b4x7u#;36;False;1;P = T1?;ST2_high_5;2;Same;high;96;132;132;j;n;1;f;n;1083.7921999991522
2b4x7u#;37;False;1;P = T2?;ST1_low_2;1;Same;low;132;82;132;j;n;1;f;n;1583.735099999103
2b4x7u#;38;False;1;P = T1?;ST1_high_5;1;Same;high;96;132;96;j;n;1;j;n;945.0239000016154
2b4x7u#;39;False;1;P = T2?;ST2_high_6;2;Same;high;132;96;96;j;n;1;j;n;591.4173000001028
2b4x7u#;40;False;1;P = T2?;ST2_high_5;2;Same;high;96;132;132;j;n;1;j;b;514.3169000002672
2b4x7u#;41;False;1;P = T1?;ST2_high_6;2;Same;high;132;96;96;j;n;0;j;n;725.9480000011536
2b4x7u#;42;False;1;P = T1?;ST2_low_3;2;Same;low;70;112;112;j;n;0;j;v;1787.637800000084
2b4x7u#;43;False;1;P = T1?;ST1_low_6;1;Same;low;154;96;154;j;n;1;j;n;1782.3951999998826
2b4x7u#;44;False;1;P = T1?;STb_5;0;Same;None;112;112;112;j;n;1;j;n;1725.4056000001583
2b4x7u#;45;False;1;P = T2?;ST2_high_3;2;Same;high;70;96;96;j;n;1;j;n;1044.1053000013198
2b4x7u#;46;False;1;P = T2?;ST2_high_2;2;Same;high;112;82;82;j;n;1;j;b;1173.7733999998454
2b4x7u#;47;False;1;P = T2?;ST2_low_6;2;Same;low;154;96;96;j;n;1;j;b;884.8412000006647
2b4x7u#;48;False;1;P = T2?;ST2_high_4;2;Same;high;96;70;70;j;n;1;j;v;4432.233100000303
2b4x7u#;49;False;1;P = T2?;ST1_high_1;1;Same;high;82;112;82;j;n;1;f;v;1394.6027000001777
2b4x7u#;50;False;1;P = T2?;ST1_low_6;1;Same;low;154;96;154;j;n;1;f;n;1364.615499998763
2b4x7u#;51;False;1;P = T1?;ST1_low_1;1;Same;low;82;132;82;j;n;1;j;n;2246.8298000003415
2b4x7u#;52;False;1;P = T1?;ST2_low_2;2;Same;low;132;82;82;j;n;0;j;b;360.34010000003036
2b4x7u#;53;False;1;P = T1?;STb_4;0;Same;None;96;96;96;j;n;1;j;b;731.5834000000905
2b4x7u#;54;False;1;P = T1?;DT2_high_3;2;Different;high;70;96;112;j;n;1;f;v;2275.486099999398
2b4x7u#;55;False;1;P = T1?;ST1_high_6;1;Same;high;132;96;132;j;n;1;j;b;876.7023000000336
2b4x7u#;56;False;1;P = T1?;ST1_high_5;1;Same;high;96;132;96;j;n;1;j;b;2473.041400000511
2b4x7u#;57;False;1;P = T2?;ST2_high_4;2;Same;high;96;70;70;j;n;1;j;n;851.9610000003013
2b4x7u#;58;False;1;P = T2?;DT1_low_1;1;Different;low;82;132;70;j;n;1;f;n;1212.0596999993722
2b4x7u#;59;False;1;P = T1?;STb_6;0;Same;None;132;132;132;j;n;1;j;n;890.6164999989414
2b4x7u#;60;False;1;P = T2?;DT2_low_2;2;Different;low;132;82;70;j;n;0;j;n;924.1388000009465
2b4x7u#;61;False;1;P = T1?;ST1_low_2;1;Same;low;132;82;132;j;n;1;j;b;1134.1176999994786
2b4x7u#;62;False;1;P = T2?;STb_8;0;Same;None;180;180;180;j;n;1;j;n;640.9206999996968
2b4x7u#;63;False;1;P = T2?;ST1_high_2;1;Same;high;112;82;112;j;n;1;f;n;1165.621199999805
2b4x7u#;64;False;1;P = T2?;ST1_low_4;1;Same;low;112;70;112;j;n;1;f;v;3045.7090999989305
2b4x7u#;65;False;1;P = T2?;DT2_high_4;2;Different;high;96;70;60;j;n;1;f;n;1343.0192000014358
2b4x7u#;66;False;1;P = T1?;ST1_low_6;1;Same;low;154;96;154;j;n;1;j;n;906.9581000003382
2b4x7u#;67;False;1;P = T1?;ST2_high_2;2;Same;high;112;82;82;j;n;1;f;v;2624.604599999657
2b4x7u#;68;False;1;P = T2?;ST1_low_6;1;Same;low;154;96;154;j;n;1;f;n;928.1578000009176
2b4x7u#;69;False;1;P = T1?;ST1_low_1;1;Same;low;82;132;82;j;n;1;j;v;1350.472100000843
2b4x7u#;70;False;1;P = T2?;ST1_high_6;1;Same;high;132;96;132;j;n;1;f;n;956.3882000002195
2b4x7u#;71;False;1;P = T2?;ST2_low_1;2;Same;low;82;132;132;j;n;0;f;n;962.5661999998556
2b4x7u#;72;False;1;P = T2?;STb_6;0;Same;None;132;132;132;j;n;0;f;b;1929.312399999617
2b4x7u#;73;False;1;P = T1?;ST1_low_3;1;Same;low;70;112;70;j;n;1;j;n;1799.1180000008171
2b4x7u#;74;False;1;P = T2?;ST1_low_5;1;Same;low;96;154;96;j;n;1;f;n;1770.1933000007557
2b4x7u#;75;False;1;P = T2?;ST1_high_4;1;Same;high;96;70;96;j;n;0;j;b;1150.8231999996497
2b4x7u#;76;False;1;P = T2?;ST2_low_3;2;Same;low;70;112;112;j;n;1;j;b;585.4466000000684
2b4x7u#;77;False;1;P = T1?;ST2_low_3;2;Same;low;70;112;112;j;n;1;f;b;1260.849700000108
2b4x7u#;78;False;1;P = T2?;ST1_high_4;1;Same;high;96;70;96;j;n;1;f;n;907.5052999996842
2b4x7u#;79;False;1;P = T2?;ST1_low_3;1;Same;low;70;112;70;j;n;1;f;n;904.5884999995906
2b4x7u#;80;False;1;P = T1?;DT2_low_1;2;Different;low;82;132;154;j;n;1;f;n;767.870399999083
2b4x7u#;81;False;1;P = T2?;ST2_high_1;2;Same;high;82;112;112;j;n;1;j;n;1460.068099999262
2b4x7u#;82;False;1;P = T1?;ST2_high_2;2;Same;high;112;82;82;j;n;1;f;n;822.7663999987271
2b4x7u#;83;False;1;P = T1?;ST1_high_6;1;Same;high;132;96;132;j;n;0;f;n;1294.2852999985917
2b4x7u#;84;False;1;P = T2?;ST1_high_5;1;Same;high;96;132;96;j;n;1;f;n;905.4026000012527
2b4x7u#;85;False;1;P = T2?;ST1_low_1;1;Same;low;82;132;82;j;n;0;j;v;3118.1789000002027
2b4x7u#;86;False;1;P = T1?;ST1_high_1;1;Same;high;82;112;82;j;n;1;j;n;1105.6794999985868
2b4x7u#;87;False;1;P = T1?;ST2_low_1;2;Same;low;82;132;132;j;n;1;f;n;1084.8088999991887
2b4x7u#;88;False;1;P = T1?;ST2_high_1;2;Same;high;82;112;112;j;n;0;j;b;1929.2683999992732
2b4x7u#;89;False;1;P = T2?;DT2_high_3;2;Different;high;70;96;112;j;n;0;j;n;737.252199998693
2b4x7u#;90;False;1;P = T1?;ST1_high_4;1;Same;high;96;70;96;j;n;0;f;n;835.0082999986626
2b4x7u#;91;False;1;P = T1?;ST1_high_4;1;Same;high;96;70;96;j;n;1;j;n;386.27439999982016
2b4x7u#;92;False;1;P = T2?;ST1_high_3;1;Same;high;70;96;70;j;n;0;j;n;370.48130000039237
2b4x7u#;93;False;1;P = T1?;ST2_high_4;2;Same;high;96;70;70;j;n;0;j;b;1119.222200000877
2b4x7u#;94;False;1;P = T1?;ST1_high_2;1;Same;high;112;82;112;j;n;1;j;v;1016.8102999996336
2b4x7u#;95;False;1;P = T2?;ST2_high_4;2;Same;high;96;70;70;j;n;1;j;b;1307.003400001122
2b4x7u#;96;False;1;P = T1?;ST1_low_2;1;Same;low;132;82;132;j;n;1;j;n;806.0461999994004
2b4x7u#;97;False;1;P = T1?;ST2_low_5;2;Same;low;96;154;154;j;n;1;f;n;1278.787100000045
2b4x7u#;98;False;1;P = T1?;ST2_high_1;2;Same;high;82;112;112;j;n;0;j;v;3076.9694999999047
2b4x7u#;99;False;1;P = T2?;ST1_high_5;1;Same;high;96;132;96;j;n;1;f;n;1414.4207999997889
2b4x7u#;100;False;1;P = T1?;ST2_high_5;2;Same;high;96;132;132;j;n;1;f;b;3714.2967999989196
2b4x7u#;101;False;1;P = T2?;ST1_low_1;1;Same;low;82;132;82;j;n;1;f;n;799.4558999998844
2b4x7u#;102;False;1;P = T2?;ST2_high_6;2;Same;high;132;96;96;j;n;1;j;n;702.788700000383
2b4x7u#;103;False;1;P = T1?;ST1_low_1;1;Same;low;82;132;82;j;n;1;j;b;1043.945800000074
2b4x7u#;104;False;1;P = T2?;ST1_high_5;1;Same;high;96;132;96;j;n;1;f;n;1040.9971000008227
2b4x7u#;105;False;1;P = T2?;ST1_low_3;1;Same;low;70;112;70;j;n;1;f;n;2985.074199999872
2b4x7u#;106;False;1;P = T1?;DT2_high_1;2;Different;high;82;112;132;j;n;0;j;n;1030.9866999996302
2b4x7u#;107;False;1;P = T1?;ST1_high_3;1;Same;high;70;96;70;j;n;1;j;n;677.9731000005995
2b4x7u#;108;False;1;P = T2?;ST2_high_3;2;Same;high;70;96;96;j;n;1;j;b;1940.1814000011655
2b4x7u#;109;False;1;P = T1?;DT1_low_1;1;Different;low;82;132;70;j;n;0;j;n;690.6210000015562
2b4x7u#;110;False;1;P = T1?;ST2_high_2;2;Same;high;112;82;82;j;n;0;j;b;1755.8154999987892
2b4x7u#;111;False;1;P = T2?;ST1_high_2;1;Same;high;112;82;112;j;n;1;f;v;2088.533299998744
2b4x7u#;112;False;1;P = T1?;ST2_low_4;2;Same;low;112;70;70;j;n;1;f;n;948.4658999990643
2b4x7u#;113;False;1;P = T2?;ST2_low_5;2;Same;low;96;154;154;j;n;1;j;n;664.1152000011061
2b4x7u#;114;False;1;P = T2?;DT2_high_5;2;Different;high;96;132;154;j;n;0;j;n;762.0466000007582
2b4x7u#;115;False;1;P = T1?;ST1_low_4;1;Same;low;112;70;112;j;n;1;j;v;2752.3127000004024
2b4x7u#;116;False;1;P = T2?;ST2_low_5;2;Same;low;96;154;154;j;n;1;j;b;2781.4152000009926
2b4x7u#;117;False;1;P = T2?;DT2_high_1;2;Different;high;82;112;132;j;n;1;f;n;1207.939500000066
2b4x7u#;118;False;1;P = T2?;STb_2;0;Same;None;70;70;70;j;n;1;j;n;488.9111000011326
2b4x7u#;119;False;1;P = T1?;ST1_low_4;1;Same;low;112;70;112;j;n;0;f;v;3828.215100000307
2b4x7u#;120;False;1;P = T1?;ST2_high_4;2;Same;high;96;70;70;j;n;0;j;b;1827.460999998948
2b4x7u#;121;False;1;P = T1?;DT2_low_5;2;Different;low;96;154;180;j;n;1;f;n;836.4446999985375
2b4x7u#;122;False;1;P = T2?;ST1_low_5;1;Same;low;96;154;96;j;n;0;j;b;2039.5009000003483
2b4x7u#;123;False;1;P = T1?;ST1_high_4;1;Same;high;96;70;96;j;n;1;j;n;924.1688000001886
2b4x7u#;124;False;1;P = T1?;ST1_low_3;1;Same;low;70;112;70;j;n;1;j;n;884.6012999983941
2b4x7u#;125;False;1;P = T2?;ST1_high_6;1;Same;high;132;96;132;j;n;1;f;v;2384.037300000273
2b4x7u#;126;False;1;P = T1?;STb_8;0;Same;None;180;180;180;j;n;1;j;b;1258.9328000012756
2b4x7u#;127;False;1;P = T1?;ST2_low_2;2;Same;low;132;82;82;j;n;1;f;n;902.4002999994991
2b4x7u#;128;False;1;P = T1?;ST1_high_5;1;Same;high;96;132;96;j;n;0;f;n;1203.9497000005213
2b4x7u#;129;False;1;P = T2?;ST1_high_2;1;Same;high;112;82;112;j;n;0;j;n;456.34049999898707
2b4x7u#;130;False;1;P = T1?;ST1_high_6;1;Same;high;132;96;132;j;n;1;j;b;1426.2085999998817
2b4x7u#;131;False;1;P = T2?;ST1_high_6;1;Same;high;132;96;132;j;n;1;f;b;850.4394999999931
2b4x7u#;132;False;1;P = T1?;ST1_high_2;1;Same;high;112;82;112;j;n;1;j;v;1099.3143999985477
2b4x7u#;133;False;1;P = T2?;DT2_low_6;2;Different;low;154;96;82;j;n;0;j;n;2051.4292000007117
2b4x7u#;134;False;1;P = T1?;ST2_high_4;2;Same;high;96;70;70;j;n;1;f;b;1409.7387000001618
2b4x7u#;135;False;1;P = T2?;ST2_high_5;2;Same;high;96;132;132;j;n;1;j;n;799.1197999999713
2b4x7u#;136;False;1;P = T2?;ST2_low_4;2;Same;low;112;70;70;j;n;1;j;n;1025.2249999994092
2b4x7u#;137;False;1;P = T1?;ST1_low_2;1;Same;low;132;82;132;j;n;1;j;n;762.9527999997663
2b4x7u#;138;False;1;P = T1?;STb_7;0;Same;None;154;154;154;j;n;1;j;n;589.0984999987268
2b4x7u#;139;False;1;P = T2?;ST2_low_3;2;Same;low;70;112;112;j;n;1;j;n;739.9662999996508
2b4x7u#;140;False;1;P = T1?;ST2_low_6;2;Same;low;154;96;96;j;n;1;f;n;1075.6053999994037
2b4x7u#;141;False;1;P = T1?;ST2_high_3;2;Same;high;70;96;96;j;n;0;j;b;1125.238000000536
2b4x7u#;142;False;1;P = T1?;ST2_low_2;2;Same;low;132;82;82;j;n;1;f;v;2992.8020000006654
2b4x7u#;143;False;1;P = T2?;ST2_high_1;2;Same;high;82;112;112;j;n;0;f;v;5265.515699999014
2b4x7u#;144;False;1;P = T2?;ST1_high_1;1;Same;high;82;112;82;j;n;0;j;n;1207.6999000000797
2b4x7u#;145;False;1;P = T2?;STb_1;0;Same;None;60;60;60;j;n;1;j;n;813.9131000007183
2b4x7u#;146;False;1;P = T1?;ST1_high_1;1;Same;high;82;112;82;j;n;1;j;b;2366.3753000000725
2b4x7u#;147;False;1;P = T2?;ST2_high_6;2;Same;high;132;96;96;j;n;1;j;b;1010.78249999955
2b4x7u#;148;False;1;P = T1?;STb_1;0;Same;None;60;60;60;j;n;1;j;n;379.1832999995677
2b4x7u#;149;False;1;P = T1?;ST2_high_3;2;Same;high;70;96;96;j;n;0;j;b;1855.3592000007484
2b4x7u#;150;False;1;P = T2?;ST2_low_1;2;Same;low;82;132;132;j;n;1;j;n;536.5124999989348
2b4x7u#;151;False;1;P = T2?;ST2_low_2;2;Same;low;132;82;82;j;n;1;j;n;689.6293000008882
2b4x7u#;152;False;1;P = T2?;ST2_low_6;2;Same;low;154;96;96;j;n;1;j;n;594.6832999998151
2b4x7u#;153;False;1;P = T2?;ST1_low_1;1;Same;low;82;132;82;j;n;1;f;n;2461.860199999137
2b4x7u#;154;False;1;P = T2?;ST2_low_6;2;Same;low;154;96;96;j;n;1;j;n;649.0687999994407
2b4x7u#;155;False;1;P = T2?;ST2_high_1;2;Same;high;82;112;112;j;n;0;f;b;1003.0345000013767
2b4x7u#;156;False;1;P = T2?;ST1_low_2;1;Same;low;132;82;132;j;n;1;f;n;1061.055899999701
2b4x7u#;157;False;1;P = T2?;STb_7;0;Same;None;154;154;154;j;n;1;j;n;620.1165999991645
2b4x7u#;158;False;1;P = T1?;ST1_low_6;1;Same;low;154;96;154;j;n;1;j;n;1004.1105999989668
2b4x7u#;159;False;1;P = T1?;ST2_high_6;2;Same;high;132;96;96;j;n;0;j;n;581.0232999992877
2b4x7u#;160;False;1;P = T1?;ST1_high_3;1;Same;high;70;96;70;j;n;1;j;n;614.6288999989338
2b4x7u#;161;False;1;P = T1?;STb_3;0;Same;None;82;82;82;j;n;1;j;v;3151.8941000013
2b4x7u#;162;False;1;P = T2?;ST1_low_2;1;Same;low;132;82;132;j;n;1;f;n;784.847400000217
2b4x7u#;163;False;1;P = T1?;ST2_high_6;2;Same;high;132;96;96;j;n;1;f;b;2831.333400001313
2b4x7u#;164;False;1;P = T2?;ST2_high_5;2;Same;high;96;132;132;j;n;0;f;b;890.1767999996082
2b4x7u#;165;False;1;P = T2?;ST1_low_4;1;Same;low;112;70;112;j;n;1;f;n;3086.832700000741
2b4x7u#;166;False;1;P = T2?;ST2_high_3;2;Same;high;70;96;96;j;n;0;f;n;1020.8528000002843
2b4x7u#;167;False;1;P = T1?;DT2_high_6;2;Different;high;132;96;82;j;n;0;j;n;4211.612800001603
2b4x7u#;168;False;1;P = T2?;DT2_low_1;2;Different;low;82;132;154;j;n;0;j;n;618.5750000004191
2b4x7u#;169;False;1;P = T2?;ST1_low_4;1;Same;low;112;70;112;j;n;1;f;n;1280.7566999999835
2b4x7u#;170;False;1;P = T1?;ST2_low_6;2;Same;low;154;96;96;j;n;0;j;n;1324.1507999991882
2b4x7u#;171;False;1;P = T2?;STb_3;0;Same;None;82;82;82;j;n;1;j;n;519.1880000002129
2b4x7u#;172;False;1;P = T2?;ST2_low_4;2;Same;low;112;70;70;j;n;1;j;n;799.9667999993108
2b4x7u#;173;False;1;P = T1?;ST2_low_5;2;Same;low;96;154;154;j;n;1;f;n;896.499300000869
2b4x7u#;174;False;1;P = T1?;ST1_low_5;1;Same;low;96;154;96;j;n;1;j;n;730.2701999997225
2b4x7u#;175;False;1;P = T1?;ST1_high_3;1;Same;high;70;96;70;j;n;1;j;n;1271.864900001674
2b4x7u#;176;False;1;P = T1?;ST1_high_2;1;Same;high;112;82;112;j;n;1;j;b;1036.348599998746
2b4x7u#;1;True;2;P != T2?;STb_6;0;Same;None;132;132;132;j;n;1;f;n;4553.304900000512
2b4x7u#;2;True;2;P != T1?;STb_4;0;Same;None;96;96;96;j;n;1;f;n;2419.7100999990653
2b4x7u#;3;True;2;P != T2?;STb_8;0;Same;None;180;180;180;j;n;1;f;n;2546.0415999987163
2b4x7u#;4;True;2;P != T2?;DT1_low_4;1;Different;low;112;70;132;j;n;1;j;n;1377.2050999996281
2b4x7u#;5;True;2;P != T1?;DT2_low_6;2;Different;low;154;96;82;j;n;1;j;n;2192.9064999985712
2b4x7u#;6;True;2;P != T2?;ST1_high_2;1;Same;high;112;82;112;j;n;0;f;n;1416.1346000000776
2b4x7u#;7;True;2;P != T2?;ST1_low_2;1;Same;low;132;82;132;j;n;0;f;n;3327.4060000003374
2b4x7u#;8;True;2;P != T1?;ST2_low_2;2;Same;low;132;82;82;j;n;0;f;v;1857.7944000007847
2b4x7u#;9;True;2;P != T2?;DT2_high_6;2;Different;high;132;96;82;j;n;0;f;n;1531.8747000001167
2b4x7u#;10;True;2;P != T1?;ST1_high_1;1;Same;high;82;112;82;j;n;1;f;n;1045.8712999989075
2b4x7u#;11;True;2;P != T1?;STb_8;0;Same;None;180;180;180;j;n;1;f;b;2508.9726999995037
2b4x7u#;12;True;2;P != T1?;ST2_high_2;2;Same;high;112;82;82;j;n;1;j;n;2477.925099999993
2b4x7u#;13;True;2;P != T2?;ST2_low_1;2;Same;low;82;132;132;j;n;1;f;n;957.9559000012523
2b4x7u#;14;True;2;P != T1?;ST1_high_1;1;Same;high;82;112;82;j;n;1;f;v;3238.792199999807
2b4x7u#;15;True;2;P != T2?;ST2_low_3;2;Same;low;70;112;112;j;n;1;f;n;1209.4996000014362
2b4x7u#;16;True;2;P != T1?;DT1_low_4;1;Different;low;112;70;132;j;n;0;f;n;958.2016999993357
2b4x7u#;1;False;2;P != T2?;DT1_low_2;1;Different;low;132;82;154;j;n;1;j;n;876.84740000077
2b4x7u#;2;False;2;P != T1?;ST2_low_4;2;Same;low;112;70;70;j;n;0;f;n;1804.9102000004495
2b4x7u#;3;False;2;P != T2?;ST2_high_3;2;Same;high;70;96;96;j;n;1;f;n;1041.9025999999576
2b4x7u#;4;False;2;P != T2?;ST2_high_5;2;Same;high;96;132;132;j;n;1;f;n;1324.3235000009008
2b4x7u#;5;False;2;P != T1?;ST1_low_1;1;Same;low;82;132;82;j;n;1;f;n;3874.325200000385
2b4x7u#;6;False;2;P != T1?;ST1_high_1;1;Same;high;82;112;82;j;n;1;f;v;2462.9328999999416
2b4x7u#;7;False;2;P != T1?;ST2_high_5;2;Same;high;96;132;132;j;n;0;f;n;1495.1324999983626
2b4x7u#;8;False;2;P != T1?;ST1_low_5;1;Same;low;96;154;96;j;n;1;f;n;2228.479999999763
2b4x7u#;9;False;2;P != T2?;ST1_low_6;1;Same;low;154;96;154;j;n;1;j;n;4569.264300000214
2b4x7u#;10;False;2;P != T2?;ST2_low_3;2;Same;low;70;112;112;j;n;0;j;b;3404.5384999990347
2b4x7u#;11;False;2;P != T1?;ST1_low_2;1;Same;low;132;82;132;j;n;0;j;v;3703.7703999994847
2b4x7u#;12;False;2;P != T2?;STb_5;0;Same;None;112;112;112;j;n;1;f;n;652.9264000000694
2b4x7u#;13;False;2;P != T1?;ST2_low_5;2;Same;low;96;154;154;j;n;1;j;n;976.4967000010074
2b4x7u#;14;False;2;P != T2?;ST2_low_6;2;Same;low;154;96;96;j;n;1;f;n;1256.772100001399
2b4x7u#;15;False;2;P != T2?;ST1_high_1;1;Same;high;82;112;82;j;n;1;j;b;2647.9323000003205
2b4x7u#;16;False;2;P != T2?;ST2_high_6;2;Same;high;132;96;96;j;n;1;f;n;1021.7357000001357
2b4x7u#;17;False;2;P != T1?;ST2_high_6;2;Same;high;132;96;96;j;n;1;j;n;2142.730899999151
2b4x7u#;18;False;2;P != T2?;ST1_low_1;1;Same;low;82;132;82;j;n;1;j;v;4118.661099999372
2b4x7u#;19;False;2;P != T2?;ST1_high_6;1;Same;high;132;96;132;j;n;0;f;b;876.7449999995733
2b4x7u#;20;False;2;P != T1?;ST1_high_5;1;Same;high;96;132;96;j;n;1;f;n;1056.4168999990216
2b4x7u#;21;False;2;P != T2?;DT1_high_5;1;Different;high;96;132;82;j;n;1;j;n;901.8859000007069
2b4x7u#;22;False;2;P != T2?;ST2_low_1;2;Same;low;82;132;132;j;n;1;f;n;1138.6598000008235
2b4x7u#;23;False;2;P != T2?;ST2_high_4;2;Same;high;96;70;70;j;n;1;f;n;2860.9762999985833
2b4x7u#;24;False;2;P != T1?;STb_5;0;Same;None;112;112;112;j;n;1;f;n;2102.5516999998217
2b4x7u#;25;False;2;P != T2?;ST2_low_4;2;Same;low;112;70;70;j;n;1;f;n;1735.5459999998857
2b4x7u#;26;False;2;P != T2?;ST1_low_1;1;Same;low;82;132;82;j;n;1;j;n;3395.53160000105
2b4x7u#;27;False;2;P != T2?;ST2_high_6;2;Same;high;132;96;96;j;n;0;j;n;3772.7273999989848
2b4x7u#;28;False;2;P != T1?;DT1_low_2;1;Different;low;132;82;154;j;n;0;f;v;6329.984100000729
2b4x7u#;29;False;2;P != T2?;STb_6;0;Same;None;132;132;132;j;n;1;f;b;2232.250600000043
2b4x7u#;30;False;2;P != T2?;ST1_low_2;1;Same;low;132;82;132;j;n;1;j;n;1176.985699999932
2b4x7u#;31;False;2;P != T1?;ST1_high_6;1;Same;high;132;96;132;j;n;1;f;b;3219.4909999998345
2b4x7u#;32;False;2;P != T2?;ST1_low_4;1;Same;low;112;70;112;j;n;0;f;b;3557.077899999058
2b4x7u#;33;False;2;P != T1?;ST1_low_4;1;Same;low;112;70;112;j;n;1;f;b;3199.710300001243
2b4x7u#;34;False;2;P != T2?;ST1_high_6;1;Same;high;132;96;132;j;n;1;j;n;2555.9356000012485
2b4x7u#;35;False;2;P != T2?;ST2_low_4;2;Same;low;112;70;70;j;n;1;f;n;1652.1898999999394
2b4x7u#;36;False;2;P != T1?;ST1_low_4;1;Same;low;112;70;112;j;n;1;f;b;4125.135400001454
2b4x7u#;37;False;2;P != T2?;ST1_high_4;1;Same;high;96;70;96;j;n;0;f;n;1134.0083000013692
2b4x7u#;38;False;2;P != T1?;ST2_high_2;2;Same;high;112;82;82;j;n;1;j;n;1244.9492000014288
2b4x7u#;39;False;2;P != T2?;ST1_low_2;1;Same;low;132;82;132;j;n;1;j;n;1158.4536999998818
2b4x7u#;40;False;2;P != T1?;STb_6;0;Same;None;132;132;132;j;n;1;f;n;468.89269999883254
2b4x7u#;41;False;2;P != T1?;ST2_low_3;2;Same;low;70;112;112;j;n;1;j;v;2732.310999999754
2b4x7u#;42;False;2;P != T2?;ST2_low_2;2;Same;low;132;82;82;j;n;1;f;n;2189.969299999575
2b4x7u#;43;False;2;P != T1?;ST1_high_1;1;Same;high;82;112;82;j;n;0;j;n;2846.061300000656
2b4x7u#;44;False;2;P != T1?;DT2_low_5;2;Different;low;96;154;180;j;n;0;f;v;3107.2574999998324
2b4x7u#;45;False;2;P != T1?;STb_2;0;Same;None;70;70;70;j;n;1;f;n;1046.7133000001922
2b4x7u#;46;False;2;P != T2?;ST2_low_1;2;Same;low;82;132;132;j;n;1;f;n;1752.8960999989067
2b4x7u#;47;False;2;P != T2?;STb_7;0;Same;None;154;154;154;j;n;1;f;n;966.0782999999356
2b4x7u#;48;False;2;P != T1?;ST2_high_1;2;Same;high;82;112;112;j;n;1;j;b;3629.3268999997963
2b4x7u#;49;False;2;P != T1?;ST2_low_6;2;Same;low;154;96;96;j;n;1;j;n;1417.9588000006333
2b4x7u#;50;False;2;P != T1?;ST1_low_6;1;Same;low;154;96;154;j;n;1;f;v;2822.3648999992292
2b4x7u#;51;False;2;P != T2?;ST1_high_5;1;Same;high;96;132;96;j;n;1;j;n;740.6964000001608
2b4x7u#;52;False;2;P != T1?;ST2_high_6;2;Same;high;132;96;96;j;n;0;f;b;2466.0284999990836
2b4x7u#;53;False;2;P != T1?;ST2_high_3;2;Same;high;70;96;96;j;n;0;f;n;1605.4841000004672
2b4x7u#;54;False;2;P != T1?;ST1_high_3;1;Same;high;70;96;70;j;n;1;f;v;1217.243499999313
2b4x7u#;55;False;2;P != T1?;ST2_low_3;2;Same;low;70;112;112;j;n;1;j;v;2854.4223999997484
2b4x7u#;56;False;2;P != T1?;ST2_high_5;2;Same;high;96;132;132;j;n;0;f;n;383.45399999889196
2b4x7u#;57;False;2;P != T2?;ST2_low_5;2;Same;low;96;154;154;j;n;1;f;n;2508.5847999998805
2b4x7u#;58;False;2;P != T1?;DT2_high_6;2;Different;high;132;96;82;j;n;1;j;n;2631.7583000000013
2b4x7u#;59;False;2;P != T1?;ST2_low_2;2;Same;low;132;82;82;j;n;0;f;v;3412.896699999692
2b4x7u#;60;False;2;P != T1?;STb_1;0;Same;None;60;60;60;j;n;1;f;n;439.1953999984253
2b4x7u#;61;False;2;P != T2?;ST2_high_4;2;Same;high;96;70;70;j;n;1;f;n;1460.3473999995913
2b4x7u#;62;False;2;P != T1?;ST1_high_4;1;Same;high;96;70;96;j;n;1;f;n;1417.3768000000564
2b4x7u#;63;False;2;P != T1?;ST1_low_4;1;Same;low;112;70;112;j;n;1;f;n;3274.7256999991805
2b4x7u#;64;False;2;P != T2?;ST2_high_1;2;Same;high;82;112;112;j;n;1;f;n;1160.8202000006713
2b4x7u#;65;False;2;P != T1?;STb_7;0;Same;None;154;154;154;j;n;1;f;n;432.8961999999592
2b4x7u#;66;False;2;P != T1?;ST1_low_1;1;Same;low;82;132;82;j;n;1;f;n;2377.3859000011726
2b4x7u#;67;False;2;P != T2?;ST1_low_5;1;Same;low;96;154;96;j;n;0;f;n;330.5560000007972
2b4x7u#;68;False;2;P != T2?;STb_1;0;Same;None;60;60;60;j;n;1;f;n;382.0397999988927
2b4x7u#;69;False;2;P != T2?;STb_8;0;Same;None;180;180;180;j;n;1;f;n;349.55250000166416
2b4x7u#;70;False;2;P != T1?;ST2_low_1;2;Same;low;82;132;132;j;n;0;f;n;458.8618999987375
2b4x7u#;71;False;2;P != T1?;ST2_high_3;2;Same;high;70;96;96;j;n;0;f;n;515.1095999990503
2b4x7u#;72;False;2;P != T1?;ST2_low_2;2;Same;low;132;82;82;j;n;1;j;n;1336.9055000002845
2b4x7u#;73;False;2;P != T2?;ST2_high_3;2;Same;high;70;96;96;j;n;1;f;n;1942.0695999997406
2b4x7u#;74;False;2;P != T1?;ST2_low_3;2;Same;low;70;112;112;j;n;0;f;n;1395.3489999985322
2b4x7u#;75;False;2;P != T2?;ST1_high_5;1;Same;high;96;132;96;j;n;0;f;n;5239.469000000099
2b4x7u#;76;False;2;P != T2?;ST1_high_6;1;Same;high;132;96;132;j;n;0;f;n;673.405499999717
2b4x7u#;77;False;2;P != T1?;ST1_high_4;1;Same;high;96;70;96;j;n;1;f;n;1484.786200000599
2b4x7u#;78;False;2;P != T1?;ST1_low_3;1;Same;low;70;112;70;j;n;1;f;n;1981.7120999996405
2b4x7u#;79;False;2;P != T1?;STb_3;0;Same;None;82;82;82;j;n;0;j;n;1000.997200000711
2b4x7u#;80;False;2;P != T1?;ST2_high_1;2;Same;high;82;112;112;j;n;1;j;b;889.7107000011601
2b4x7u#;81;False;2;P != T2?;ST1_low_6;1;Same;low;154;96;154;j;n;1;j;n;1306.7938000003778
2b4x7u#;82;False;2;P != T1?;ST1_low_5;1;Same;low;96;154;96;j;n;1;f;n;708.0507999999099
2b4x7u#;83;False;2;P != T1?;ST1_high_6;1;Same;high;132;96;132;j;n;1;f;b;2803.2413000000815
2b4x7u#;84;False;2;P != T2?;ST1_high_1;1;Same;high;82;112;82;j;n;1;j;n;534.1786999997566
2b4x7u#;85;False;2;P != T1?;ST1_high_3;1;Same;high;70;96;70;j;n;1;f;n;1608.4986999994726
2b4x7u#;86;False;2;P != T2?;ST1_high_4;1;Same;high;96;70;96;j;n;1;j;n;614.8388000001432
2b4x7u#;87;False;2;P != T2?;ST1_low_1;1;Same;low;82;132;82;j;n;1;j;n;2139.8019999996905
2b4x7u#;88;False;2;P != T1?;ST1_low_2;1;Same;low;132;82;132;j;n;1;f;b;1872.1683000003395
2b4x7u#;89;False;2;P != T2?;ST2_low_4;2;Same;low;112;70;70;j;n;1;f;n;2892.929499999809
2b4x7u#;90;False;2;P != T1?;STb_4;0;Same;None;96;96;96;j;n;1;f;n;1010.3018999998312
2b4x7u#;91;False;2;P != T2?;ST1_high_2;1;Same;high;112;82;112;j;n;1;j;n;554.9516999999469
2b4x7u#;92;False;2;P != T2?;ST2_high_3;2;Same;high;70;96;96;j;n;0;j;v;3648.1760000006034
2b4x7u#;93;False;2;P != T2?;ST2_high_2;2;Same;high;112;82;82;j;n;1;f;b;2088.036299999658
2b4x7u#;94;False;2;P != T1?;ST1_high_5;1;Same;high;96;132;96;j;n;1;f;b;1471.2947000007262
2b4x7u#;95;False;2;P != T1?;ST2_low_1;2;Same;low;82;132;132;j;n;1;j;n;2796.7028000002756
2b4x7u#;96;False;2;P != T2?;DT2_high_3;2;Different;high;70;96;112;j;n;0;f;n;1847.9032999985066
2b4x7u#;97;False;2;P != T2?;ST2_high_5;2;Same;high;96;132;132;j;n;1;f;n;1372.8404999983468
2b4x7u#;98;False;2;P != T1?;DT2_high_4;2;Different;high;96;70;60;j;n;1;j;v;2630.542599999899
2b4x7u#;99;False;2;P != T2?;ST2_high_2;2;Same;high;112;82;82;j;n;1;f;n;1012.9200000010314
2b4x7u#;100;False;2;P != T2?;ST1_high_4;1;Same;high;96;70;96;j;n;1;j;v;2876.5776000000187
2b4x7u#;101;False;2;P != T1?;ST2_high_2;2;Same;high;112;82;82;j;n;1;j;n;787.2824999994918
2b4x7u#;102;False;2;P != T1?;ST2_low_5;2;Same;low;96;154;154;j;n;1;j;n;2001.3923000005889
2b4x7u#;103;False;2;P != T1?;ST2_low_6;2;Same;low;154;96;96;j;n;1;j;n;1008.2650000003923
2b4x7u#;104;False;2;P != T1?;ST1_low_3;1;Same;low;70;112;70;j;n;1;f;n;2258.3759000008286
2b4x7u#;105;False;2;P != T2?;STb_4;0;Same;None;96;96;96;j;n;1;f;n;1320.2954999997019
2b4x7u#;106;False;2;P != T2?;ST2_high_5;2;Same;high;96;132;132;j;n;1;f;n;672.0776000001933
2b4x7u#;107;False;2;P != T2?;ST1_high_3;1;Same;high;70;96;70;j;n;1;j;n;1844.443100000717
2b4x7u#;108;False;2;P != T1?;ST2_low_1;2;Same;low;82;132;132;j;n;1;j;n;1544.5999999992637
2b4x7u#;109;False;2;P != T2?;ST1_high_3;1;Same;high;70;96;70;j;n;0;f;n;337.4140999985684
2b4x7u#;110;False;2;P != T1?;ST2_high_5;2;Same;high;96;132;132;j;n;1;j;n;1181.803299999956
2b4x7u#;111;False;2;P != T1?;ST1_high_2;1;Same;high;112;82;112;j;n;0;j;v;2275.224999999409
2b4x7u#;112;False;2;P != T1?;DT1_high_6;1;Different;high;132;96;154;j;n;0;f;n;1086.5855000010924
2b4x7u#;113;False;2;P != T1?;ST2_low_6;2;Same;low;154;96;96;j;n;0;f;n;1610.8578000003035
2b4x7u#;114;False;2;P != T1?;ST2_high_2;2;Same;high;112;82;82;j;n;1;j;n;2595.9596000011516
2b4x7u#;115;False;2;P != T2?;ST2_low_2;2;Same;low;132;82;82;j;n;1;f;n;1963.9605000011215
2b4x7u#;116;False;2;P != T2?;ST1_low_4;1;Same;low;112;70;112;j;n;1;j;n;1623.2502000002569
2b4x7u#;117;False;2;P != T1?;ST2_high_1;2;Same;high;82;112;112;j;n;0;f;n;1928.9936000004673
2b4x7u#;118;False;2;P != T2?;ST1_high_3;1;Same;high;70;96;70;j;n;0;f;n;5744.635399998515
2b4x7u#;119;False;2;P != T2?;ST1_high_1;1;Same;high;82;112;82;j;n;1;j;n;805.9169999996811
2b4x7u#;120;False;2;P != T1?;ST1_high_5;1;Same;high;96;132;96;j;n;0;j;v;4317.558200000349
2b4x7u#;121;False;2;P != T2?;ST2_high_6;2;Same;high;132;96;96;j;n;0;j;n;1986.442800000077
2b4x7u#;122;False;2;P != T1?;ST1_high_4;1;Same;high;96;70;96;j;n;0;j;n;2372.1802000000025
2b4x7u#;123;False;2;P != T2?;STb_2;0;Same;None;70;70;70;j;n;1;f;n;2244.3039000008866
2b4x7u#;124;False;2;P != T1?;ST1_high_6;1;Same;high;132;96;132;j;n;1;f;n;3754.906899999696
2b4x7u#;125;False;2;P != T2?;ST1_low_4;1;Same;low;112;70;112;j;n;0;f;n;690.7963999983622
2b4x7u#;126;False;2;P != T2?;ST1_high_2;1;Same;high;112;82;112;j;n;0;f;n;1262.6227999990078
2b4x7u#;127;False;2;P != T2?;ST2_low_5;2;Same;low;96;154;154;j;n;1;f;n;792.7553999998054
2b4x7u#;128;False;2;P != T1?;ST1_low_6;1;Same;low;154;96;154;j;n;1;f;n;2265.466799999558
2b4x7u#;129;False;2;P != T2?;ST2_low_3;2;Same;low;70;112;112;j;n;0;j;v;3696.1953999998514
2b4x7u#;130;False;2;P != T2?;ST2_low_2;2;Same;low;132;82;82;j;n;1;f;n;2979.4842999999673
2b4x7u#;131;False;2;P != T1?;ST2_low_4;2;Same;low;112;70;70;j;n;1;j;n;855.6412999987515
2b4x7u#;132;False;2;P != T1?;ST2_high_4;2;Same;high;96;70;70;j;n;0;f;n;1617.185499999323
2b4x7u#;133;False;2;P != T2?;ST1_low_3;1;Same;low;70;112;70;j;n;0;f;n;1336.9861000010133
2b4x7u#;134;False;2;P != T2?;ST2_low_6;2;Same;low;154;96;96;j;n;1;f;n;4436.551800001325
2b4x7u#;135;False;2;P != T2?;DT2_low_3;2;Different;low;70;112;132;j;n;0;f;n;931.3313000002381
2b4x7u#;136;False;2;P != T2?;ST1_low_3;1;Same;low;70;112;70;j;n;1;j;b;1688.7532999990071
2b4x7u#;137;False;2;P != T1?;STb_8;0;Same;None;180;180;180;j;n;1;f;n;465.610100000049
2b4x7u#;138;False;2;P != T2?;ST1_high_2;1;Same;high;112;82;112;j;n;1;j;v;3751.505199999883
2b4x7u#;139;False;2;P != T2?;ST2_high_1;2;Same;high;82;112;112;j;n;1;f;n;2065.761500000008
2b4x7u#;140;False;2;P != T1?;ST2_high_6;2;Same;high;132;96;96;j;n;1;j;n;729.1220000006433
2b4x7u#;141;False;2;P != T1?;DT2_low_2;2;Different;low;132;82;70;j;n;1;j;n;884.0299999992567
2b4x7u#;142;False;2;P != T2?;DT2_high_1;2;Different;high;82;112;132;j;n;1;j;n;1881.9758999998157
2b4x7u#;143;False;2;P != T1?;ST2_low_5;2;Same;low;96;154;154;j;n;1;j;n;1302.978699999585
2b4x7u#;144;False;2;P != T1?;ST2_low_2;2;Same;low;132;82;82;j;n;1;j;n;589.1449999999168
2b4x7u#;145;False;2;P != T2?;ST1_low_2;1;Same;low;132;82;132;j;n;1;j;n;830.9040000003733
2b4x7u#;146;False;2;P != T1?;ST1_high_2;1;Same;high;112;82;112;j;n;0;j;n;438.5901000005106
2b4x7u#;147;False;2;P != T2?;ST2_high_4;2;Same;high;96;70;70;j;n;1;f;n;1073.4011000004102
2b4x7u#;148;False;2;P != T1?;DT2_low_4;2;Different;low;112;70;60;j;n;1;j;n;3665.148899999622
2b4x7u#;149;False;2;P != T1?;ST1_high_1;1;Same;high;82;112;82;j;n;1;f;n;1654.3837999997777
2b4x7u#;150;False;2;P != T1?;ST2_high_4;2;Same;high;96;70;70;j;n;0;f;b;1855.7522999999492
2b4x7u#;151;False;2;P != T2?;DT2_low_6;2;Different;low;154;96;82;j;n;0;f;n;1850.093900000502
2b4x7u#;152;False;2;P != T2?;ST2_low_6;2;Same;low;154;96;96;j;n;1;f;n;1343.475400000898
2b4x7u#;153;False;2;P != T2?;ST1_low_5;1;Same;low;96;154;96;j;n;1;j;n;1590.3140999998868
2b4x7u#;154;False;2;P != T2?;ST1_low_3;1;Same;low;70;112;70;j;n;0;f;n;2420.1069999999163
2b4x7u#;155;False;2;P != T1?;ST1_high_2;1;Same;high;112;82;112;j;n;1;f;n;896.3132000008045
2b4x7u#;156;False;2;P != T2?;ST2_low_1;2;Same;low;82;132;132;j;n;0;j;n;2212.5421999990067
2b4x7u#;157;False;2;P != T2?;STb_3;0;Same;None;82;82;82;j;n;1;f;n;1295.392100000754
2b4x7u#;158;False;2;P != T2?;DT1_low_1;1;Different;low;82;132;70;j;n;1;j;n;1210.4287999991357
2b4x7u#;159;False;2;P != T1?;ST2_high_3;2;Same;high;70;96;96;j;n;0;f;b;1634.0739000006579
2b4x7u#;160;False;2;P != T1?;ST1_low_1;1;Same;low;82;132;82;j;n;1;f;n;835.5642999995325
2b4x7u#;161;False;2;P != T2?;ST1_high_5;1;Same;high;96;132;96;j;n;1;j;n;701.2021999998979
2b4x7u#;162;False;2;P != T1?;ST1_low_6;1;Same;low;154;96;154;j;n;1;f;n;956.1369000002742
2b4x7u#;163;False;2;P != T1?;ST1_low_5;1;Same;low;96;154;96;j;n;1;f;n;1568.4506999987207
2b4x7u#;164;False;2;P != T2?;ST2_high_1;2;Same;high;82;112;112;j;n;0;j;n;788.654600000882
2b4x7u#;165;False;2;P != T1?;ST2_high_4;2;Same;high;96;70;70;j;n;0;f;n;2579.8645000013494
2b4x7u#;166;False;2;P != T2?;ST2_low_5;2;Same;low;96;154;154;j;n;1;f;n;797.5093999993987
2b4x7u#;167;False;2;P != T2?;DT2_high_6;2;Different;high;132;96;82;j;n;0;f;n;1261.9311999987985
2b4x7u#;168;False;2;P != T2?;ST2_high_2;2;Same;high;112;82;82;j;n;1;f;n;2682.982299998912
2b4x7u#;169;False;2;P != T2?;ST2_low_3;2;Same;low;70;112;112;j;n;1;f;n;938.6056000003009
2b4x7u#;170;False;2;P != T1?;ST1_low_2;1;Same;low;132;82;132;j;n;1;f;n;866.5278999997099
2b4x7u#;171;False;2;P != T1?;DT2_high_1;2;Different;high;82;112;132;j;n;0;f;v;1889.8246999997355
2b4x7u#;172;False;2;P != T1?;ST2_low_4;2;Same;low;112;70;70;j;n;1;j;n;1078.4187999997812
2b4x7u#;173;False;2;P != T1?;ST1_low_3;1;Same;low;70;112;70;j;n;1;f;n;2121.7262000009214
2b4x7u#;174;False;2;P != T1?;ST1_high_3;1;Same;high;70;96;70;j;n;1;f;n;1634.840599999734
2b4x7u#;175;False;2;P != T2?;ST1_low_5;1;Same;low;96;154;96;j;n;0;f;n;975.1957000007678
2b4x7u#;176;False;2;P != T2?;ST1_low_6;1;Same;low;154;96;154;j;n;1;j;n;727.5997000015195
