p_code;trial_nr;practice;block;question;condition;seqPos;Same_or_Diff;ITS;T1_hz;T2_hz;P_hz;yes_key;sure_key;correct;yes_no;rating;resp_time
i7#1jw5;1;True;1;P = T1?;STb_4;0;Same;None;96;96;96;j;n;0;f;b;119954.13069999995
i7#1jw5;2;True;1;P = T2?;STb_7;0;Same;None;154;154;154;j;n;1;j;b;9475.281900002301
i7#1jw5;3;True;1;P = T1?;DT2_low_3;2;Different;low;70;112;132;j;n;1;f;v;4714.5176000012725
i7#1jw5;4;True;1;P = T2?;ST1_low_1;1;Same;low;82;132;82;j;n;1;f;n;4511.205400001927
i7#1jw5;5;True;1;P = T2?;DT1_low_5;1;Different;low;96;154;82;j;n;0;j;v;3714.304200002516
i7#1jw5;6;True;1;P = T2?;DT2_low_5;2;Different;low;96;154;180;j;n;0;j;n;2313.249499999074
i7#1jw5;7;True;1;P = T1?;ST2_low_2;2;Same;low;132;82;82;j;n;1;f;n;3148.7409000001207
i7#1jw5;8;True;1;P = T1?;ST1_high_6;1;Same;high;132;96;132;j;n;1;j;n;2452.9039000008197
i7#1jw5;9;True;1;P = T2?;STb_6;0;Same;None;132;132;132;j;n;1;j;b;1505.4119999986142
i7#1jw5;10;True;1;P = T2?;ST2_low_4;2;Same;low;112;70;70;j;n;1;j;n;1361.9517999977688
i7#1jw5;11;True;1;P = T2?;ST2_low_4;2;Same;low;112;70;70;j;n;1;j;n;1511.4323000016157
i7#1jw5;12;True;1;P = T1?;ST2_low_6;2;Same;low;154;96;96;j;n;0;j;n;977.0367000019178
i7#1jw5;13;True;1;P = T1?;DT1_high_6;1;Different;high;132;96;154;j;n;1;f;n;1068.0592999997316
i7#1jw5;14;True;1;P = T1?;STb_8;0;Same;None;180;180;180;j;n;1;j;n;1532.9603000027419
i7#1jw5;15;True;1;P = T2?;ST1_high_2;1;Same;high;112;82;112;j;n;1;f;n;1380.7145000027958
i7#1jw5;16;True;1;P = T1?;ST1_high_3;1;Same;high;70;96;70;j;n;1;j;n;1496.0675000002084
p_code;trial_nr;practice;block;question;condition;seqPos;Same_or_Diff;ITS;T1_hz;T2_hz;P_hz;yes_key;sure_key;correct;yes_no;rating;resp_time
i7#1jw5;1;False;1;P = T1?;ST1_high_2;1;Same;high;112;82;112;j;n;1;j;b;1446.9863000012992
i7#1jw5;2;False;1;P = T1?;STb_5;0;Same;None;112;112;112;j;n;1;j;b;1252.296099999512
i7#1jw5;3;False;1;P = T2?;ST2_high_3;2;Same;high;70;96;96;j;n;1;j;n;1217.1463000013318
i7#1jw5;4;False;1;P = T1?;ST1_low_3;1;Same;low;70;112;70;j;n;1;j;n;1175.7812000032573
i7#1jw5;5;False;1;P = T2?;ST1_low_4;1;Same;low;112;70;112;j;n;1;f;n;1291.5466999984346
i7#1jw5;6;False;1;P = T2?;STb_4;0;Same;None;96;96;96;j;n;1;j;b;1315.6039000023156
i7#1jw5;7;False;1;P = T2?;ST2_high_2;2;Same;high;112;82;82;j;n;1;j;n;1412.4262999976054
i7#1jw5;8;False;1;P = T1?;DT1_high_6;1;Different;high;132;96;154;j;n;1;f;v;2583.383400000457
i7#1jw5;9;False;1;P = T1?;ST1_high_4;1;Same;high;96;70;96;j;n;1;j;b;3025.0916999975743
i7#1jw5;10;False;1;P = T1?;ST2_low_1;2;Same;low;82;132;132;j;n;1;f;n;1074.4459000015922
i7#1jw5;11;False;1;P = T1?;ST1_low_2;1;Same;low;132;82;132;j;n;1;j;n;1246.285799999896
i7#1jw5;12;False;1;P = T1?;ST1_low_1;1;Same;low;82;132;82;j;n;0;f;n;1205.7078999969235
i7#1jw5;13;False;1;P = T1?;ST1_low_1;1;Same;low;82;132;82;j;n;1;j;b;1228.891399998247
i7#1jw5;14;False;1;P = T2?;ST1_low_1;1;Same;low;82;132;82;j;n;1;f;n;1715.1087999991432
i7#1jw5;15;False;1;P = T2?;ST1_high_4;1;Same;high;96;70;96;j;n;1;f;n;618.8767999992706
i7#1jw5;16;False;1;P = T1?;STb_1;0;Same;None;60;60;60;j;n;1;j;n;669.9336000019684
i7#1jw5;17;False;1;P = T2?;ST2_low_5;2;Same;low;96;154;154;j;n;1;j;n;1057.3045999990427
i7#1jw5;18;False;1;P = T1?;ST2_high_3;2;Same;high;70;96;96;j;n;1;f;v;1593.4519000002183
i7#1jw5;19;False;1;P = T1?;ST2_high_2;2;Same;high;112;82;82;j;n;1;f;n;1573.2018999988213
i7#1jw5;20;False;1;P = T2?;STb_6;0;Same;None;132;132;132;j;n;1;j;v;2949.366299999383
i7#1jw5;21;False;1;P = T2?;ST2_low_2;2;Same;low;132;82;82;j;n;1;j;n;1003.0771999990975
i7#1jw5;22;False;1;P = T2?;ST1_high_1;1;Same;high;82;112;82;j;n;0;j;v;1766.3723999976355
i7#1jw5;23;False;1;P = T1?;ST2_high_1;2;Same;high;82;112;112;j;n;1;f;n;1064.5086000004085
i7#1jw5;24;False;1;P = T2?;ST2_high_5;2;Same;high;96;132;132;j;n;1;j;n;1091.4264000020921
i7#1jw5;25;False;1;P = T2?;ST1_low_1;1;Same;low;82;132;82;j;n;1;f;n;1004.3579999983194
i7#1jw5;26;False;1;P = T1?;ST2_low_5;2;Same;low;96;154;154;j;n;1;f;v;2198.116999999911
i7#1jw5;27;False;1;P = T1?;ST2_low_2;2;Same;low;132;82;82;j;n;1;f;n;1134.5641000007163
i7#1jw5;28;False;1;P = T2?;ST1_high_2;1;Same;high;112;82;112;j;n;1;f;n;1181.3275999993493
i7#1jw5;29;False;1;P = T1?;ST1_high_5;1;Same;high;96;132;96;j;n;1;j;v;4100.575399999798
i7#1jw5;30;False;1;P = T2?;ST1_low_4;1;Same;low;112;70;112;j;n;1;f;n;1118.713600000774
i7#1jw5;31;False;1;P = T2?;STb_7;0;Same;None;154;154;154;j;n;1;j;b;1011.7437000008067
i7#1jw5;32;False;1;P = T1?;ST1_low_4;1;Same;low;112;70;112;j;n;1;j;b;1157.5029999985418
i7#1jw5;33;False;1;P = T2?;ST2_high_4;2;Same;high;96;70;70;j;n;1;j;n;1598.336200000631
i7#1jw5;34;False;1;P = T1?;ST1_high_4;1;Same;high;96;70;96;j;n;0;f;v;2973.6703999988094
i7#1jw5;35;False;1;P = T1?;ST1_low_2;1;Same;low;132;82;132;j;n;1;j;v;3331.4276999990398
i7#1jw5;36;False;1;P = T2?;ST1_high_4;1;Same;high;96;70;96;j;n;0;j;n;973.0479999998352
i7#1jw5;37;False;1;P = T2?;ST2_high_5;2;Same;high;96;132;132;j;n;1;j;n;1227.463600000192
i7#1jw5;38;False;1;P = T2?;ST2_high_6;2;Same;high;132;96;96;j;n;1;j;b;866.2057000001369
i7#1jw5;39;False;1;P = T2?;ST1_low_1;1;Same;low;82;132;82;j;n;1;f;b;1532.0396999995864
i7#1jw5;40;False;1;P = T1?;ST1_high_6;1;Same;high;132;96;132;j;n;1;j;b;1370.6272999988869
i7#1jw5;41;False;1;P = T2?;ST1_low_6;1;Same;low;154;96;154;j;n;0;j;n;885.2881000020716
i7#1jw5;42;False;1;P = T1?;ST1_low_4;1;Same;low;112;70;112;j;n;1;j;b;1318.0649999994785
i7#1jw5;43;False;1;P = T1?;ST1_low_4;1;Same;low;112;70;112;j;n;1;j;n;1155.5523999995785
i7#1jw5;44;False;1;P = T2?;ST2_low_1;2;Same;low;82;132;132;j;n;1;j;n;1041.8776000005892
i7#1jw5;45;False;1;P = T1?;ST2_high_6;2;Same;high;132;96;96;j;n;0;j;n;501.69459999960964
i7#1jw5;46;False;1;P = T1?;ST2_high_5;2;Same;high;96;132;132;j;n;0;j;n;960.8906000030402
i7#1jw5;47;False;1;P = T1?;ST2_high_6;2;Same;high;132;96;96;j;n;0;j;b;1045.9746999986237
i7#1jw5;48;False;1;P = T1?;ST1_low_3;1;Same;low;70;112;70;j;n;1;j;n;999.3611000027158
i7#1jw5;49;False;1;P = T2?;ST1_high_2;1;Same;high;112;82;112;j;n;1;f;n;1306.0561999991478
i7#1jw5;50;False;1;P = T1?;DT2_low_6;2;Different;low;154;96;82;j;n;1;f;n;1380.3782000031788
i7#1jw5;51;False;1;P = T1?;ST1_low_6;1;Same;low;154;96;154;j;n;1;j;b;1329.594900002121
i7#1jw5;52;False;1;P = T2?;ST2_low_1;2;Same;low;82;132;132;j;n;0;f;v;3988.2682999996177
i7#1jw5;53;False;1;P = T1?;ST1_high_3;1;Same;high;70;96;70;j;n;1;j;v;2840.410200002225
i7#1jw5;54;False;1;P = T1?;DT1_high_3;1;Different;high;70;96;60;j;n;1;f;b;1476.4047999997274
i7#1jw5;55;False;1;P = T2?;ST2_low_4;2;Same;low;112;70;70;j;n;1;j;b;922.7217000006931
i7#1jw5;56;False;1;P = T1?;ST1_high_5;1;Same;high;96;132;96;j;n;1;j;n;1303.682600002503
i7#1jw5;57;False;1;P = T1?;ST1_low_5;1;Same;low;96;154;96;j;n;0;f;b;1852.620499998011
i7#1jw5;58;False;1;P = T2?;ST1_low_2;1;Same;low;132;82;132;j;n;1;f;n;1223.950200001127
i7#1jw5;59;False;1;P = T1?;ST2_low_3;2;Same;low;70;112;112;j;n;1;f;n;1150.5734999991546
i7#1jw5;60;False;1;P = T2?;ST1_low_5;1;Same;low;96;154;96;j;n;1;f;v;2977.0515999989584
i7#1jw5;61;False;1;P = T1?;ST1_high_6;1;Same;high;132;96;132;j;n;1;j;v;1910.428299997875
i7#1jw5;62;False;1;P = T2?;ST2_high_6;2;Same;high;132;96;96;j;n;1;j;b;1152.0008000006783
i7#1jw5;63;False;1;P = T2?;ST2_high_2;2;Same;high;112;82;82;j;n;1;j;n;1076.3580999991973
i7#1jw5;64;False;1;P = T1?;STb_2;0;Same;None;70;70;70;j;n;1;j;n;971.2760000002163
i7#1jw5;65;False;1;P = T1?;ST2_low_1;2;Same;low;82;132;132;j;n;1;f;n;1318.6253999992914
i7#1jw5;66;False;1;P = T2?;STb_5;0;Same;None;112;112;112;j;n;1;j;n;1343.5600999982853
i7#1jw5;67;False;1;P = T2?;ST1_high_1;1;Same;high;82;112;82;j;n;1;f;n;1150.349699997605
i7#1jw5;68;False;1;P = T2?;ST2_low_2;2;Same;low;132;82;82;j;n;1;j;n;1049.3277999994461
i7#1jw5;69;False;1;P = T1?;ST1_high_3;1;Same;high;70;96;70;j;n;1;j;b;1098.2930999998644
i7#1jw5;70;False;1;P = T1?;ST1_high_6;1;Same;high;132;96;132;j;n;1;j;v;2520.949500001734
i7#1jw5;71;False;1;P = T2?;ST1_low_3;1;Same;low;70;112;70;j;n;1;f;n;857.0622000006551
i7#1jw5;72;False;1;P = T2?;DT1_high_5;1;Different;high;96;132;82;j;n;0;j;b;1558.3039000011922
i7#1jw5;73;False;1;P = T1?;ST2_low_6;2;Same;low;154;96;96;j;n;0;j;b;1998.217399999703
i7#1jw5;74;False;1;P = T1?;ST2_high_4;2;Same;high;96;70;70;j;n;0;j;b;605.4340999980923
i7#1jw5;75;False;1;P = T1?;DT2_low_2;2;Different;low;132;82;70;j;n;1;f;b;1874.3265000011888
i7#1jw5;76;False;1;P = T2?;ST1_low_4;1;Same;low;112;70;112;j;n;1;f;b;1497.3307000000204
i7#1jw5;77;False;1;P = T1?;ST1_high_5;1;Same;high;96;132;96;j;n;0;f;b;1436.5531000003102
i7#1jw5;78;False;1;P = T1?;ST2_low_5;2;Same;low;96;154;154;j;n;0;j;n;1265.0953999982448
i7#1jw5;79;False;1;P = T2?;ST1_low_2;1;Same;low;132;82;132;j;n;1;f;n;1173.2737999991514
i7#1jw5;80;False;1;P = T1?;ST1_low_6;1;Same;low;154;96;154;j;n;0;f;n;1187.4357999986387
i7#1jw5;81;False;1;P = T2?;ST1_high_1;1;Same;high;82;112;82;j;n;1;f;n;1212.9576999977871
i7#1jw5;82;False;1;P = T2?;ST2_high_6;2;Same;high;132;96;96;j;n;1;j;v;2360.0101999982144
i7#1jw5;83;False;1;P = T2?;ST2_low_5;2;Same;low;96;154;154;j;n;1;j;v;1280.5573000005097
i7#1jw5;84;False;1;P = T2?;ST1_high_6;1;Same;high;132;96;132;j;n;1;f;n;1073.3020000006945
i7#1jw5;85;False;1;P = T2?;STb_3;0;Same;None;82;82;82;j;n;1;j;n;1323.875300000509
i7#1jw5;86;False;1;P = T1?;ST2_high_1;2;Same;high;82;112;112;j;n;1;f;n;1170.4238999991503
i7#1jw5;87;False;1;P = T2?;ST2_low_5;2;Same;low;96;154;154;j;n;1;j;n;1193.3796999983315
i7#1jw5;88;False;1;P = T1?;ST2_high_3;2;Same;high;70;96;96;j;n;0;j;b;1285.0194000020565
i7#1jw5;89;False;1;P = T2?;ST1_high_2;1;Same;high;112;82;112;j;n;1;f;n;1266.711000000214
i7#1jw5;90;False;1;P = T2?;ST1_low_6;1;Same;low;154;96;154;j;n;1;f;n;1056.4804000023287
i7#1jw5;91;False;1;P = T1?;ST1_high_4;1;Same;high;96;70;96;j;n;1;j;v;1827.7472000008856
i7#1jw5;92;False;1;P = T1?;ST2_low_4;2;Same;low;112;70;70;j;n;1;f;n;1125.7551000016974
i7#1jw5;93;False;1;P = T2?;ST2_high_1;2;Same;high;82;112;112;j;n;0;f;n;1109.617199999775
i7#1jw5;94;False;1;P = T2?;STb_1;0;Same;None;60;60;60;j;n;1;j;n;950.6065999994462
i7#1jw5;95;False;1;P = T1?;ST1_high_2;1;Same;high;112;82;112;j;n;1;j;b;1198.0104000031133
i7#1jw5;96;False;1;P = T1?;DT1_high_2;1;Different;high;112;82;132;j;n;0;j;v;1479.541300002893
i7#1jw5;97;False;1;P = T2?;DT2_low_5;2;Different;low;96;154;180;j;n;0;j;n;1735.2207000003546
i7#1jw5;98;False;1;P = T1?;ST1_high_1;1;Same;high;82;112;82;j;n;1;j;v;1862.2304999989865
i7#1jw5;99;False;1;P = T1?;ST1_high_1;1;Same;high;82;112;82;j;n;1;j;n;1251.2706000015896
i7#1jw5;100;False;1;P = T1?;ST2_low_4;2;Same;low;112;70;70;j;n;1;f;n;859.7034999984317
i7#1jw5;101;False;1;P = T2?;DT2_low_1;2;Different;low;82;132;154;j;n;0;j;n;1007.0621000013489
i7#1jw5;102;False;1;P = T2?;ST2_low_3;2;Same;low;70;112;112;j;n;1;j;v;2033.0709000008937
i7#1jw5;103;False;1;P = T2?;ST2_high_4;2;Same;high;96;70;70;j;n;0;f;v;1323.495600001479
i7#1jw5;104;False;1;P = T1?;ST2_low_3;2;Same;low;70;112;112;j;n;1;f;n;1057.4970999987272
i7#1jw5;105;False;1;P = T1?;ST1_high_1;1;Same;high;82;112;82;j;n;1;j;b;1280.5756000016117
i7#1jw5;106;False;1;P = T2?;STb_2;0;Same;None;70;70;70;j;n;1;j;n;1329.297399999632
i7#1jw5;107;False;1;P = T1?;ST2_low_1;2;Same;low;82;132;132;j;n;1;f;n;1158.9256999977806
i7#1jw5;108;False;1;P = T2?;ST2_high_3;2;Same;high;70;96;96;j;n;1;j;v;3372.9013000011037
i7#1jw5;109;False;1;P = T1?;ST2_low_4;2;Same;low;112;70;70;j;n;1;f;v;294.20849999951315
i7#1jw5;110;False;1;P = T2?;ST1_low_5;1;Same;low;96;154;96;j;n;0;j;n;1027.206799997657
i7#1jw5;111;False;1;P = T2?;ST1_low_5;1;Same;low;96;154;96;j;n;0;j;b;999.5925999974133
i7#1jw5;112;False;1;P = T2?;ST2_high_5;2;Same;high;96;132;132;j;n;1;j;n;977.3062000022037
i7#1jw5;113;False;1;P = T1?;ST2_high_4;2;Same;high;96;70;70;j;n;0;j;v;1939.4786000011663
i7#1jw5;114;False;1;P = T2?;STb_8;0;Same;None;180;180;180;j;n;1;j;n;743.5091999977885
i7#1jw5;115;False;1;P = T1?;ST2_high_5;2;Same;high;96;132;132;j;n;0;j;b;1170.4314000016893
i7#1jw5;116;False;1;P = T2?;ST1_high_4;1;Same;high;96;70;96;j;n;1;f;n;1238.8575000004494
i7#1jw5;117;False;1;P = T1?;ST1_low_1;1;Same;low;82;132;82;j;n;1;j;n;1024.36459999808
i7#1jw5;118;False;1;P = T1?;DT1_high_1;1;Different;high;82;112;70;j;n;0;j;b;1160.3812000030302
i7#1jw5;119;False;1;P = T2?;ST1_high_3;1;Same;high;70;96;70;j;n;1;f;n;956.2998000001244
i7#1jw5;120;False;1;P = T1?;ST1_low_2;1;Same;low;132;82;132;j;n;1;j;v;1557.4297999992268
i7#1jw5;121;False;1;P = T2?;ST2_low_6;2;Same;low;154;96;96;j;n;1;j;n;887.5188000019989
i7#1jw5;122;False;1;P = T2?;ST1_high_5;1;Same;high;96;132;96;j;n;1;f;n;1180.073800001992
i7#1jw5;123;False;1;P = T1?;STb_4;0;Same;None;96;96;96;j;n;1;j;v;3018.2332999975188
i7#1jw5;124;False;1;P = T2?;DT1_high_6;1;Different;high;132;96;154;j;n;1;f;v;2352.3354999997537
i7#1jw5;125;False;1;P = T1?;ST2_high_2;2;Same;high;112;82;82;j;n;1;f;b;1282.0483000032254
i7#1jw5;126;False;1;P = T1?;ST1_low_3;1;Same;low;70;112;70;j;n;1;j;n;1241.143799998099
i7#1jw5;127;False;1;P = T2?;ST1_high_6;1;Same;high;132;96;132;j;n;1;f;n;1058.7660999990476
i7#1jw5;128;False;1;P = T2?;DT1_low_2;1;Different;low;132;82;154;j;n;0;j;b;1688.0600000004051
i7#1jw5;129;False;1;P = T1?;STb_7;0;Same;None;154;154;154;j;n;1;j;v;2556.708800002525
i7#1jw5;130;False;1;P = T2?;ST1_low_6;1;Same;low;154;96;154;j;n;1;f;n;1223.1900000006135
i7#1jw5;131;False;1;P = T1?;ST2_high_1;2;Same;high;82;112;112;j;n;1;f;n;1091.7875000013737
i7#1jw5;132;False;1;P = T1?;ST2_low_2;2;Same;low;132;82;82;j;n;1;f;n;959.6574999995937
i7#1jw5;133;False;1;P = T1?;ST2_low_3;2;Same;low;70;112;112;j;n;1;f;n;1121.0692999993626
i7#1jw5;134;False;1;P = T2?;ST2_high_1;2;Same;high;82;112;112;j;n;0;f;n;1111.5573999995831
i7#1jw5;135;False;1;P = T2?;ST2_low_4;2;Same;low;112;70;70;j;n;1;j;n;1431.7379999993136
i7#1jw5;136;False;1;P = T1?;ST1_low_6;1;Same;low;154;96;154;j;n;0;f;b;1025.1147000017227
i7#1jw5;137;False;1;P = T2?;ST2_high_4;2;Same;high;96;70;70;j;n;1;j;n;2225.0033999989682
i7#1jw5;138;False;1;P = T2?;ST2_low_6;2;Same;low;154;96;96;j;n;1;j;b;961.3656000001356
i7#1jw5;139;False;1;P = T1?;ST1_low_5;1;Same;low;96;154;96;j;n;1;j;b;2605.229100001452
i7#1jw5;140;False;1;P = T1?;ST2_high_4;2;Same;high;96;70;70;j;n;1;f;n;941.8019000004278
i7#1jw5;141;False;1;P = T2?;DT1_low_3;1;Different;low;70;112;60;j;n;1;f;n;945.5329000011261
i7#1jw5;142;False;1;P = T2?;ST2_high_1;2;Same;high;82;112;112;j;n;1;j;n;1362.6780999984476
i7#1jw5;143;False;1;P = T2?;ST1_low_3;1;Same;low;70;112;70;j;n;1;f;n;1057.1180999977514
i7#1jw5;144;False;1;P = T2?;ST2_high_2;2;Same;high;112;82;82;j;n;1;j;n;1181.87780000153
i7#1jw5;145;False;1;P = T1?;STb_3;0;Same;None;82;82;82;j;n;0;f;v;1290.928400001576
i7#1jw5;146;False;1;P = T1?;ST2_high_6;2;Same;high;132;96;96;j;n;0;j;v;1497.2817999987456
i7#1jw5;147;False;1;P = T1?;ST2_low_5;2;Same;low;96;154;154;j;n;0;j;b;1241.2470999988727
i7#1jw5;148;False;1;P = T2?;ST1_low_2;1;Same;low;132;82;132;j;n;1;f;n;986.9636000003084
i7#1jw5;149;False;1;P = T2?;ST2_low_4;2;Same;low;112;70;70;j;n;0;f;n;1020.7990999988397
i7#1jw5;150;False;1;P = T1?;ST1_high_2;1;Same;high;112;82;112;j;n;1;j;v;4165.519099999074
i7#1jw5;151;False;1;P = T1?;ST1_low_5;1;Same;low;96;154;96;j;n;1;j;v;2344.2022999988694
i7#1jw5;152;False;1;P = T2?;ST1_low_3;1;Same;low;70;112;70;j;n;1;f;n;1501.861500000814
i7#1jw5;153;False;1;P = T1?;ST1_high_3;1;Same;high;70;96;70;j;n;0;f;v;2515.554899997369
i7#1jw5;154;False;1;P = T1?;ST2_low_2;2;Same;low;132;82;82;j;n;1;f;b;1177.291600000899
i7#1jw5;155;False;1;P = T2?;DT2_low_3;2;Different;low;70;112;132;j;n;0;j;n;911.6974999997183
i7#1jw5;156;False;1;P = T1?;STb_6;0;Same;None;132;132;132;j;n;0;f;v;1289.0014999975392
i7#1jw5;157;False;1;P = T2?;ST2_high_3;2;Same;high;70;96;96;j;n;1;j;n;912.515899999562
i7#1jw5;158;False;1;P = T2?;ST2_low_2;2;Same;low;132;82;82;j;n;1;j;n;959.1595000019879
i7#1jw5;159;False;1;P = T1?;STb_8;0;Same;None;180;180;180;j;n;0;f;n;1119.9753000000783
i7#1jw5;160;False;1;P = T2?;ST1_high_3;1;Same;high;70;96;70;j;n;0;j;b;1078.5789000001387
i7#1jw5;161;False;1;P = T2?;ST1_high_3;1;Same;high;70;96;70;j;n;0;j;n;1011.842699997942
i7#1jw5;162;False;1;P = T2?;ST1_high_5;1;Same;high;96;132;96;j;n;0;j;b;1008.9693000008992
i7#1jw5;163;False;1;P = T1?;DT1_low_3;1;Different;low;70;112;60;j;n;0;j;n;1584.3152000015834
i7#1jw5;164;False;1;P = T2?;DT2_high_3;2;Different;high;70;96;112;j;n;1;f;n;1041.3776999994298
i7#1jw5;165;False;1;P = T2?;ST2_low_3;2;Same;low;70;112;112;j;n;1;j;n;808.6275000023306
i7#1jw5;166;False;1;P = T1?;ST2_low_6;2;Same;low;154;96;96;j;n;0;j;n;887.982700001885
i7#1jw5;167;False;1;P = T1?;DT2_high_4;2;Different;high;96;70;60;j;n;1;f;b;1275.349899999128
i7#1jw5;168;False;1;P = T2?;ST2_low_3;2;Same;low;70;112;112;j;n;1;j;n;744.803800000227
i7#1jw5;169;False;1;P = T1?;ST2_high_5;2;Same;high;96;132;132;j;n;0;j;v;1507.101999999577
i7#1jw5;170;False;1;P = T2?;ST1_high_5;1;Same;high;96;132;96;j;n;1;f;n;1300.88799999794
i7#1jw5;171;False;1;P = T1?;ST2_low_6;2;Same;low;154;96;96;j;n;0;j;n;882.8954999989946
i7#1jw5;172;False;1;P = T2?;ST1_high_6;1;Same;high;132;96;132;j;n;1;f;v;2165.6858999995166
i7#1jw5;173;False;1;P = T1?;ST2_high_3;2;Same;high;70;96;96;j;n;1;f;n;1088.3869999997842
i7#1jw5;174;False;1;P = T2?;ST2_low_6;2;Same;low;154;96;96;j;n;1;j;b;3562.6330000013695
i7#1jw5;175;False;1;P = T1?;ST2_high_2;2;Same;high;112;82;82;j;n;1;f;n;1289.8883999987447
i7#1jw5;176;False;1;P = T2?;ST2_low_1;2;Same;low;82;132;132;j;n;1;j;n;1169.7612999996636
i7#1jw5;1;True;2;P != T2?;DT2_low_5;2;Different;low;96;154;180;j;n;0;f;v;2317.45360000059
i7#1jw5;2;True;2;P != T1?;STb_3;0;Same;None;82;82;82;j;n;1;f;n;3331.048500000179
i7#1jw5;3;True;2;P != T2?;ST1_low_4;1;Same;low;112;70;112;j;n;1;j;n;2089.606099998491
i7#1jw5;4;True;2;P != T1?;ST2_high_2;2;Same;high;112;82;82;j;n;1;j;n;1189.9016999996093
i7#1jw5;5;True;2;P != T2?;ST2_high_5;2;Same;high;96;132;132;j;n;1;f;n;1622.125000001688
i7#1jw5;6;True;2;P != T1?;STb_7;0;Same;None;154;154;154;j;n;1;f;n;1535.549500000343
i7#1jw5;7;True;2;P != T1?;ST1_high_6;1;Same;high;132;96;132;j;n;0;j;v;4103.074099999503
i7#1jw5;8;True;2;P != T2?;STb_3;0;Same;None;82;82;82;j;n;1;f;n;1026.9000999978743
i7#1jw5;9;True;2;P != T2?;DT1_high_5;1;Different;high;96;132;82;j;n;1;j;n;1158.865599998535
i7#1jw5;10;True;2;P != T2?;ST1_high_5;1;Same;high;96;132;96;j;n;0;f;n;1220.8642999976291
i7#1jw5;11;True;2;P != T2?;ST2_low_5;2;Same;low;96;154;154;j;n;1;f;n;2345.844399998896
i7#1jw5;12;True;2;P != T1?;ST1_low_5;1;Same;low;96;154;96;j;n;0;j;n;1011.0650999995414
i7#1jw5;13;True;2;P != T1?;ST2_high_5;2;Same;high;96;132;132;j;n;1;j;n;1881.2675999979547
i7#1jw5;14;True;2;P != T1?;DT2_high_6;2;Different;high;132;96;82;j;n;1;j;n;1321.757300000172
i7#1jw5;15;True;2;P != T2?;STb_2;0;Same;None;70;70;70;j;n;1;f;n;2110.337399997661
i7#1jw5;16;True;2;P != T1?;DT1_high_5;1;Different;high;96;132;82;j;n;1;j;n;1658.450200000516
i7#1jw5;1;False;2;P != T1?;ST1_low_6;1;Same;low;154;96;154;j;n;1;f;n;1834.544299999834
i7#1jw5;2;False;2;P != T1?;ST2_low_2;2;Same;low;132;82;82;j;n;1;j;n;2181.474299999536
i7#1jw5;3;False;2;P != T2?;ST2_high_2;2;Same;high;112;82;82;j;n;1;f;n;1737.2921999995015
i7#1jw5;4;False;2;P != T2?;ST1_high_2;1;Same;high;112;82;112;j;n;1;j;b;1461.949699998513
i7#1jw5;5;False;2;P != T1?;ST2_low_3;2;Same;low;70;112;112;j;n;1;j;n;3062.048699997831
i7#1jw5;6;False;2;P != T2?;ST1_high_2;1;Same;high;112;82;112;j;n;1;j;n;1198.8215000019409
i7#1jw5;7;False;2;P != T1?;STb_3;0;Same;None;82;82;82;j;n;1;f;n;1252.632600000652
i7#1jw5;8;False;2;P != T1?;ST2_high_1;2;Same;high;82;112;112;j;n;1;j;v;3056.034900000668
i7#1jw5;9;False;2;P != T2?;DT1_low_2;1;Different;low;132;82;154;j;n;1;j;n;1747.6644000016677
i7#1jw5;10;False;2;P != T2?;ST2_high_5;2;Same;high;96;132;132;j;n;1;f;v;1362.612500000978
i7#1jw5;11;False;2;P != T1?;ST1_high_2;1;Same;high;112;82;112;j;n;1;f;v;1585.6816000014078
i7#1jw5;12;False;2;P != T2?;ST1_low_6;1;Same;low;154;96;154;j;n;0;f;n;1353.6892000010994
i7#1jw5;13;False;2;P != T1?;ST2_high_6;2;Same;high;132;96;96;j;n;0;f;v;1098.643000001175
i7#1jw5;14;False;2;P != T1?;ST1_low_3;1;Same;low;70;112;70;j;n;1;f;n;1059.0964999973949
i7#1jw5;15;False;2;P != T2?;ST2_high_4;2;Same;high;96;70;70;j;n;1;f;n;1094.345900000917
i7#1jw5;16;False;2;P != T2?;ST2_high_3;2;Same;high;70;96;96;j;n;1;f;n;1498.198199999024
i7#1jw5;17;False;2;P != T2?;ST1_low_1;1;Same;low;82;132;82;j;n;1;j;v;3884.4751000033284
i7#1jw5;18;False;2;P != T1?;ST1_low_2;1;Same;low;132;82;132;j;n;1;f;n;1312.137500000972
i7#1jw5;19;False;2;P != T2?;STb_4;0;Same;None;96;96;96;j;n;1;f;n;1661.9627000000037
i7#1jw5;20;False;2;P != T1?;ST1_low_4;1;Same;low;112;70;112;j;n;1;f;v;3533.835199999885
i7#1jw5;21;False;2;P != T1?;ST2_low_4;2;Same;low;112;70;70;j;n;1;j;n;1492.7061999987927
i7#1jw5;22;False;2;P != T1?;ST1_high_1;1;Same;high;82;112;82;j;n;1;f;n;1257.5131000012334
i7#1jw5;23;False;2;P != T1?;ST1_low_1;1;Same;low;82;132;82;j;n;1;f;n;1536.3213999989966
i7#1jw5;24;False;2;P != T1?;ST1_low_2;1;Same;low;132;82;132;j;n;1;f;n;1152.291200000036
i7#1jw5;25;False;2;P != T1?;STb_7;0;Same;None;154;154;154;j;n;0;j;n;2531.506499999523
i7#1jw5;26;False;2;P != T1?;ST2_low_3;2;Same;low;70;112;112;j;n;1;j;n;1665.72300000189
i7#1jw5;27;False;2;P != T1?;ST1_high_5;1;Same;high;96;132;96;j;n;0;j;n;2770.89899999919
i7#1jw5;28;False;2;P != T1?;ST2_low_2;2;Same;low;132;82;82;j;n;0;f;n;2517.255099999602
i7#1jw5;29;False;2;P != T2?;ST2_low_5;2;Same;low;96;154;154;j;n;0;j;n;1806.0146999996505
i7#1jw5;30;False;2;P != T2?;ST1_low_2;1;Same;low;132;82;132;j;n;0;f;v;2619.875799999136
i7#1jw5;31;False;2;P != T1?;ST1_low_3;1;Same;low;70;112;70;j;n;1;f;n;1168.5681000017212
i7#1jw5;32;False;2;P != T2?;ST1_low_5;1;Same;low;96;154;96;j;n;1;j;v;2829.8978000020725
i7#1jw5;33;False;2;P != T1?;STb_4;0;Same;None;96;96;96;j;n;1;f;b;3121.2887999972736
i7#1jw5;34;False;2;P != T2?;DT1_low_5;1;Different;low;96;154;82;j;n;0;f;b;1112.0870000013383
i7#1jw5;35;False;2;P != T2?;ST2_high_1;2;Same;high;82;112;112;j;n;1;f;b;1020.4962000025262
i7#1jw5;36;False;2;P != T2?;ST1_low_3;1;Same;low;70;112;70;j;n;1;j;b;2090.240999998059
i7#1jw5;37;False;2;P != T2?;ST1_low_5;1;Same;low;96;154;96;j;n;1;j;n;1482.4386000000231
i7#1jw5;38;False;2;P != T2?;ST1_high_3;1;Same;high;70;96;70;j;n;0;f;b;1600.2977999996801
i7#1jw5;39;False;2;P != T2?;ST2_high_2;2;Same;high;112;82;82;j;n;1;f;b;1000.7466000024579
i7#1jw5;40;False;2;P != T2?;ST2_high_1;2;Same;high;82;112;112;j;n;1;f;b;1342.486599998665
i7#1jw5;41;False;2;P != T2?;ST1_low_1;1;Same;low;82;132;82;j;n;1;j;n;1973.2253000001947
i7#1jw5;42;False;2;P != T2?;ST1_high_1;1;Same;high;82;112;82;j;n;0;f;b;1177.8008000001137
i7#1jw5;43;False;2;P != T2?;ST2_low_3;2;Same;low;70;112;112;j;n;1;f;b;1748.7016000013682
i7#1jw5;44;False;2;P != T2?;DT1_high_4;1;Different;high;96;70;112;j;n;0;f;b;5040.5907000022125
i7#1jw5;45;False;2;P != T2?;ST1_low_4;1;Same;low;112;70;112;j;n;1;j;n;1407.396400001744
i7#1jw5;46;False;2;P != T1?;ST2_low_5;2;Same;low;96;154;154;j;n;1;j;b;2352.2607000013522
i7#1jw5;47;False;2;P != T2?;ST1_high_1;1;Same;high;82;112;82;j;n;1;j;b;1558.7015000019164
i7#1jw5;48;False;2;P != T1?;STb_5;0;Same;None;112;112;112;j;n;1;f;b;1511.9661999997334
i7#1jw5;49;False;2;P != T2?;ST2_high_3;2;Same;high;70;96;96;j;n;1;f;b;1410.2254999997967
i7#1jw5;50;False;2;P != T1?;ST1_high_6;1;Same;high;132;96;132;j;n;1;f;b;3414.590300002601
i7#1jw5;51;False;2;P != T1?;ST2_high_2;2;Same;high;112;82;82;j;n;0;f;b;904.0883999987273
i7#1jw5;52;False;2;P != T2?;ST2_low_4;2;Same;low;112;70;70;j;n;1;f;n;985.4999000017415
i7#1jw5;53;False;2;P != T1?;ST1_low_4;1;Same;low;112;70;112;j;n;1;f;b;1436.866199997894
i7#1jw5;54;False;2;P != T2?;ST1_high_3;1;Same;high;70;96;70;j;n;1;j;b;1465.9236000006786
i7#1jw5;55;False;2;P != T1?;ST1_low_5;1;Same;low;96;154;96;j;n;0;j;v;1545.8211999975902
i7#1jw5;56;False;2;P != T1?;ST1_high_3;1;Same;high;70;96;70;j;n;1;f;n;1112.1935000010126
i7#1jw5;57;False;2;P != T2?;ST2_high_6;2;Same;high;132;96;96;j;n;1;f;n;1124.8551000026055
i7#1jw5;58;False;2;P != T2?;ST2_low_2;2;Same;low;132;82;82;j;n;1;f;n;1327.4466000002576
i7#1jw5;59;False;2;P != T2?;ST1_low_6;1;Same;low;154;96;154;j;n;0;f;v;1055.1975999987917
i7#1jw5;60;False;2;P != T2?;ST1_high_2;1;Same;high;112;82;112;j;n;0;f;n;1045.2444000002288
i7#1jw5;61;False;2;P != T2?;ST2_high_2;2;Same;high;112;82;82;j;n;1;f;n;1029.4809000006353
i7#1jw5;62;False;2;P != T2?;ST2_high_6;2;Same;high;132;96;96;j;n;1;f;n;937.4902000017755
i7#1jw5;63;False;2;P != T1?;ST1_low_6;1;Same;low;154;96;154;j;n;1;f;n;1414.4581000000471
i7#1jw5;64;False;2;P != T1?;ST2_low_1;2;Same;low;82;132;132;j;n;1;j;n;1683.9571999989857
i7#1jw5;65;False;2;P != T1?;ST2_high_4;2;Same;high;96;70;70;j;n;0;f;b;3473.0048999990686
i7#1jw5;66;False;2;P != T2?;ST2_low_1;2;Same;low;82;132;132;j;n;1;f;n;1023.3475999993971
i7#1jw5;67;False;2;P != T1?;ST1_high_4;1;Same;high;96;70;96;j;n;0;j;b;1679.2592000019795
i7#1jw5;68;False;2;P != T1?;ST1_high_2;1;Same;high;112;82;112;j;n;1;f;v;1619.4986000009521
i7#1jw5;69;False;2;P != T1?;ST1_high_1;1;Same;high;82;112;82;j;n;1;f;n;1398.45140000034
i7#1jw5;70;False;2;P != T1?;ST1_low_4;1;Same;low;112;70;112;j;n;1;f;b;1344.0557999965677
i7#1jw5;71;False;2;P != T1?;ST2_high_5;2;Same;high;96;132;132;j;n;0;f;v;3578.1490999979724
i7#1jw5;72;False;2;P != T1?;ST1_low_5;1;Same;low;96;154;96;j;n;1;f;v;1558.0219000003126
i7#1jw5;73;False;2;P != T2?;ST2_high_6;2;Same;high;132;96;96;j;n;1;f;n;1543.0401000012353
i7#1jw5;74;False;2;P != T2?;ST1_low_4;1;Same;low;112;70;112;j;n;1;j;n;1411.4430000008724
i7#1jw5;75;False;2;P != T2?;DT2_low_4;2;Different;low;112;70;60;j;n;0;f;n;1095.3554000006989
i7#1jw5;76;False;2;P != T2?;ST2_low_2;2;Same;low;132;82;82;j;n;1;f;b;1329.6500999967975
i7#1jw5;77;False;2;P != T1?;ST2_low_6;2;Same;low;154;96;96;j;n;0;f;b;1234.8710000005667
i7#1jw5;78;False;2;P != T1?;STb_8;0;Same;None;180;180;180;j;n;1;f;v;1758.4449999994831
i7#1jw5;79;False;2;P != T2?;STb_8;0;Same;None;180;180;180;j;n;1;f;v;1200.592000001052
i7#1jw5;80;False;2;P != T1?;ST2_high_3;2;Same;high;70;96;96;j;n;0;f;b;1371.4904999978899
i7#1jw5;81;False;2;P != T1?;ST2_high_4;2;Same;high;96;70;70;j;n;0;f;n;1098.385600002075
i7#1jw5;82;False;2;P != T1?;DT1_high_4;1;Different;high;96;70;112;j;n;0;f;b;1687.37659999897
i7#1jw5;83;False;2;P != T1?;ST1_low_1;1;Same;low;82;132;82;j;n;1;f;v;3617.6704999998037
i7#1jw5;84;False;2;P != T2?;ST1_low_1;1;Same;low;82;132;82;j;n;1;j;n;1596.9325000005483
i7#1jw5;85;False;2;P != T2?;ST2_low_6;2;Same;low;154;96;96;j;n;1;f;n;1231.1821000002965
i7#1jw5;86;False;2;P != T1?;ST1_low_2;1;Same;low;132;82;132;j;n;1;f;n;1182.1346999968227
i7#1jw5;87;False;2;P != T2?;DT1_high_1;1;Different;high;82;112;70;j;n;0;f;n;844.6542999990925
i7#1jw5;88;False;2;P != T2?;DT2_low_5;2;Different;low;96;154;180;j;n;1;j;n;1298.9801999974588
i7#1jw5;89;False;2;P != T2?;ST2_low_4;2;Same;low;112;70;70;j;n;1;f;n;1034.7703000006732
i7#1jw5;90;False;2;P != T2?;ST1_high_4;1;Same;high;96;70;96;j;n;1;j;b;2112.4860999989323
i7#1jw5;91;False;2;P != T2?;ST2_low_6;2;Same;low;154;96;96;j;n;0;j;n;1192.4986000012723
i7#1jw5;92;False;2;P != T2?;STb_2;0;Same;None;70;70;70;j;n;1;f;b;3533.972499997617
i7#1jw5;93;False;2;P != T1?;ST2_low_4;2;Same;low;112;70;70;j;n;0;f;n;1632.688199999393
i7#1jw5;94;False;2;P != T2?;ST1_low_3;1;Same;low;70;112;70;j;n;1;j;v;4643.505500000174
i7#1jw5;95;False;2;P != T2?;ST1_high_6;1;Same;high;132;96;132;j;n;1;j;v;1532.1805000021413
i7#1jw5;96;False;2;P != T1?;ST1_high_5;1;Same;high;96;132;96;j;n;1;f;b;1322.4219000003359
i7#1jw5;97;False;2;P != T1?;ST2_high_1;2;Same;high;82;112;112;j;n;0;f;n;1368.5595999995712
i7#1jw5;98;False;2;P != T1?;STb_2;0;Same;None;70;70;70;j;n;1;f;n;762.6607999991393
i7#1jw5;99;False;2;P != T2?;ST1_high_6;1;Same;high;132;96;132;j;n;0;f;n;810.4067999993276
i7#1jw5;100;False;2;P != T2?;ST1_high_6;1;Same;high;132;96;132;j;n;0;f;n;1628.0540000007022
i7#1jw5;101;False;2;P != T1?;ST2_low_1;2;Same;low;82;132;132;j;n;1;j;v;2338.2170000004407
i7#1jw5;102;False;2;P != T1?;STb_6;0;Same;None;132;132;132;j;n;1;f;v;1070.9514999980456
i7#1jw5;103;False;2;P != T1?;ST2_high_1;2;Same;high;82;112;112;j;n;1;j;v;2033.6398999970697
i7#1jw5;104;False;2;P != T2?;ST1_low_5;1;Same;low;96;154;96;j;n;0;f;b;946.9116000000213
i7#1jw5;105;False;2;P != T2?;ST2_low_1;2;Same;low;82;132;132;j;n;1;f;n;2180.897099999129
i7#1jw5;106;False;2;P != T2?;ST2_high_5;2;Same;high;96;132;132;j;n;0;j;v;3655.3674999995565
i7#1jw5;107;False;2;P != T1?;STb_1;0;Same;None;60;60;60;j;n;1;f;n;875.3106000003754
i7#1jw5;108;False;2;P != T2?;STb_6;0;Same;None;132;132;132;j;n;1;f;n;782.2481000002881
i7#1jw5;109;False;2;P != T1?;ST1_high_1;1;Same;high;82;112;82;j;n;1;f;v;1746.4139000003343
i7#1jw5;110;False;2;P != T1?;ST1_low_1;1;Same;low;82;132;82;j;n;1;f;b;1171.276000000944
i7#1jw5;111;False;2;P != T2?;ST2_low_6;2;Same;low;154;96;96;j;n;1;f;n;1276.2804999983928
i7#1jw5;112;False;2;P != T2?;ST1_high_5;1;Same;high;96;132;96;j;n;0;f;b;1773.0116999991878
i7#1jw5;113;False;2;P != T2?;ST2_high_4;2;Same;high;96;70;70;j;n;1;f;n;1056.024500001513
i7#1jw5;114;False;2;P != T1?;ST2_low_4;2;Same;low;112;70;70;j;n;1;j;b;1443.4456000017235
i7#1jw5;115;False;2;P != T1?;DT2_low_5;2;Different;low;96;154;180;j;n;1;j;v;3036.6342999986955
i7#1jw5;116;False;2;P != T2?;DT1_low_4;1;Different;low;112;70;132;j;n;1;j;n;1562.9570000019157
i7#1jw5;117;False;2;P != T1?;ST1_high_6;1;Same;high;132;96;132;j;n;1;f;v;3415.139900000213
i7#1jw5;118;False;2;P != T1?;ST2_low_2;2;Same;low;132;82;82;j;n;0;f;n;1593.849599998066
i7#1jw5;119;False;2;P != T2?;STb_3;0;Same;None;82;82;82;j;n;0;j;v;1833.4307999975863
i7#1jw5;120;False;2;P != T2?;ST2_high_4;2;Same;high;96;70;70;j;n;1;f;n;1444.2808000021614
i7#1jw5;121;False;2;P != T1?;DT1_low_2;1;Different;low;132;82;154;j;n;0;f;b;918.3039999988978
i7#1jw5;122;False;2;P != T2?;ST1_low_4;1;Same;low;112;70;112;j;n;1;j;n;1530.5033000004187
i7#1jw5;123;False;2;P != T1?;DT2_low_6;2;Different;low;154;96;82;j;n;0;f;b;1564.8242999996
i7#1jw5;124;False;2;P != T1?;ST2_high_2;2;Same;high;112;82;82;j;n;0;f;v;2804.2827999997826
i7#1jw5;125;False;2;P != T1?;ST2_low_1;2;Same;low;82;132;132;j;n;1;j;b;1707.689400001982
i7#1jw5;126;False;2;P != T2?;STb_1;0;Same;None;60;60;60;j;n;0;j;v;2764.5607000013115
i7#1jw5;127;False;2;P != T1?;ST1_low_3;1;Same;low;70;112;70;j;n;1;f;b;1651.8622999974468
i7#1jw5;128;False;2;P != T2?;ST2_low_3;2;Same;low;70;112;112;j;n;0;j;v;2019.71450000201
i7#1jw5;129;False;2;P != T1?;DT1_low_4;1;Different;low;112;70;132;j;n;1;j;v;4975.294399999257
i7#1jw5;130;False;2;P != T2?;ST1_low_6;1;Same;low;154;96;154;j;n;1;j;b;1662.2934999977588
i7#1jw5;131;False;2;P != T1?;ST2_high_6;2;Same;high;132;96;96;j;n;0;f;b;2559.5618999977887
i7#1jw5;132;False;2;P != T2?;ST1_high_5;1;Same;high;96;132;96;j;n;0;f;b;4885.331900000892
i7#1jw5;133;False;2;P != T1?;ST2_low_3;2;Same;low;70;112;112;j;n;1;j;b;1945.6231000003754
i7#1jw5;134;False;2;P != T2?;ST2_low_5;2;Same;low;96;154;154;j;n;1;f;n;5440.81400000141
i7#1jw5;135;False;2;P != T1?;ST2_low_6;2;Same;low;154;96;96;j;n;0;f;n;2070.4812000003585
i7#1jw5;136;False;2;P != T2?;ST1_high_4;1;Same;high;96;70;96;j;n;0;f;n;1247.0103000014205
i7#1jw5;137;False;2;P != T2?;STb_7;0;Same;None;154;154;154;j;n;0;j;n;2934.023999998317
i7#1jw5;138;False;2;P != T2?;ST1_high_3;1;Same;high;70;96;70;j;n;0;f;b;2971.7467999980727
i7#1jw5;139;False;2;P != T1?;ST1_low_5;1;Same;low;96;154;96;j;n;0;j;n;1061.0661999999138
i7#1jw5;140;False;2;P != T1?;ST1_high_3;1;Same;high;70;96;70;j;n;1;f;n;2081.978000001982
i7#1jw5;141;False;2;P != T1?;ST2_low_5;2;Same;low;96;154;154;j;n;0;f;b;1539.6419000026071
i7#1jw5;142;False;2;P != T1?;ST1_high_4;1;Same;high;96;70;96;j;n;0;j;b;1834.2735000005632
i7#1jw5;143;False;2;P != T2?;ST2_low_1;2;Same;low;82;132;132;j;n;1;f;n;1216.6186000031303
i7#1jw5;144;False;2;P != T2?;ST2_low_4;2;Same;low;112;70;70;j;n;1;f;n;1059.7648000002664
i7#1jw5;145;False;2;P != T2?;ST2_low_2;2;Same;low;132;82;82;j;n;1;f;n;999.836700000742
i7#1jw5;146;False;2;P != T1?;ST2_high_2;2;Same;high;112;82;82;j;n;1;j;b;1202.1306999995431
i7#1jw5;147;False;2;P != T2?;ST2_low_3;2;Same;low;70;112;112;j;n;1;f;b;2522.8657000006933
i7#1jw5;148;False;2;P != T2?;STb_5;0;Same;None;112;112;112;j;n;1;f;n;1590.3511999968032
i7#1jw5;149;False;2;P != T2?;ST1_high_4;1;Same;high;96;70;96;j;n;1;j;n;1364.5023999997647
i7#1jw5;150;False;2;P != T1?;ST1_high_6;1;Same;high;132;96;132;j;n;1;f;n;1417.9597000002104
i7#1jw5;151;False;2;P != T1?;ST1_high_3;1;Same;high;70;96;70;j;n;1;f;n;1335.0056999988738
i7#1jw5;152;False;2;P != T1?;ST2_high_3;2;Same;high;70;96;96;j;n;1;j;b;2768.961300000228
i7#1jw5;153;False;2;P != T2?;DT2_high_3;2;Different;high;70;96;112;j;n;0;f;b;1868.5538000027009
i7#1jw5;154;False;2;P != T1?;ST2_high_4;2;Same;high;96;70;70;j;n;1;j;b;2836.5369999992254
i7#1jw5;155;False;2;P != T1?;ST1_high_4;1;Same;high;96;70;96;j;n;0;j;b;1976.4611000027799
i7#1jw5;156;False;2;P != T2?;ST1_low_3;1;Same;low;70;112;70;j;n;1;j;b;1737.3479000016232
i7#1jw5;157;False;2;P != T1?;DT2_high_2;2;Different;high;112;82;70;j;n;0;f;n;1443.6103999978513
i7#1jw5;158;False;2;P != T1?;ST1_high_5;1;Same;high;96;132;96;j;n;1;f;n;941.0561000004236
i7#1jw5;159;False;2;P != T2?;ST2_high_5;2;Same;high;96;132;132;j;n;1;f;n;1244.8647999990499
i7#1jw5;160;False;2;P != T1?;ST2_high_3;2;Same;high;70;96;96;j;n;1;j;n;1293.2918999977119
i7#1jw5;161;False;2;P != T1?;DT1_high_1;1;Different;high;82;112;70;j;n;0;f;b;2033.9394000002358
i7#1jw5;162;False;2;P != T1?;ST2_high_5;2;Same;high;96;132;132;j;n;1;j;v;2975.121300001774
i7#1jw5;163;False;2;P != T1?;ST1_high_2;1;Same;high;112;82;112;j;n;1;f;b;1292.3817000009876
i7#1jw5;164;False;2;P != T2?;ST2_high_3;2;Same;high;70;96;96;j;n;1;f;n;829.5406999968691
i7#1jw5;165;False;2;P != T2?;ST1_high_5;1;Same;high;96;132;96;j;n;0;f;n;913.6550000002899
i7#1jw5;166;False;2;P != T2?;ST2_low_5;2;Same;low;96;154;154;j;n;1;f;n;941.6281999983767
i7#1jw5;167;False;2;P != T2?;ST1_high_1;1;Same;high;82;112;82;j;n;1;j;n;6541.098200003034
i7#1jw5;168;False;2;P != T1?;ST2_high_5;2;Same;high;96;132;132;j;n;1;j;n;1227.7358999999706
i7#1jw5;169;False;2;P != T1?;ST2_low_5;2;Same;low;96;154;154;j;n;1;j;v;2758.6574999986624
i7#1jw5;170;False;2;P != T1?;DT1_high_5;1;Different;high;96;132;82;j;n;0;f;v;2374.8880999992252
i7#1jw5;171;False;2;P != T1?;ST1_low_6;1;Same;low;154;96;154;j;n;1;f;n;714.0509999990172
i7#1jw5;172;False;2;P != T2?;ST1_low_2;1;Same;low;132;82;132;j;n;1;j;n;990.133600000263
i7#1jw5;173;False;2;P != T1?;ST2_low_6;2;Same;low;154;96;96;j;n;0;f;v;2479.1347999998834
i7#1jw5;174;False;2;P != T2?;ST1_low_2;1;Same;low;132;82;132;j;n;1;j;n;1967.3290999999153
i7#1jw5;175;False;2;P != T1?;ST2_high_6;2;Same;high;132;96;96;j;n;0;f;b;2107.0763999996416
i7#1jw5;176;False;2;P != T2?;ST2_high_1;2;Same;high;82;112;112;j;n;1;f;b;1738.2011999980023
