p_code;trial_nr;practice;block;question;condition;seqPos;Same_or_Diff;ITS;T1_hz;T2_hz;P_hz;yes_key;sure_key;correct;yes_no;rating;resp_time
ti0p37#;1;True;1;P != T1?;STb_8;0;Same;None;180;180;180;f;n;0;f;v;4168.170499999178
ti0p37#;2;True;1;P != T1?;ST2_low_5;2;Same;low;96;154;154;f;n;1;f;n;4199.367999999595
ti0p37#;3;True;1;P != T2?;ST2_high_4;2;Same;high;96;70;70;f;n;1;j;b;3059.0900000006513
ti0p37#;4;True;1;P != T1?;DT2_low_3;2;Different;low;70;112;132;f;n;1;f;v;2032.213499998761
ti0p37#;5;True;1;P != T1?;DT2_low_6;2;Different;low;154;96;82;f;n;1;f;v;2318.758200000957
ti0p37#;6;True;1;P != T1?;ST1_high_6;1;Same;high;132;96;132;f;n;1;j;v;1834.0982000008808
ti0p37#;7;True;1;P != T1?;ST1_high_5;1;Same;high;96;132;96;f;n;0;f;b;1831.3233999997465
ti0p37#;8;True;1;P != T2?;ST1_low_4;1;Same;low;112;70;112;f;n;0;j;b;3077.591000001121
ti0p37#;9;True;1;P != T2?;DT1_low_2;1;Different;low;132;82;154;f;n;0;j;v;1773.5701000001427
ti0p37#;10;True;1;P != T1?;STb_5;0;Same;None;112;112;112;f;n;0;f;b;2178.0780000008235
ti0p37#;11;True;1;P != T2?;STb_1;0;Same;None;60;60;60;f;n;0;f;v;3083.4906000000046
ti0p37#;12;True;1;P != T2?;DT1_high_6;1;Different;high;132;96;154;f;n;0;j;v;2488.2450999994035
ti0p37#;13;True;1;P != T2?;ST2_high_3;2;Same;high;70;96;96;f;n;1;j;v;2587.52000000095
ti0p37#;14;True;1;P != T1?;ST2_low_5;2;Same;low;96;154;154;f;n;1;f;b;1575.5645000008371
ti0p37#;15;True;1;P != T2?;STb_4;0;Same;None;96;96;96;f;n;1;j;n;3495.422200001485
ti0p37#;16;True;1;P != T2?;ST1_high_4;1;Same;high;96;70;96;f;n;1;f;n;1700.1101000005292
p_code;trial_nr;practice;block;question;condition;seqPos;Same_or_Diff;ITS;T1_hz;T2_hz;P_hz;yes_key;sure_key;correct;yes_no;rating;resp_time
ti0p37#;1;False;1;P != T2?;STb_5;0;Same;None;112;112;112;f;n;1;j;b;1877.0887999999104
ti0p37#;2;False;1;P != T1?;DT2_low_5;2;Different;low;96;154;180;f;n;1;f;n;1877.3058999995555
ti0p37#;3;False;1;P != T1?;ST1_high_4;1;Same;high;96;70;96;f;n;1;j;b;3365.6977000009647
ti0p37#;4;False;1;P != T2?;ST2_high_5;2;Same;high;96;132;132;f;n;1;j;n;1992.6311999988684
ti0p37#;5;False;1;P != T2?;ST1_low_1;1;Same;low;82;132;82;f;n;1;f;b;5919.787000000724
ti0p37#;6;False;1;P != T2?;ST2_low_2;2;Same;low;132;82;82;f;n;1;j;b;2286.3170000000537
ti0p37#;7;False;1;P != T2?;ST1_high_6;1;Same;high;132;96;132;f;n;1;f;v;6017.672900001344
ti0p37#;8;False;1;P != T2?;ST2_low_3;2;Same;low;70;112;112;f;n;0;f;b;3026.7398999985744
ti0p37#;9;False;1;P != T1?;ST1_high_1;1;Same;high;82;112;82;f;n;0;f;b;2392.968699999983
ti0p37#;10;False;1;P != T1?;ST1_high_1;1;Same;high;82;112;82;f;n;1;j;b;1301.013199999943
ti0p37#;11;False;1;P != T2?;ST1_low_2;1;Same;low;132;82;132;f;n;1;f;n;2231.1043000008794
ti0p37#;12;False;1;P != T2?;DT2_high_2;2;Different;high;112;82;70;f;n;1;f;v;3497.275100000479
ti0p37#;13;False;1;P != T2?;ST2_low_6;2;Same;low;154;96;96;f;n;1;j;b;1547.5602000005892
ti0p37#;14;False;1;P != T2?;ST1_high_4;1;Same;high;96;70;96;f;n;1;f;n;2466.979099999662
ti0p37#;15;False;1;P != T2?;DT1_high_3;1;Different;high;70;96;60;f;n;0;j;b;1123.1035000000702
ti0p37#;16;False;1;P != T1?;STb_6;0;Same;None;132;132;132;f;n;0;f;n;4415.841100000762
ti0p37#;17;False;1;P != T1?;DT1_low_3;1;Different;low;70;112;60;f;n;1;f;b;1781.5927999999985
ti0p37#;18;False;1;P != T1?;ST1_high_5;1;Same;high;96;132;96;f;n;0;f;b;1947.9205999996339
ti0p37#;19;False;1;P != T1?;ST1_high_6;1;Same;high;132;96;132;f;n;1;j;n;3055.6395999992674
ti0p37#;20;False;1;P != T2?;DT2_low_6;2;Different;low;154;96;82;f;n;1;f;n;3036.416199998712
ti0p37#;21;False;1;P != T1?;ST2_low_1;2;Same;low;82;132;132;f;n;1;f;n;3397.2863999988476
ti0p37#;22;False;1;P != T1?;ST1_low_2;1;Same;low;132;82;132;f;n;0;f;n;2470.1235000011366
ti0p37#;23;False;1;P != T1?;ST1_low_4;1;Same;low;112;70;112;f;n;1;j;b;2056.350200000452
ti0p37#;24;False;1;P != T2?;ST1_low_4;1;Same;low;112;70;112;f;n;1;f;n;1445.1812999996037
ti0p37#;25;False;1;P != T1?;ST1_high_6;1;Same;high;132;96;132;f;n;1;j;n;1100.467700000081
ti0p37#;26;False;1;P != T1?;ST1_high_6;1;Same;high;132;96;132;f;n;0;f;b;5101.591199998438
ti0p37#;27;False;1;P != T1?;ST2_low_6;2;Same;low;154;96;96;f;n;1;f;n;1536.2232999996195
ti0p37#;28;False;1;P != T1?;ST2_low_5;2;Same;low;96;154;154;f;n;1;f;n;1190.7061000001704
ti0p37#;29;False;1;P != T1?;ST2_low_6;2;Same;low;154;96;96;f;n;1;f;n;1912.9835999992792
ti0p37#;30;False;1;P != T1?;ST2_low_4;2;Same;low;112;70;70;f;n;1;f;n;2470.196999998734
ti0p37#;31;False;1;P != T2?;STb_3;0;Same;None;82;82;82;f;n;0;f;v;3330.3947999993397
ti0p37#;32;False;1;P != T2?;STb_6;0;Same;None;132;132;132;f;n;0;f;v;1412.6190999995742
ti0p37#;33;False;1;P != T1?;ST1_low_1;1;Same;low;82;132;82;f;n;0;f;n;1122.1354999997857
ti0p37#;34;False;1;P != T2?;ST1_high_6;1;Same;high;132;96;132;f;n;1;f;v;3429.4547000008606
ti0p37#;35;False;1;P != T2?;ST1_low_2;1;Same;low;132;82;132;f;n;0;j;b;1463.8857999998436
ti0p37#;36;False;1;P != T1?;ST2_high_6;2;Same;high;132;96;96;f;n;1;f;n;994.8370999991312
ti0p37#;37;False;1;P != T1?;ST1_low_6;1;Same;low;154;96;154;f;n;0;f;b;1733.1381000003603
ti0p37#;38;False;1;P != T2?;ST1_low_3;1;Same;low;70;112;70;f;n;1;f;b;1271.610800000417
ti0p37#;39;False;1;P != T2?;ST2_high_3;2;Same;high;70;96;96;f;n;0;f;v;7456.66220000021
ti0p37#;40;False;1;P != T2?;STb_8;0;Same;None;180;180;180;f;n;1;j;b;1102.697199999966
ti0p37#;41;False;1;P != T1?;STb_5;0;Same;None;112;112;112;f;n;1;j;v;7102.619699999195
ti0p37#;42;False;1;P != T2?;ST1_high_2;1;Same;high;112;82;112;f;n;0;j;b;1264.7076999983256
ti0p37#;43;False;1;P != T1?;ST1_high_5;1;Same;high;96;132;96;f;n;0;f;n;1860.1638000000094
ti0p37#;44;False;1;P != T2?;STb_7;0;Same;None;154;154;154;f;n;1;j;b;1813.4438000015507
ti0p37#;45;False;1;P != T1?;ST1_low_1;1;Same;low;82;132;82;f;n;1;j;v;3269.9160000011034
ti0p37#;46;False;1;P != T2?;STb_4;0;Same;None;96;96;96;f;n;0;f;v;2820.823300000484
ti0p37#;47;False;1;P != T1?;ST2_low_4;2;Same;low;112;70;70;f;n;1;f;n;2798.4663999995973
ti0p37#;48;False;1;P != T2?;ST1_low_5;1;Same;low;96;154;96;f;n;1;f;b;1286.032800000612
ti0p37#;49;False;1;P != T2?;ST2_high_6;2;Same;high;132;96;96;f;n;1;j;b;1640.617299999576
ti0p37#;50;False;1;P != T1?;ST1_low_6;1;Same;low;154;96;154;f;n;1;j;b;3837.5875000001543
ti0p37#;51;False;1;P != T2?;ST1_high_5;1;Same;high;96;132;96;f;n;1;f;n;5189.810100000614
ti0p37#;52;False;1;P != T1?;ST2_high_4;2;Same;high;96;70;70;f;n;1;f;b;1224.3186000014248
ti0p37#;53;False;1;P != T2?;ST1_high_1;1;Same;high;82;112;82;f;n;1;f;b;909.5508000009431
ti0p37#;54;False;1;P != T1?;DT1_high_2;1;Different;high;112;82;132;f;n;1;f;v;2801.7700999989756
ti0p37#;55;False;1;P != T1?;ST2_high_4;2;Same;high;96;70;70;f;n;0;j;v;7170.917600000394
ti0p37#;56;False;1;P != T2?;ST1_low_1;1;Same;low;82;132;82;f;n;1;f;b;1675.1655000007304
ti0p37#;57;False;1;P != T2?;ST2_high_2;2;Same;high;112;82;82;f;n;1;j;n;1043.305600000167
ti0p37#;58;False;1;P != T1?;ST2_high_1;2;Same;high;82;112;112;f;n;1;f;v;7393.994699999894
ti0p37#;59;False;1;P != T2?;ST2_low_4;2;Same;low;112;70;70;f;n;1;j;b;2212.717000000339
ti0p37#;60;False;1;P != T1?;ST1_low_3;1;Same;low;70;112;70;f;n;1;j;b;2106.0407999993913
ti0p37#;61;False;1;P != T1?;ST1_low_2;1;Same;low;132;82;132;f;n;0;f;b;2207.5740000000224
ti0p37#;62;False;1;P != T1?;ST1_low_4;1;Same;low;112;70;112;f;n;0;f;n;1029.1665000004286
ti0p37#;63;False;1;P != T2?;ST2_low_1;2;Same;low;82;132;132;f;n;0;f;b;2912.8624000004493
ti0p37#;64;False;1;P != T1?;DT2_low_4;2;Different;low;112;70;60;f;n;1;f;b;890.6360000000859
ti0p37#;65;False;1;P != T1?;ST2_high_3;2;Same;high;70;96;96;f;n;1;f;n;898.7589999996999
ti0p37#;66;False;1;P != T2?;ST2_low_1;2;Same;low;82;132;132;f;n;0;f;v;2229.900300000736
ti0p37#;67;False;1;P != T1?;ST2_low_2;2;Same;low;132;82;82;f;n;1;f;b;886.231399999815
ti0p37#;68;False;1;P != T2?;ST2_low_4;2;Same;low;112;70;70;f;n;0;f;b;1876.5050000001793
ti0p37#;69;False;1;P != T2?;DT1_low_4;1;Different;low;112;70;132;f;n;1;f;v;1638.3252999985416
ti0p37#;70;False;1;P != T1?;ST1_high_3;1;Same;high;70;96;70;f;n;1;j;b;1484.6644999997807
ti0p37#;71;False;1;P != T1?;ST2_high_2;2;Same;high;112;82;82;f;n;1;f;b;2108.133199999429
ti0p37#;72;False;1;P != T1?;ST2_low_1;2;Same;low;82;132;132;f;n;1;f;b;1001.3952999997855
ti0p37#;73;False;1;P != T2?;ST2_low_6;2;Same;low;154;96;96;f;n;1;j;b;4028.7348000001657
ti0p37#;74;False;1;P != T2?;ST1_high_3;1;Same;high;70;96;70;f;n;1;f;b;1462.4953000002279
ti0p37#;75;False;1;P != T1?;ST2_low_5;2;Same;low;96;154;154;f;n;1;f;b;1085.7976999996026
ti0p37#;76;False;1;P != T1?;STb_8;0;Same;None;180;180;180;f;n;0;f;n;1218.226400000276
ti0p37#;77;False;1;P != T1?;DT2_high_4;2;Different;high;96;70;60;f;n;1;f;n;1563.9475000007224
ti0p37#;78;False;1;P != T1?;ST2_high_6;2;Same;high;132;96;96;f;n;0;j;v;6836.595299999317
ti0p37#;79;False;1;P != T1?;ST2_high_3;2;Same;high;70;96;96;f;n;1;f;n;1760.2012000006653
ti0p37#;80;False;1;P != T1?;ST2_high_5;2;Same;high;96;132;132;f;n;1;f;n;1793.4975999996823
ti0p37#;81;False;1;P != T1?;ST2_low_3;2;Same;low;70;112;112;f;n;1;f;n;1765.210499999739
ti0p37#;82;False;1;P != T2?;ST2_high_1;2;Same;high;82;112;112;f;n;0;f;b;2531.40269999858
ti0p37#;83;False;1;P != T2?;ST1_low_5;1;Same;low;96;154;96;f;n;1;f;n;1025.517599999148
ti0p37#;84;False;1;P != T1?;ST2_low_6;2;Same;low;154;96;96;f;n;1;f;b;1588.2739999997284
ti0p37#;85;False;1;P != T2?;ST1_high_1;1;Same;high;82;112;82;f;n;1;f;v;956.1367000005703
ti0p37#;86;False;1;P != T1?;DT1_low_4;1;Different;low;112;70;132;f;n;1;f;b;2137.8252000013163
ti0p37#;87;False;1;P != T2?;ST1_low_6;1;Same;low;154;96;154;f;n;1;f;n;1712.1903999995993
ti0p37#;88;False;1;P != T2?;ST2_low_3;2;Same;low;70;112;112;f;n;1;j;v;7967.911699999604
ti0p37#;89;False;1;P != T1?;DT2_low_2;2;Different;low;132;82;70;f;n;1;f;n;1399.2342000001372
ti0p37#;90;False;1;P != T1?;ST1_high_4;1;Same;high;96;70;96;f;n;0;f;b;1771.0443000014493
ti0p37#;91;False;1;P != T2?;STb_1;0;Same;None;60;60;60;f;n;1;j;b;1730.224000000817
ti0p37#;92;False;1;P != T1?;ST2_low_3;2;Same;low;70;112;112;f;n;1;f;v;9618.509100000665
ti0p37#;93;False;1;P != T2?;ST2_high_3;2;Same;high;70;96;96;f;n;1;j;n;763.7658000003285
ti0p37#;94;False;1;P != T2?;ST2_low_5;2;Same;low;96;154;154;f;n;1;j;n;2506.336200000078
ti0p37#;95;False;1;P != T2?;ST1_high_4;1;Same;high;96;70;96;f;n;1;f;n;1175.3272999994806
ti0p37#;96;False;1;P != T2?;ST2_high_2;2;Same;high;112;82;82;f;n;1;j;n;2928.5111999997753
ti0p37#;97;False;1;P != T2?;ST2_low_2;2;Same;low;132;82;82;f;n;1;j;n;1477.1352999996452
ti0p37#;98;False;1;P != T1?;ST2_low_1;2;Same;low;82;132;132;f;n;1;f;n;940.6395000005432
ti0p37#;99;False;1;P != T2?;ST2_low_4;2;Same;low;112;70;70;f;n;1;j;n;1234.9202999994304
ti0p37#;100;False;1;P != T1?;ST1_low_5;1;Same;low;96;154;96;f;n;1;j;n;781.9350999998278
ti0p37#;101;False;1;P != T2?;ST2_low_1;2;Same;low;82;132;132;f;n;1;j;v;2501.1415999997553
ti0p37#;102;False;1;P != T2?;ST1_high_6;1;Same;high;132;96;132;f;n;0;j;b;1289.8279999990336
ti0p37#;103;False;1;P != T2?;STb_2;0;Same;None;70;70;70;f;n;1;j;b;1988.867800000662
ti0p37#;104;False;1;P != T2?;ST2_high_4;2;Same;high;96;70;70;f;n;1;j;b;912.8246999989642
ti0p37#;105;False;1;P != T2?;ST2_low_5;2;Same;low;96;154;154;f;n;1;j;b;2095.8212000005005
ti0p37#;106;False;1;P != T1?;ST1_low_4;1;Same;low;112;70;112;f;n;1;j;b;4707.562699999471
ti0p37#;107;False;1;P != T2?;ST1_low_3;1;Same;low;70;112;70;f;n;1;f;n;1188.7722999999824
ti0p37#;108;False;1;P != T1?;STb_3;0;Same;None;82;82;82;f;n;1;j;n;674.4087000006402
ti0p37#;109;False;1;P != T1?;ST1_low_2;1;Same;low;132;82;132;f;n;0;f;v;842.276800000036
ti0p37#;110;False;1;P != T1?;STb_4;0;Same;None;96;96;96;f;n;0;f;n;926.1226999988139
ti0p37#;111;False;1;P != T1?;ST2_high_2;2;Same;high;112;82;82;f;n;1;f;n;1674.3741000009322
ti0p37#;112;False;1;P != T2?;ST1_low_6;1;Same;low;154;96;154;f;n;1;f;n;2128.634900000179
ti0p37#;113;False;1;P != T2?;ST1_high_2;1;Same;high;112;82;112;f;n;1;f;n;2116.7023999987578
ti0p37#;114;False;1;P != T2?;ST2_high_4;2;Same;high;96;70;70;f;n;1;j;n;717.3679999996239
ti0p37#;115;False;1;P != T2?;ST1_high_4;1;Same;high;96;70;96;f;n;0;j;b;697.0953000000009
ti0p37#;116;False;1;P != T1?;ST2_low_4;2;Same;low;112;70;70;f;n;0;j;v;1110.3791000005003
ti0p37#;117;False;1;P != T2?;DT1_high_5;1;Different;high;96;132;82;f;n;1;f;v;1853.211800000281
ti0p37#;118;False;1;P != T1?;ST1_low_3;1;Same;low;70;112;70;f;n;0;f;b;1846.176099999866
ti0p37#;119;False;1;P != T2?;ST1_low_4;1;Same;low;112;70;112;f;n;0;j;n;1188.1724000013492
ti0p37#;120;False;1;P != T2?;ST1_low_6;1;Same;low;154;96;154;f;n;1;f;n;947.255099999893
ti0p37#;121;False;1;P != T2?;ST2_high_5;2;Same;high;96;132;132;f;n;1;j;n;1146.3514000006398
ti0p37#;122;False;1;P != T2?;ST1_high_1;1;Same;high;82;112;82;f;n;1;f;b;3637.469000001147
ti0p37#;123;False;1;P != T2?;ST1_low_3;1;Same;low;70;112;70;f;n;1;f;v;2221.013199998197
ti0p37#;124;False;1;P != T1?;ST1_low_5;1;Same;low;96;154;96;f;n;0;f;v;3042.5476000000344
ti0p37#;125;False;1;P != T1?;ST2_low_5;2;Same;low;96;154;154;f;n;1;f;b;998.665200000687
ti0p37#;126;False;1;P != T1?;ST1_high_2;1;Same;high;112;82;112;f;n;1;j;b;1239.934600000197
ti0p37#;127;False;1;P != T2?;ST2_low_6;2;Same;low;154;96;96;f;n;1;j;b;1171.4311000014277
ti0p37#;128;False;1;P != T2?;ST1_low_5;1;Same;low;96;154;96;f;n;1;f;n;1057.3327999991307
ti0p37#;129;False;1;P != T1?;ST2_high_5;2;Same;high;96;132;132;f;n;1;f;n;2072.499299998526
ti0p37#;130;False;1;P != T1?;ST2_high_6;2;Same;high;132;96;96;f;n;1;f;v;4923.443799998495
ti0p37#;131;False;1;P != T1?;ST1_high_3;1;Same;high;70;96;70;f;n;1;j;b;801.358299999265
ti0p37#;132;False;1;P != T1?;ST1_high_4;1;Same;high;96;70;96;f;n;1;j;v;917.8171000003204
ti0p37#;133;False;1;P != T1?;STb_2;0;Same;None;70;70;70;f;n;0;f;b;3007.680900000196
ti0p37#;134;False;1;P != T1?;ST1_high_2;1;Same;high;112;82;112;f;n;0;f;v;978.5982000012154
ti0p37#;135;False;1;P != T2?;ST1_high_2;1;Same;high;112;82;112;f;n;0;j;b;1428.0849999995553
ti0p37#;136;False;1;P != T1?;STb_7;0;Same;None;154;154;154;f;n;0;f;n;843.3791999996174
ti0p37#;137;False;1;P != T1?;ST2_high_4;2;Same;high;96;70;70;f;n;1;f;b;2867.7905000004102
ti0p37#;138;False;1;P != T2?;ST2_high_1;2;Same;high;82;112;112;f;n;1;j;b;9534.089999999196
ti0p37#;139;False;1;P != T2?;ST2_high_6;2;Same;high;132;96;96;f;n;1;j;n;1369.43379999866
ti0p37#;140;False;1;P != T1?;DT2_high_3;2;Different;high;70;96;112;f;n;1;f;b;1392.7628999990702
ti0p37#;141;False;1;P != T2?;DT2_high_3;2;Different;high;70;96;112;f;n;0;j;n;3894.2502999998396
ti0p37#;142;False;1;P != T2?;ST2_low_2;2;Same;low;132;82;82;f;n;1;j;n;792.2503999998298
ti0p37#;143;False;1;P != T2?;ST1_low_4;1;Same;low;112;70;112;f;n;0;j;n;1006.2534000007872
ti0p37#;144;False;1;P != T2?;ST2_low_3;2;Same;low;70;112;112;f;n;0;f;n;678.7342999996326
ti0p37#;145;False;1;P != T2?;ST1_high_5;1;Same;high;96;132;96;f;n;0;j;n;590.4984000007971
ti0p37#;146;False;1;P != T1?;ST2_high_1;2;Same;high;82;112;112;f;n;0;j;n;1017.9965999996057
ti0p37#;147;False;1;P != T1?;ST1_high_2;1;Same;high;112;82;112;f;n;0;f;n;1431.0334000001603
ti0p37#;148;False;1;P != T1?;ST1_low_3;1;Same;low;70;112;70;f;n;1;j;n;945.2655999994022
ti0p37#;149;False;1;P != T2?;ST2_high_5;2;Same;high;96;132;132;f;n;1;j;n;2155.648199999632
ti0p37#;150;False;1;P != T2?;ST1_high_3;1;Same;high;70;96;70;f;n;1;f;n;4524.595999999292
ti0p37#;151;False;1;P != T2?;ST2_high_6;2;Same;high;132;96;96;f;n;1;j;n;1536.2910999992891
ti0p37#;152;False;1;P != T2?;ST2_high_2;2;Same;high;112;82;82;f;n;1;j;n;3817.926900001112
ti0p37#;153;False;1;P != T1?;ST1_low_5;1;Same;low;96;154;96;f;n;0;f;n;1329.4903999994858
ti0p37#;154;False;1;P != T2?;DT2_high_4;2;Different;high;96;70;60;f;n;0;j;n;1338.4867000004306
ti0p37#;155;False;1;P != T2?;ST1_high_5;1;Same;high;96;132;96;f;n;0;j;n;915.0279000004957
ti0p37#;156;False;1;P != T1?;ST1_high_3;1;Same;high;70;96;70;f;n;1;j;v;1197.8008999994927
ti0p37#;157;False;1;P != T1?;ST2_low_2;2;Same;low;132;82;82;f;n;0;j;n;662.1405000005325
ti0p37#;158;False;1;P != T2?;ST2_high_3;2;Same;high;70;96;96;f;n;1;j;n;2636.1706999996386
ti0p37#;159;False;1;P != T2?;ST1_low_1;1;Same;low;82;132;82;f;n;0;j;n;588.4810000006837
ti0p37#;160;False;1;P != T2?;ST1_low_2;1;Same;low;132;82;132;f;n;0;j;b;807.6400000009016
ti0p37#;161;False;1;P != T1?;ST2_high_3;2;Same;high;70;96;96;f;n;0;j;b;636.9419000002381
ti0p37#;162;False;1;P != T1?;STb_1;0;Same;None;60;60;60;f;n;1;j;v;1133.3734000018012
ti0p37#;163;False;1;P != T2?;DT1_low_6;1;Different;low;154;96;180;f;n;1;f;b;1129.1453000012552
ti0p37#;164;False;1;P != T1?;ST1_low_6;1;Same;low;154;96;154;f;n;0;f;b;484.4201999985671
ti0p37#;165;False;1;P != T1?;ST2_high_1;2;Same;high;82;112;112;f;n;1;f;b;1138.866399998733
ti0p37#;166;False;1;P != T1?;ST2_low_3;2;Same;low;70;112;112;f;n;1;f;v;3327.6569999998173
ti0p37#;167;False;1;P != T1?;ST1_high_1;1;Same;high;82;112;82;f;n;1;j;b;937.4798000008013
ti0p37#;168;False;1;P != T2?;ST2_high_1;2;Same;high;82;112;112;f;n;1;j;n;1932.4077000001125
ti0p37#;169;False;1;P != T2?;ST2_low_5;2;Same;low;96;154;154;f;n;0;f;b;3768.1896000012784
ti0p37#;170;False;1;P != T2?;ST1_high_3;1;Same;high;70;96;70;f;n;0;j;b;645.6441999998788
ti0p37#;171;False;1;P != T1?;ST2_low_2;2;Same;low;132;82;82;f;n;0;j;b;998.1587000002037
ti0p37#;172;False;1;P != T1?;ST1_high_5;1;Same;high;96;132;96;f;n;1;j;b;479.0284000009706
ti0p37#;173;False;1;P != T1?;ST2_high_2;2;Same;high;112;82;82;f;n;1;f;v;1065.9134999987145
ti0p37#;174;False;1;P != T1?;ST1_low_1;1;Same;low;82;132;82;f;n;1;j;b;550.4099999998289
ti0p37#;175;False;1;P != T1?;ST2_high_5;2;Same;high;96;132;132;f;n;0;j;v;1577.9135999982827
ti0p37#;176;False;1;P != T2?;ST2_high_4;2;Same;high;96;70;70;f;n;1;j;v;807.4995999995735
ti0p37#;1;True;2;P = T1?;DT2_low_6;2;Different;low;154;96;82;f;n;0;f;n;2512.3471999995672
ti0p37#;2;True;2;P = T2?;ST1_low_3;1;Same;low;70;112;70;f;n;0;f;n;1349.6088000010786
ti0p37#;3;True;2;P = T2?;ST1_low_1;1;Same;low;82;132;82;f;n;1;j;v;888.9115000001766
ti0p37#;4;True;2;P = T1?;ST1_high_2;1;Same;high;112;82;112;f;n;1;f;b;1009.90979999915
ti0p37#;5;True;2;P = T1?;STb_5;0;Same;None;112;112;112;f;n;1;f;b;319.21390000024985
ti0p37#;6;True;2;P = T2?;STb_2;0;Same;None;70;70;70;f;n;1;f;b;222.50690000146278
ti0p37#;7;True;2;P = T1?;ST2_low_1;2;Same;low;82;132;132;f;n;1;j;b;822.7332999995269
ti0p37#;8;True;2;P = T1?;STb_8;0;Same;None;180;180;180;f;n;1;f;b;251.12429999899177
ti0p37#;9;True;2;P = T1?;ST1_low_5;1;Same;low;96;154;96;f;n;0;j;b;1078.4419999999955
ti0p37#;10;True;2;P = T2?;ST2_low_3;2;Same;low;70;112;112;f;n;0;j;b;1548.7367999994603
ti0p37#;11;True;2;P = T2?;DT1_low_3;1;Different;low;70;112;60;f;n;1;j;b;1116.6914999994333
ti0p37#;12;True;2;P = T2?;ST2_low_2;2;Same;low;132;82;82;f;n;1;f;b;346.18550000050163
ti0p37#;13;True;2;P = T2?;DT1_high_4;1;Different;high;96;70;112;f;n;1;j;b;1708.6440000002767
ti0p37#;14;True;2;P = T2?;STb_3;0;Same;None;82;82;82;f;n;1;f;b;179.10570000094594
ti0p37#;15;True;2;P = T1?;DT1_low_6;1;Different;low;154;96;180;f;n;0;f;b;715.8935999996174
ti0p37#;16;True;2;P = T1?;ST2_low_3;2;Same;low;70;112;112;f;n;0;f;b;1900.9139999998297
ti0p37#;1;False;2;P = T1?;ST2_high_1;2;Same;high;82;112;112;f;n;0;f;n;353.20039999896835
ti0p37#;2;False;2;P = T1?;ST1_low_4;1;Same;low;112;70;112;f;n;0;j;b;889.113000001089
ti0p37#;3;False;2;P = T1?;ST2_high_4;2;Same;high;96;70;70;f;n;0;f;b;462.6299999999901
ti0p37#;4;False;2;P = T2?;ST2_high_3;2;Same;high;70;96;96;f;n;1;f;n;941.6823999999906
ti0p37#;5;False;2;P = T1?;ST2_high_4;2;Same;high;96;70;70;f;n;1;j;n;1191.1904999997205
ti0p37#;6;False;2;P = T1?;ST2_low_6;2;Same;low;154;96;96;f;n;0;f;b;1961.096600000019
ti0p37#;7;False;2;P = T1?;ST2_low_6;2;Same;low;154;96;96;f;n;1;j;b;3335.371999999552
ti0p37#;8;False;2;P = T2?;ST1_high_2;1;Same;high;112;82;112;f;n;0;f;b;1843.5645999998087
ti0p37#;9;False;2;P = T2?;ST1_low_5;1;Same;low;96;154;96;f;n;0;f;n;1624.1302999987965
ti0p37#;10;False;2;P = T2?;ST2_high_1;2;Same;high;82;112;112;f;n;1;f;b;830.6633000011061
ti0p37#;11;False;2;P = T2?;ST1_low_6;1;Same;low;154;96;154;f;n;1;j;n;3013.6978999998973
ti0p37#;12;False;2;P = T2?;ST1_high_3;1;Same;high;70;96;70;f;n;1;j;v;1485.7014000008348
ti0p37#;13;False;2;P = T2?;ST1_low_1;1;Same;low;82;132;82;f;n;0;f;b;972.5418999987596
ti0p37#;14;False;2;P = T2?;ST1_high_1;1;Same;high;82;112;82;f;n;0;f;n;835.4478999990533
ti0p37#;15;False;2;P = T2?;ST2_low_2;2;Same;low;132;82;82;f;n;1;f;v;3411.7329999990034
ti0p37#;16;False;2;P = T1?;ST1_high_5;1;Same;high;96;132;96;f;n;0;j;b;1859.9615000002814
ti0p37#;17;False;2;P = T1?;STb_6;0;Same;None;132;132;132;f;n;0;j;n;1536.1952999992354
ti0p37#;18;False;2;P = T2?;ST1_high_4;1;Same;high;96;70;96;f;n;1;j;v;1950.8677999983774
ti0p37#;19;False;2;P = T1?;ST2_low_5;2;Same;low;96;154;154;f;n;1;j;n;2855.250200000228
ti0p37#;20;False;2;P = T2?;ST1_low_1;1;Same;low;82;132;82;f;n;1;j;n;1383.8051000002451
ti0p37#;21;False;2;P = T1?;ST2_high_6;2;Same;high;132;96;96;f;n;0;f;n;442.94280000030994
ti0p37#;22;False;2;P = T1?;ST1_low_2;1;Same;low;132;82;132;f;n;1;f;n;611.0270999997738
ti0p37#;23;False;2;P = T1?;ST2_low_4;2;Same;low;112;70;70;f;n;1;j;n;1294.8257999996713
ti0p37#;24;False;2;P = T2?;ST2_low_1;2;Same;low;82;132;132;f;n;1;f;n;576.7023000007612
ti0p37#;25;False;2;P = T2?;ST2_low_3;2;Same;low;70;112;112;f;n;1;f;n;420.38660000071104
ti0p37#;26;False;2;P = T2?;ST1_low_6;1;Same;low;154;96;154;f;n;1;j;v;1885.893999999098
ti0p37#;27;False;2;P = T1?;STb_5;0;Same;None;112;112;112;f;n;1;f;b;295.9537000006094
ti0p37#;28;False;2;P = T2?;DT2_high_4;2;Different;high;96;70;60;f;n;0;f;b;799.7140000006766
ti0p37#;29;False;2;P = T2?;ST2_low_4;2;Same;low;112;70;70;f;n;1;f;n;578.8121999994473
ti0p37#;30;False;2;P = T1?;ST2_low_2;2;Same;low;132;82;82;f;n;0;f;b;698.8921000011032
ti0p37#;31;False;2;P = T2?;STb_1;0;Same;None;60;60;60;f;n;1;f;n;943.3184999998048
ti0p37#;32;False;2;P = T1?;ST2_low_4;2;Same;low;112;70;70;f;n;0;f;b;835.8731000007538
ti0p37#;33;False;2;P = T2?;ST1_high_5;1;Same;high;96;132;96;f;n;0;f;n;913.83439999845
ti0p37#;34;False;2;P = T1?;ST2_high_6;2;Same;high;132;96;96;f;n;1;j;b;1432.1347999994032
ti0p37#;35;False;2;P = T2?;ST2_high_2;2;Same;high;112;82;82;f;n;1;f;n;822.3369000006642
ti0p37#;36;False;2;P = T1?;DT1_high_6;1;Different;high;132;96;154;f;n;1;j;b;2645.897499998682
ti0p37#;37;False;2;P = T1?;ST2_low_1;2;Same;low;82;132;132;f;n;0;f;b;603.5480999998981
ti0p37#;38;False;2;P = T2?;ST2_high_2;2;Same;high;112;82;82;f;n;1;f;b;511.058399999456
ti0p37#;39;False;2;P = T1?;STb_7;0;Same;None;154;154;154;f;n;0;j;n;1009.8362999997335
ti0p37#;40;False;2;P = T2?;ST1_high_1;1;Same;high;82;112;82;f;n;1;j;n;711.7600000001403
ti0p37#;41;False;2;P = T2?;STb_8;0;Same;None;180;180;180;f;n;1;f;n;459.5233999989432
ti0p37#;42;False;2;P = T1?;ST2_low_2;2;Same;low;132;82;82;f;n;0;f;b;2032.5902000004135
ti0p37#;43;False;2;P = T1?;ST2_low_3;2;Same;low;70;112;112;f;n;0;f;b;497.4320000001171
ti0p37#;44;False;2;P = T1?;ST1_low_6;1;Same;low;154;96;154;f;n;1;f;v;1097.7504000002227
ti0p37#;45;False;2;P = T1?;DT2_high_2;2;Different;high;112;82;70;f;n;1;j;v;792.2342000001663
ti0p37#;46;False;2;P = T1?;ST1_high_6;1;Same;high;132;96;132;f;n;1;f;n;561.2322000015411
ti0p37#;47;False;2;P = T2?;ST2_low_3;2;Same;low;70;112;112;f;n;0;j;b;1084.0379000001121
ti0p37#;48;False;2;P = T2?;ST2_low_5;2;Same;low;96;154;154;f;n;1;f;n;497.39670000053593
ti0p37#;49;False;2;P = T1?;ST1_high_3;1;Same;high;70;96;70;f;n;1;f;n;246.3112999994337
ti0p37#;50;False;2;P = T1?;ST2_low_1;2;Same;low;82;132;132;f;n;0;f;b;725.6347999991704
ti0p37#;51;False;2;P = T2?;ST1_low_2;1;Same;low;132;82;132;f;n;0;f;b;1790.3400999985024
ti0p37#;52;False;2;P = T2?;ST2_high_5;2;Same;high;96;132;132;f;n;0;j;b;2007.2811000009096
ti0p37#;53;False;2;P = T1?;ST1_high_6;1;Same;high;132;96;132;f;n;0;j;v;1508.0643000001146
ti0p37#;54;False;2;P = T2?;ST1_high_5;1;Same;high;96;132;96;f;n;1;j;b;3275.2521999991586
ti0p37#;55;False;2;P = T2?;DT2_high_5;2;Different;high;96;132;154;f;n;0;f;n;451.90829999955895
ti0p37#;56;False;2;P = T1?;ST1_low_3;1;Same;low;70;112;70;f;n;1;f;b;765.0276000003942
ti0p37#;57;False;2;P = T1?;ST1_high_1;1;Same;high;82;112;82;f;n;1;f;b;822.2946000005322
ti0p37#;58;False;2;P = T1?;ST2_high_5;2;Same;high;96;132;132;f;n;1;j;b;659.6673000003648
ti0p37#;59;False;2;P = T1?;ST1_low_1;1;Same;low;82;132;82;f;n;0;j;b;666.946100000132
ti0p37#;60;False;2;P = T2?;ST1_low_4;1;Same;low;112;70;112;f;n;0;f;n;380.0667000014073
ti0p37#;61;False;2;P = T1?;ST1_high_6;1;Same;high;132;96;132;f;n;1;f;n;630.0047999993694
ti0p37#;62;False;2;P = T2?;ST2_low_6;2;Same;low;154;96;96;f;n;1;f;v;929.2914999987261
ti0p37#;63;False;2;P = T2?;DT1_low_6;1;Different;low;154;96;180;f;n;1;j;n;878.8906999998289
ti0p37#;64;False;2;P = T1?;ST2_high_2;2;Same;high;112;82;82;f;n;1;j;b;4037.65889999886
ti0p37#;65;False;2;P = T2?;DT2_high_3;2;Different;high;70;96;112;f;n;1;j;b;659.5543999992515
ti0p37#;66;False;2;P = T1?;STb_2;0;Same;None;70;70;70;f;n;1;f;b;286.27740000047197
ti0p37#;67;False;2;P = T2?;STb_2;0;Same;None;70;70;70;f;n;0;j;b;984.3039000006684
ti0p37#;68;False;2;P = T1?;ST1_high_4;1;Same;high;96;70;96;f;n;1;f;n;464.6726999999373
ti0p37#;69;False;2;P = T2?;STb_5;0;Same;None;112;112;112;f;n;0;j;b;2159.8312000005535
ti0p37#;70;False;2;P = T1?;ST2_high_3;2;Same;high;70;96;96;f;n;0;f;n;898.2798000015464
ti0p37#;71;False;2;P = T2?;DT1_high_1;1;Different;high;82;112;70;f;n;1;j;b;618.2146999999532
ti0p37#;72;False;2;P = T2?;ST1_high_6;1;Same;high;132;96;132;f;n;1;j;n;550.293899999815
ti0p37#;73;False;2;P = T1?;ST1_high_5;1;Same;high;96;132;96;f;n;1;f;b;782.4951999991754
ti0p37#;74;False;2;P = T2?;ST1_low_3;1;Same;low;70;112;70;f;n;1;j;n;3202.562399999806
ti0p37#;75;False;2;P = T2?;ST1_low_6;1;Same;low;154;96;154;f;n;0;f;v;3288.483800000904
ti0p37#;76;False;2;P = T1?;ST1_low_6;1;Same;low;154;96;154;f;n;0;j;b;2689.792600000146
ti0p37#;77;False;2;P = T2?;ST2_high_4;2;Same;high;96;70;70;f;n;1;f;n;311.87949999912234
ti0p37#;78;False;2;P = T2?;STb_4;0;Same;None;96;96;96;f;n;1;f;n;403.55579999959446
ti0p37#;79;False;2;P = T1?;ST2_low_5;2;Same;low;96;154;154;f;n;1;j;n;676.8802999995387
ti0p37#;80;False;2;P = T1?;ST2_high_1;2;Same;high;82;112;112;f;n;0;f;b;577.7625999999145
ti0p37#;81;False;2;P = T2?;ST2_high_3;2;Same;high;70;96;96;f;n;1;f;b;549.4175999992876
ti0p37#;82;False;2;P = T1?;ST2_high_5;2;Same;high;96;132;132;f;n;0;f;v;757.8374999993684
ti0p37#;83;False;2;P = T1?;ST1_low_3;1;Same;low;70;112;70;f;n;1;f;n;464.475400000083
ti0p37#;84;False;2;P = T1?;STb_4;0;Same;None;96;96;96;f;n;1;f;b;530.1610000005894
ti0p37#;85;False;2;P = T2?;ST2_low_2;2;Same;low;132;82;82;f;n;1;f;b;555.7914000000892
ti0p37#;86;False;2;P = T1?;DT2_high_6;2;Different;high;132;96;82;f;n;1;j;n;307.02259999998205
ti0p37#;87;False;2;P = T2?;ST1_high_1;1;Same;high;82;112;82;f;n;0;f;n;582.5987999996869
ti0p37#;88;False;2;P = T1?;ST2_high_3;2;Same;high;70;96;96;f;n;0;f;n;475.1741000000038
ti0p37#;89;False;2;P = T1?;ST1_high_4;1;Same;high;96;70;96;f;n;0;j;n;4516.2113000005775
ti0p37#;90;False;2;P = T1?;ST1_high_1;1;Same;high;82;112;82;f;n;1;f;n;507.50309999966703
ti0p37#;91;False;2;P = T1?;ST1_high_4;1;Same;high;96;70;96;f;n;1;f;n;596.4674999995623
ti0p37#;92;False;2;P = T1?;ST2_high_4;2;Same;high;96;70;70;f;n;0;f;n;712.9655000007915
ti0p37#;93;False;2;P = T2?;ST2_low_6;2;Same;low;154;96;96;f;n;0;j;b;747.640900000988
ti0p37#;94;False;2;P = T1?;ST2_high_3;2;Same;high;70;96;96;f;n;0;f;n;2199.2305999992823
ti0p37#;95;False;2;P = T1?;DT2_high_4;2;Different;high;96;70;60;f;n;1;j;b;1277.3479000006773
ti0p37#;96;False;2;P = T2?;ST2_high_6;2;Same;high;132;96;96;f;n;1;f;n;289.43379999873287
ti0p37#;97;False;2;P = T2?;ST2_high_3;2;Same;high;70;96;96;f;n;1;f;b;699.8523000002024
ti0p37#;98;False;2;P = T2?;ST2_high_6;2;Same;high;132;96;96;f;n;1;f;n;259.538700000121
ti0p37#;99;False;2;P = T2?;ST1_low_5;1;Same;low;96;154;96;f;n;0;f;n;785.6558000003133
ti0p37#;100;False;2;P = T1?;DT1_low_2;1;Different;low;132;82;154;f;n;1;j;b;659.7849999998289
ti0p37#;101;False;2;P = T2?;ST2_high_1;2;Same;high;82;112;112;f;n;1;f;b;683.3124999993743
ti0p37#;102;False;2;P = T1?;ST1_high_2;1;Same;high;112;82;112;f;n;0;j;n;1838.0754999998317
ti0p37#;103;False;2;P = T2?;ST2_low_3;2;Same;low;70;112;112;f;n;1;f;n;835.0446999993437
ti0p37#;104;False;2;P = T2?;ST2_low_6;2;Same;low;154;96;96;f;n;1;f;n;569.7106000006897
ti0p37#;105;False;2;P = T2?;ST1_high_6;1;Same;high;132;96;132;f;n;0;f;v;4268.019400000412
ti0p37#;106;False;2;P = T2?;ST2_low_5;2;Same;low;96;154;154;f;n;1;f;n;579.2507000005571
ti0p37#;107;False;2;P = T2?;ST2_low_1;2;Same;low;82;132;132;f;n;0;j;n;576.4980000003561
ti0p37#;108;False;2;P = T2?;ST2_low_2;2;Same;low;132;82;82;f;n;1;f;n;460.78050000141957
ti0p37#;109;False;2;P = T1?;ST1_low_5;1;Same;low;96;154;96;f;n;0;j;b;543.033199999627
ti0p37#;110;False;2;P = T1?;ST1_low_2;1;Same;low;132;82;132;f;n;1;f;b;1771.7544000006455
ti0p37#;111;False;2;P = T2?;STb_6;0;Same;None;132;132;132;f;n;0;j;v;4834.962599999926
ti0p37#;112;False;2;P = T1?;ST1_low_1;1;Same;low;82;132;82;f;n;1;f;b;552.1712000008847
ti0p37#;113;False;2;P = T1?;ST2_low_6;2;Same;low;154;96;96;f;n;0;f;n;278.73580000050424
ti0p37#;114;False;2;P = T1?;ST2_low_5;2;Same;low;96;154;154;f;n;0;f;b;511.4458000007289
ti0p37#;115;False;2;P = T1?;ST1_high_2;1;Same;high;112;82;112;f;n;0;j;b;644.6735999998054
ti0p37#;116;False;2;P = T1?;ST2_low_1;2;Same;low;82;132;132;f;n;0;f;b;287.3870999992505
ti0p37#;117;False;2;P = T1?;ST1_low_4;1;Same;low;112;70;112;f;n;0;j;v;3270.7093999997596
ti0p37#;118;False;2;P = T1?;ST1_high_3;1;Same;high;70;96;70;f;n;1;f;n;523.5040000006848
ti0p37#;119;False;2;P = T2?;STb_7;0;Same;None;154;154;154;f;n;0;j;v;1131.8705000012415
ti0p37#;120;False;2;P = T2?;ST1_low_2;1;Same;low;132;82;132;f;n;1;j;v;743.1452000000718
ti0p37#;121;False;2;P = T1?;ST1_low_2;1;Same;low;132;82;132;f;n;1;f;v;1093.521699998746
ti0p37#;122;False;2;P = T2?;ST1_high_4;1;Same;high;96;70;96;f;n;0;f;v;980.2652999987913
ti0p37#;123;False;2;P = T1?;ST2_high_2;2;Same;high;112;82;82;f;n;0;f;v;410.095100000035
ti0p37#;124;False;2;P = T2?;ST2_high_4;2;Same;high;96;70;70;f;n;1;f;n;701.198700000532
ti0p37#;125;False;2;P = T1?;ST1_low_6;1;Same;low;154;96;154;f;n;0;j;b;3886.531500000274
ti0p37#;126;False;2;P = T2?;DT1_high_2;1;Different;high;112;82;132;f;n;1;j;v;781.3021000001754
ti0p37#;127;False;2;P = T2?;ST1_low_5;1;Same;low;96;154;96;f;n;0;f;b;470.0217000008706
ti0p37#;128;False;2;P = T1?;ST2_low_3;2;Same;low;70;112;112;f;n;0;f;b;452.64099999985774
ti0p37#;129;False;2;P = T1?;ST1_low_4;1;Same;low;112;70;112;f;n;0;j;b;2224.694200000158
ti0p37#;130;False;2;P = T2?;ST2_high_5;2;Same;high;96;132;132;f;n;1;f;b;523.0547999999544
ti0p37#;131;False;2;P = T1?;ST1_high_5;1;Same;high;96;132;96;f;n;1;f;b;308.29869999979564
ti0p37#;132;False;2;P = T1?;DT2_high_3;2;Different;high;70;96;112;f;n;1;j;n;3928.8860999986355
ti0p37#;133;False;2;P = T2?;ST2_low_5;2;Same;low;96;154;154;f;n;1;f;n;700.3782000010688
ti0p37#;134;False;2;P = T2?;ST1_high_2;1;Same;high;112;82;112;f;n;1;j;b;2539.504800000941
ti0p37#;135;False;2;P = T2?;ST1_high_3;1;Same;high;70;96;70;f;n;1;j;v;985.4627000004257
ti0p37#;136;False;2;P = T1?;ST2_low_4;2;Same;low;112;70;70;f;n;1;j;v;3316.63909999952
ti0p37#;137;False;2;P = T2?;ST2_high_6;2;Same;high;132;96;96;f;n;1;f;b;783.9137000009941
ti0p37#;138;False;2;P = T1?;ST2_high_6;2;Same;high;132;96;96;f;n;0;f;b;172.4080000003596
ti0p37#;139;False;2;P = T2?;STb_3;0;Same;None;82;82;82;f;n;1;f;b;425.9013999999297
ti0p37#;140;False;2;P = T2?;ST1_high_6;1;Same;high;132;96;132;f;n;0;f;b;693.8246000008803
ti0p37#;141;False;2;P = T1?;ST1_low_5;1;Same;low;96;154;96;f;n;1;f;b;348.9624999983789
ti0p37#;142;False;2;P = T1?;ST2_low_3;2;Same;low;70;112;112;f;n;0;f;n;935.8327999998437
ti0p37#;143;False;2;P = T1?;ST1_low_3;1;Same;low;70;112;70;f;n;1;f;b;908.5403999997652
ti0p37#;144;False;2;P = T1?;ST1_high_3;1;Same;high;70;96;70;f;n;1;f;n;643.2605999998486
ti0p37#;145;False;2;P = T1?;STb_8;0;Same;None;180;180;180;f;n;1;f;n;848.3082000002469
ti0p37#;146;False;2;P = T1?;ST1_high_1;1;Same;high;82;112;82;f;n;1;f;b;625.4169000003458
ti0p37#;147;False;2;P = T2?;ST1_high_4;1;Same;high;96;70;96;f;n;0;f;b;96.92260000156239
ti0p37#;148;False;2;P = T1?;STb_1;0;Same;None;60;60;60;f;n;1;f;v;495.3439000000799
ti0p37#;149;False;2;P = T2?;DT2_high_6;2;Different;high;132;96;82;f;n;0;f;b;657.0888999995077
ti0p37#;150;False;2;P = T2?;ST1_low_3;1;Same;low;70;112;70;f;n;0;f;b;692.7231999998185
ti0p37#;151;False;2;P = T2?;ST2_high_2;2;Same;high;112;82;82;f;n;1;f;b;568.8594999992347
ti0p37#;152;False;2;P = T2?;ST1_high_3;1;Same;high;70;96;70;f;n;1;j;b;626.5396999988297
ti0p37#;153;False;2;P = T1?;DT1_low_4;1;Different;low;112;70;132;f;n;1;j;v;1144.8880999996618
ti0p37#;154;False;2;P = T1?;ST2_high_2;2;Same;high;112;82;82;f;n;1;j;b;2159.3569999986357
ti0p37#;155;False;2;P = T2?;ST2_low_4;2;Same;low;112;70;70;f;n;1;f;n;864.8827000015444
ti0p37#;156;False;2;P = T2?;ST1_high_5;1;Same;high;96;132;96;f;n;0;f;n;648.5186999998405
ti0p37#;157;False;2;P = T2?;DT1_low_1;1;Different;low;82;132;70;f;n;1;j;b;566.6228000009141
ti0p37#;158;False;2;P = T1?;ST1_low_1;1;Same;low;82;132;82;f;n;1;f;n;479.5721999998932
ti0p37#;159;False;2;P = T1?;DT2_low_3;2;Different;low;70;112;132;f;n;1;j;v;1574.8019000002387
ti0p37#;160;False;2;P = T2?;ST2_low_4;2;Same;low;112;70;70;f;n;1;f;v;1918.1938000001537
ti0p37#;161;False;2;P = T2?;ST1_low_2;1;Same;low;132;82;132;f;n;1;j;b;613.1317999988823
ti0p37#;162;False;2;P = T2?;ST1_low_4;1;Same;low;112;70;112;f;n;1;j;b;1138.5060000011435
ti0p37#;163;False;2;P = T2?;ST1_low_1;1;Same;low;82;132;82;f;n;1;j;b;560.079400000177
ti0p37#;164;False;2;P = T2?;ST1_low_3;1;Same;low;70;112;70;f;n;0;f;b;517.3037999993539
ti0p37#;165;False;2;P = T2?;ST2_high_1;2;Same;high;82;112;112;f;n;1;f;n;382.2283999998035
ti0p37#;166;False;2;P = T2?;ST2_high_4;2;Same;high;96;70;70;f;n;1;f;n;293.7774999991234
ti0p37#;167;False;2;P = T2?;ST1_low_4;1;Same;low;112;70;112;f;n;1;j;b;604.1074000004301
ti0p37#;168;False;2;P = T1?;ST2_low_2;2;Same;low;132;82;82;f;n;1;j;n;1453.0822999986412
ti0p37#;169;False;2;P = T1?;ST2_high_1;2;Same;high;82;112;112;f;n;0;f;b;594.7689000004175
ti0p37#;170;False;2;P = T2?;ST1_high_2;1;Same;high;112;82;112;f;n;0;f;n;2227.4980999991385
ti0p37#;171;False;2;P = T1?;ST1_high_2;1;Same;high;112;82;112;f;n;1;f;b;448.8880999997491
ti0p37#;172;False;2;P = T1?;STb_3;0;Same;None;82;82;82;f;n;1;f;n;920.2314000012848
ti0p37#;173;False;2;P = T1?;ST1_low_5;1;Same;low;96;154;96;f;n;1;f;b;1844.4733999986056
ti0p37#;174;False;2;P = T1?;ST2_high_5;2;Same;high;96;132;132;f;n;0;f;n;250.4759000003105
ti0p37#;175;False;2;P = T2?;ST2_high_5;2;Same;high;96;132;132;f;n;1;f;n;276.2599000016053
ti0p37#;176;False;2;P = T2?;ST2_low_1;2;Same;low;82;132;132;f;n;1;f;b;504.33520000115095
