p_code;trial_nr;practice;block;question;condition;seqPos;Same_or_Diff;ITS;T1_hz;T2_hz;P_hz;yes_key;sure_key;correct;yes_no;rating;resp_time
7c#83qs;1;True;1;P = T1?;ST1_low_4;1;Same;low;112;70;112;f;v;1;f;b;4292.865099999972
7c#83qs;2;True;1;P = T1?;ST2_high_5;2;Same;high;96;132;132;f;v;1;j;v;1703.7578000001758
7c#83qs;3;True;1;P = T1?;ST1_low_3;1;Same;low;70;112;70;f;v;1;f;n;1563.6303999999654
7c#83qs;4;True;1;P = T2?;DT2_high_6;2;Different;high;132;96;82;f;v;0;f;v;1516.9444999999087
7c#83qs;5;True;1;P = T2?;STb_1;0;Same;None;60;60;60;f;v;1;f;v;1503.9690999999493
7c#83qs;6;True;1;P = T2?;ST1_low_1;1;Same;low;82;132;82;f;v;1;j;v;1415.5754999999317
7c#83qs;7;True;1;P = T1?;ST2_low_4;2;Same;low;112;70;70;f;v;1;j;v;2590.5224000000544
7c#83qs;8;True;1;P = T2?;ST1_low_6;1;Same;low;154;96;154;f;v;1;j;v;3608.688900000061
7c#83qs;9;True;1;P = T2?;DT1_high_5;1;Different;high;96;132;82;f;v;1;j;v;1221.6024999997899
7c#83qs;10;True;1;P = T1?;DT1_low_2;1;Different;low;132;82;154;f;v;0;f;v;1044.8646999998346
7c#83qs;11;True;1;P = T1?;DT1_low_4;1;Different;low;112;70;132;f;v;0;f;v;1238.112099999853
7c#83qs;12;True;1;P = T1?;STb_8;0;Same;None;180;180;180;f;v;0;j;v;2170.7395999999335
7c#83qs;13;True;1;P = T2?;ST2_low_2;2;Same;low;132;82;82;f;v;0;j;v;924.870300000066
7c#83qs;14;True;1;P = T2?;ST2_low_2;2;Same;low;132;82;82;f;v;1;f;v;954.1183000001183
7c#83qs;15;True;1;P = T2?;STb_3;0;Same;None;82;82;82;f;v;1;f;v;3508.0648000000565
7c#83qs;16;True;1;P = T1?;STb_2;0;Same;None;70;70;70;f;v;1;f;v;1074.0670000000136
p_code;trial_nr;practice;block;question;condition;seqPos;Same_or_Diff;ITS;T1_hz;T2_hz;P_hz;yes_key;sure_key;correct;yes_no;rating;resp_time
7c#83qs;1;False;1;P = T2?;ST2_high_3;2;Same;high;70;96;96;f;v;1;f;v;1436.1759999999322
7c#83qs;2;False;1;P = T2?;ST2_low_3;2;Same;low;70;112;112;f;v;1;f;v;1221.0806000000503
7c#83qs;3;False;1;P = T1?;DT2_high_4;2;Different;high;96;70;60;f;v;1;j;b;6199.107099999992
7c#83qs;4;False;1;P = T2?;ST2_high_5;2;Same;high;96;132;132;f;v;1;f;v;1717.1452000000045
7c#83qs;5;False;1;P = T2?;ST2_low_3;2;Same;low;70;112;112;f;v;1;f;v;1349.2726000001767
7c#83qs;6;False;1;P = T1?;STb_4;0;Same;None;96;96;96;f;v;1;f;v;4339.135899999974
7c#83qs;7;False;1;P = T2?;ST2_low_2;2;Same;low;132;82;82;f;v;1;f;v;883.7648000001082
7c#83qs;8;False;1;P = T1?;ST1_high_4;1;Same;high;96;70;96;f;v;1;f;v;765.9955999999966
7c#83qs;9;False;1;P = T2?;STb_5;0;Same;None;112;112;112;f;v;1;f;v;3515.0423000000046
7c#83qs;10;False;1;P = T1?;ST1_low_4;1;Same;low;112;70;112;f;v;1;f;v;800.7684000001518
7c#83qs;11;False;1;P = T1?;DT1_low_4;1;Different;low;112;70;132;f;v;1;j;b;2311.5013000001454
7c#83qs;12;False;1;P = T2?;DT1_high_3;1;Different;high;70;96;60;f;v;0;f;v;1355.484499999875
7c#83qs;13;False;1;P = T1?;ST2_high_3;2;Same;high;70;96;96;f;v;1;j;b;1904.0724999999838
7c#83qs;14;False;1;P = T2?;ST2_low_6;2;Same;low;154;96;96;f;v;1;f;v;2051.1128000000554
7c#83qs;15;False;1;P = T1?;ST1_low_2;1;Same;low;132;82;132;f;v;1;f;v;845.8106000000498
7c#83qs;16;False;1;P = T1?;ST2_low_1;2;Same;low;82;132;132;f;v;1;j;b;1070.1649000000089
7c#83qs;17;False;1;P = T2?;ST1_low_4;1;Same;low;112;70;112;f;v;0;f;b;1663.4853999998995
7c#83qs;18;False;1;P = T1?;ST2_low_2;2;Same;low;132;82;82;f;v;0;f;b;2661.8024999997942
7c#83qs;19;False;1;P = T2?;ST2_high_1;2;Same;high;82;112;112;f;v;1;f;v;7292.134300000043
7c#83qs;20;False;1;P = T1?;ST1_high_6;1;Same;high;132;96;132;f;v;1;f;v;1153.4387000001516
7c#83qs;21;False;1;P = T2?;ST1_low_5;1;Same;low;96;154;96;f;v;1;j;v;1385.0600000000668
7c#83qs;22;False;1;P = T1?;ST2_low_5;2;Same;low;96;154;154;f;v;1;j;v;3998.2734999998684
7c#83qs;23;False;1;P = T2?;DT1_low_3;1;Different;low;70;112;60;f;v;1;j;b;1388.262799999893
7c#83qs;24;False;1;P = T1?;ST2_low_1;2;Same;low;82;132;132;f;v;1;j;v;982.856499999798
7c#83qs;25;False;1;P = T2?;ST1_high_1;1;Same;high;82;112;82;f;v;1;j;b;3157.640399999991
7c#83qs;26;False;1;P = T1?;STb_1;0;Same;None;60;60;60;f;v;1;f;v;1677.1400000000085
7c#83qs;27;False;1;P = T1?;ST1_high_1;1;Same;high;82;112;82;f;v;0;j;b;3318.812100000059
7c#83qs;28;False;1;P = T2?;ST1_high_2;1;Same;high;112;82;112;f;v;0;f;v;1472.5889000001189
7c#83qs;29;False;1;P = T2?;ST1_high_3;1;Same;high;70;96;70;f;v;0;f;v;1989.9603000001207
7c#83qs;30;False;1;P = T2?;ST1_low_6;1;Same;low;154;96;154;f;v;1;j;b;2376.221100000066
7c#83qs;31;False;1;P = T2?;DT1_high_6;1;Different;high;132;96;154;f;v;1;j;v;4483.045300000185
7c#83qs;32;False;1;P = T2?;ST1_low_1;1;Same;low;82;132;82;f;v;0;f;v;1072.286300000087
7c#83qs;33;False;1;P = T2?;ST2_low_6;2;Same;low;154;96;96;f;v;1;f;v;957.4639999998453
7c#83qs;34;False;1;P = T2?;ST1_low_4;1;Same;low;112;70;112;f;v;1;j;b;2394.1373000000112
7c#83qs;35;False;1;P = T2?;DT1_low_1;1;Different;low;82;132;70;f;v;0;f;b;1185.0151000001006
7c#83qs;36;False;1;P = T1?;STb_8;0;Same;None;180;180;180;f;v;0;j;v;2735.2926000000934
7c#83qs;37;False;1;P = T1?;ST1_low_1;1;Same;low;82;132;82;f;v;0;j;v;2991.7758999999933
7c#83qs;38;False;1;P = T2?;ST2_high_5;2;Same;high;96;132;132;f;v;1;f;v;1302.885999999944
7c#83qs;39;False;1;P = T2?;STb_3;0;Same;None;82;82;82;f;v;1;f;v;2045.0101999999788
7c#83qs;40;False;1;P = T1?;ST1_low_6;1;Same;low;154;96;154;f;v;0;j;b;3203.005299999859
7c#83qs;41;False;1;P = T1?;ST2_high_5;2;Same;high;96;132;132;f;v;0;f;v;3057.7280999998493
7c#83qs;42;False;1;P = T2?;ST2_low_4;2;Same;low;112;70;70;f;v;1;f;b;4099.286800000073
7c#83qs;43;False;1;P = T1?;ST1_high_1;1;Same;high;82;112;82;f;v;1;f;v;4150.712200000044
7c#83qs;44;False;1;P = T1?;ST1_high_5;1;Same;high;96;132;96;f;v;1;f;v;1071.7652999999245
7c#83qs;45;False;1;P = T2?;ST1_high_6;1;Same;high;132;96;132;f;v;0;f;v;1112.5743000000057
7c#83qs;46;False;1;P = T2?;ST1_low_2;1;Same;low;132;82;132;f;v;1;j;v;2247.2243999998227
7c#83qs;47;False;1;P = T2?;ST1_low_3;1;Same;low;70;112;70;f;v;1;j;v;1581.744800000024
7c#83qs;48;False;1;P = T2?;ST2_high_4;2;Same;high;96;70;70;f;v;1;f;v;1159.3617000003178
7c#83qs;49;False;1;P = T1?;ST1_low_4;1;Same;low;112;70;112;f;v;1;f;v;662.8026000003047
7c#83qs;50;False;1;P = T2?;ST2_low_1;2;Same;low;82;132;132;f;v;1;f;v;1894.919200000004
7c#83qs;51;False;1;P = T2?;ST1_high_1;1;Same;high;82;112;82;f;v;1;j;v;2739.125000000058
7c#83qs;52;False;1;P = T1?;ST1_high_5;1;Same;high;96;132;96;f;v;1;f;v;843.0919000002177
7c#83qs;53;False;1;P = T2?;ST2_high_1;2;Same;high;82;112;112;f;v;0;j;v;1896.7999999999847
7c#83qs;54;False;1;P = T1?;ST1_high_3;1;Same;high;70;96;70;f;v;1;f;b;1215.0701999999
7c#83qs;55;False;1;P = T1?;STb_3;0;Same;None;82;82;82;f;v;1;f;n;2731.6016999998283
7c#83qs;56;False;1;P = T2?;ST2_low_6;2;Same;low;154;96;96;f;v;0;j;v;1556.4696000001277
7c#83qs;57;False;1;P = T1?;DT2_high_1;2;Different;high;82;112;132;f;v;1;j;b;4252.872900000057
7c#83qs;58;False;1;P = T1?;STb_6;0;Same;None;132;132;132;f;v;0;j;b;2054.660700000113
7c#83qs;59;False;1;P = T2?;ST1_high_6;1;Same;high;132;96;132;f;v;0;f;b;2127.705999999762
7c#83qs;60;False;1;P = T2?;STb_8;0;Same;None;180;180;180;f;v;1;f;v;607.7906999998959
7c#83qs;61;False;1;P = T1?;DT1_low_3;1;Different;low;70;112;60;f;v;0;f;v;695.8969000002071
7c#83qs;62;False;1;P = T1?;ST2_high_2;2;Same;high;112;82;82;f;v;0;f;v;236.77090000001044
7c#83qs;63;False;1;P = T2?;DT1_low_4;1;Different;low;112;70;132;f;v;0;f;v;23.86320000005071
7c#83qs;64;False;1;P = T1?;ST2_high_4;2;Same;high;96;70;70;f;v;0;f;v;2531.2126999997417
7c#83qs;65;False;1;P = T1?;DT1_low_1;1;Different;low;82;132;70;f;v;0;f;v;840.0951999997233
7c#83qs;66;False;1;P = T1?;ST2_high_5;2;Same;high;96;132;132;f;v;0;f;v;813.1848000002719
7c#83qs;67;False;1;P = T2?;ST2_low_5;2;Same;low;96;154;154;f;v;1;f;v;1040.163399999983
7c#83qs;68;False;1;P = T1?;ST2_low_1;2;Same;low;82;132;132;f;v;0;f;v;949.6425999996063
7c#83qs;69;False;1;P = T2?;ST1_low_1;1;Same;low;82;132;82;f;v;1;j;b;2809.158800000205
7c#83qs;70;False;1;P = T1?;ST1_low_2;1;Same;low;132;82;132;f;v;0;j;v;694.322800000009
7c#83qs;71;False;1;P = T1?;ST2_low_5;2;Same;low;96;154;154;f;v;1;j;v;1302.4089999998978
7c#83qs;72;False;1;P = T1?;ST2_low_4;2;Same;low;112;70;70;f;v;0;f;b;1524.5395000001736
7c#83qs;73;False;1;P = T2?;STb_4;0;Same;None;96;96;96;f;v;1;f;b;2713.6257000001933
7c#83qs;74;False;1;P = T1?;ST2_high_6;2;Same;high;132;96;96;f;v;1;j;b;8622.16269999999
7c#83qs;75;False;1;P = T2?;ST2_low_5;2;Same;low;96;154;154;f;v;1;f;v;5174.716900000021
7c#83qs;76;False;1;P = T2?;ST1_low_6;1;Same;low;154;96;154;f;v;1;j;v;5064.952900000208
7c#83qs;77;False;1;P = T2?;ST2_high_6;2;Same;high;132;96;96;f;v;0;j;b;2390.2724000004127
7c#83qs;78;False;1;P = T1?;ST2_low_5;2;Same;low;96;154;154;f;v;1;j;v;1583.5283000001255
7c#83qs;79;False;1;P = T2?;ST2_high_6;2;Same;high;132;96;96;f;v;0;j;b;1113.2211999997708
7c#83qs;80;False;1;P = T2?;ST2_low_4;2;Same;low;112;70;70;f;v;0;j;v;1014.6657000000232
7c#83qs;81;False;1;P = T1?;DT2_low_2;2;Different;low;132;82;70;f;v;0;f;v;1433.586699999978
7c#83qs;82;False;1;P = T1?;STb_5;0;Same;None;112;112;112;f;v;1;f;n;3324.6659000001273
7c#83qs;83;False;1;P = T2?;ST2_low_3;2;Same;low;70;112;112;f;v;1;f;v;566.0708000000341
7c#83qs;84;False;1;P = T1?;ST1_low_3;1;Same;low;70;112;70;f;v;0;j;n;5199.363900000208
7c#83qs;85;False;1;P = T2?;ST1_low_6;1;Same;low;154;96;154;f;v;1;j;v;1387.811000000056
7c#83qs;86;False;1;P = T1?;ST1_high_3;1;Same;high;70;96;70;f;v;0;j;v;1796.0134999998445
7c#83qs;87;False;1;P = T1?;ST2_low_6;2;Same;low;154;96;96;f;v;1;j;v;2315.511299999798
7c#83qs;88;False;1;P = T2?;ST1_high_4;1;Same;high;96;70;96;f;v;0;f;b;891.2582000002658
7c#83qs;89;False;1;P = T2?;ST2_low_1;2;Same;low;82;132;132;f;v;1;f;v;2119.9871999997413
7c#83qs;90;False;1;P = T1?;ST1_high_6;1;Same;high;132;96;132;f;v;0;j;v;1532.7081999998882
7c#83qs;91;False;1;P = T2?;ST1_high_2;1;Same;high;112;82;112;f;v;0;f;v;1548.156100000142
7c#83qs;92;False;1;P = T1?;ST1_high_2;1;Same;high;112;82;112;f;v;1;f;v;793.7302999998792
7c#83qs;93;False;1;P = T1?;ST1_high_3;1;Same;high;70;96;70;f;v;0;j;v;1117.5508000001173
7c#83qs;94;False;1;P = T1?;ST1_high_4;1;Same;high;96;70;96;f;v;1;f;v;1244.492100000116
7c#83qs;95;False;1;P = T1?;ST1_low_6;1;Same;low;154;96;154;f;v;1;f;v;544.4516000002295
7c#83qs;96;False;1;P = T2?;ST2_low_1;2;Same;low;82;132;132;f;v;1;f;n;7118.362100000013
7c#83qs;97;False;1;P = T1?;ST1_low_6;1;Same;low;154;96;154;f;v;0;j;v;1283.721599999808
7c#83qs;98;False;1;P = T1?;ST1_high_5;1;Same;high;96;132;96;f;v;0;j;v;20.124199999827397
7c#83qs;99;False;1;P = T2?;ST1_low_2;1;Same;low;132;82;132;f;v;0;f;v;1714.5041999997375
7c#83qs;100;False;1;P = T2?;ST2_high_5;2;Same;high;96;132;132;f;v;1;f;v;847.2938999998405
7c#83qs;101;False;1;P = T1?;DT1_high_2;1;Different;high;112;82;132;f;v;1;j;v;937.0766000001822
7c#83qs;102;False;1;P = T2?;DT1_low_5;1;Different;low;96;154;82;f;v;1;j;v;835.080900000321
7c#83qs;103;False;1;P = T1?;ST2_low_3;2;Same;low;70;112;112;f;v;0;f;v;667.5394999997479
7c#83qs;104;False;1;P = T2?;STb_7;0;Same;None;154;154;154;f;v;1;f;v;884.441500000321
7c#83qs;105;False;1;P = T1?;ST1_high_1;1;Same;high;82;112;82;f;v;0;j;v;3408.0246999997144
7c#83qs;106;False;1;P = T1?;DT1_low_5;1;Different;low;96;154;82;f;v;0;f;v;909.985300000244
7c#83qs;107;False;1;P = T1?;ST1_high_6;1;Same;high;132;96;132;f;v;1;f;v;2904.5961000001626
7c#83qs;108;False;1;P = T2?;ST1_high_3;1;Same;high;70;96;70;f;v;1;j;v;933.8773999998011
7c#83qs;109;False;1;P = T1?;ST2_high_2;2;Same;high;112;82;82;f;v;1;j;v;4109.8282000002655
7c#83qs;110;False;1;P = T1?;ST1_low_4;1;Same;low;112;70;112;f;v;1;f;v;1207.6689000000442
7c#83qs;111;False;1;P = T1?;ST2_high_2;2;Same;high;112;82;82;f;v;1;j;v;1247.446399999717
7c#83qs;112;False;1;P = T1?;ST2_low_4;2;Same;low;112;70;70;f;v;1;j;v;3144.5361000000958
7c#83qs;113;False;1;P = T1?;ST1_low_1;1;Same;low;82;132;82;f;v;1;f;v;1035.4886999998598
7c#83qs;114;False;1;P = T2?;STb_6;0;Same;None;132;132;132;f;v;1;f;b;6317.842800000108
7c#83qs;115;False;1;P = T1?;ST1_high_4;1;Same;high;96;70;96;f;v;1;f;v;1137.1186999999736
7c#83qs;116;False;1;P = T1?;ST2_high_3;2;Same;high;70;96;96;f;v;0;f;v;964.7288999999546
7c#83qs;117;False;1;P = T2?;ST2_low_2;2;Same;low;132;82;82;f;v;0;j;v;1214.8253999998815
7c#83qs;118;False;1;P = T1?;ST2_low_3;2;Same;low;70;112;112;f;v;0;f;v;1429.4631000002482
7c#83qs;119;False;1;P = T1?;ST2_low_6;2;Same;low;154;96;96;f;v;1;j;v;907.7932000000146
7c#83qs;120;False;1;P = T2?;ST2_high_4;2;Same;high;96;70;70;f;v;0;j;b;2341.520099999798
7c#83qs;121;False;1;P = T1?;ST2_low_4;2;Same;low;112;70;70;f;v;0;f;n;11846.128399999998
7c#83qs;122;False;1;P = T2?;ST1_low_3;1;Same;low;70;112;70;f;v;1;j;b;2174.76170000009
7c#83qs;123;False;1;P = T1?;ST1_high_2;1;Same;high;112;82;112;f;v;1;f;v;757.6599000003625
7c#83qs;124;False;1;P = T1?;ST2_low_2;2;Same;low;132;82;82;f;v;0;f;v;1132.013200000074
7c#83qs;125;False;1;P = T2?;ST1_low_3;1;Same;low;70;112;70;f;v;1;j;v;1322.0127999998113
7c#83qs;126;False;1;P = T1?;ST1_high_2;1;Same;high;112;82;112;f;v;1;f;v;551.7408000000614
7c#83qs;127;False;1;P = T1?;ST2_low_3;2;Same;low;70;112;112;f;v;1;j;v;1383.4513000001607
7c#83qs;128;False;1;P = T2?;ST1_low_1;1;Same;low;82;132;82;f;v;1;j;v;965.3823999997257
7c#83qs;129;False;1;P = T2?;ST1_high_6;1;Same;high;132;96;132;f;v;0;f;v;777.8309000000263
7c#83qs;130;False;1;P = T2?;ST1_low_5;1;Same;low;96;154;96;f;v;1;j;v;1018.1744999999864
7c#83qs;131;False;1;P = T2?;ST1_high_5;1;Same;high;96;132;96;f;v;1;j;v;1713.369000000057
7c#83qs;132;False;1;P = T2?;ST1_low_5;1;Same;low;96;154;96;f;v;1;j;v;1972.9863000002297
7c#83qs;133;False;1;P = T2?;ST1_high_4;1;Same;high;96;70;96;f;v;0;f;n;7927.154599999994
7c#83qs;134;False;1;P = T2?;ST2_high_6;2;Same;high;132;96;96;f;v;0;j;v;3276.2253000000783
7c#83qs;135;False;1;P = T1?;ST2_high_1;2;Same;high;82;112;112;f;v;1;j;v;949.7354999998606
7c#83qs;136;False;1;P = T2?;ST2_low_4;2;Same;low;112;70;70;f;v;1;f;v;1007.442699999956
7c#83qs;137;False;1;P = T1?;ST2_low_2;2;Same;low;132;82;82;f;v;0;f;v;609.9544999997306
7c#83qs;138;False;1;P = T1?;STb_2;0;Same;None;70;70;70;f;v;1;f;v;653.2242999996924
7c#83qs;139;False;1;P = T1?;ST1_low_1;1;Same;low;82;132;82;f;v;1;f;v;4323.4535999999935
7c#83qs;140;False;1;P = T1?;ST1_low_5;1;Same;low;96;154;96;f;v;1;f;v;1500.887999999577
7c#83qs;141;False;1;P = T1?;ST2_high_4;2;Same;high;96;70;70;f;v;0;f;b;1243.536800000129
7c#83qs;142;False;1;P = T1?;ST1_low_2;1;Same;low;132;82;132;f;v;1;f;v;811.3284000000931
7c#83qs;143;False;1;P = T2?;ST1_high_2;1;Same;high;112;82;112;f;v;0;f;v;695.5572000001666
7c#83qs;144;False;1;P = T2?;ST2_high_3;2;Same;high;70;96;96;f;v;0;j;b;8538.23710000006
7c#83qs;145;False;1;P = T2?;ST2_high_1;2;Same;high;82;112;112;f;v;1;f;b;1591.4061999997102
7c#83qs;146;False;1;P = T1?;ST2_high_5;2;Same;high;96;132;132;f;v;0;f;v;4592.817700000069
7c#83qs;147;False;1;P = T2?;DT1_high_5;1;Different;high;96;132;82;f;v;0;f;v;1213.4366000000227
7c#83qs;148;False;1;P = T2?;ST1_high_3;1;Same;high;70;96;70;f;v;1;j;v;3457.0072000001346
7c#83qs;149;False;1;P = T2?;ST1_high_4;1;Same;high;96;70;96;f;v;1;j;v;1131.7158000001655
7c#83qs;150;False;1;P = T1?;ST2_high_3;2;Same;high;70;96;96;f;v;0;f;v;2210.0956999997834
7c#83qs;151;False;1;P = T2?;ST1_high_1;1;Same;high;82;112;82;f;v;1;j;v;2354.8240999998598
7c#83qs;152;False;1;P = T1?;ST2_high_4;2;Same;high;96;70;70;f;v;0;f;v;2192.78149999991
7c#83qs;153;False;1;P = T1?;ST2_high_6;2;Same;high;132;96;96;f;v;1;j;v;2721.7617999999675
7c#83qs;154;False;1;P = T2?;ST2_high_4;2;Same;high;96;70;70;f;v;1;f;v;3911.551600000166
7c#83qs;155;False;1;P = T1?;ST2_high_1;2;Same;high;82;112;112;f;v;0;f;v;939.4806000000244
7c#83qs;156;False;1;P = T2?;ST1_low_2;1;Same;low;132;82;132;f;v;0;f;v;781.3310000001366
7c#83qs;157;False;1;P = T1?;ST2_low_6;2;Same;low;154;96;96;f;v;0;f;v;970.354000000043
7c#83qs;158;False;1;P = T1?;ST2_high_6;2;Same;high;132;96;96;f;v;0;f;v;617.5253999999768
7c#83qs;159;False;1;P = T2?;ST2_high_3;2;Same;high;70;96;96;f;v;1;f;v;719.7525000001406
7c#83qs;160;False;1;P = T2?;ST2_low_5;2;Same;low;96;154;154;f;v;1;f;v;755.7230000002164
7c#83qs;161;False;1;P = T1?;STb_7;0;Same;None;154;154;154;f;v;0;j;v;912.7912999997534
7c#83qs;162;False;1;P = T2?;ST2_high_2;2;Same;high;112;82;82;f;v;1;f;v;466.73459999965417
7c#83qs;163;False;1;P = T2?;ST1_high_5;1;Same;high;96;132;96;f;v;1;j;v;1823.2837000000472
7c#83qs;164;False;1;P = T2?;ST1_low_4;1;Same;low;112;70;112;f;v;1;j;v;2224.899800000003
7c#83qs;165;False;1;P = T2?;ST2_high_2;2;Same;high;112;82;82;f;v;0;j;v;1844.8609999995824
7c#83qs;166;False;1;P = T1?;ST1_low_3;1;Same;low;70;112;70;f;v;1;f;b;5501.064999999926
7c#83qs;167;False;1;P = T2?;DT2_high_6;2;Different;high;132;96;82;f;v;0;f;n;6190.621500000361
7c#83qs;168;False;1;P = T1?;ST2_high_1;2;Same;high;82;112;112;f;v;0;f;v;723.3168000002479
7c#83qs;169;False;1;P = T2?;STb_2;0;Same;None;70;70;70;f;v;1;f;v;199.48939999994764
7c#83qs;170;False;1;P = T1?;ST1_low_3;1;Same;low;70;112;70;f;v;0;j;v;1392.8533999996944
7c#83qs;171;False;1;P = T2?;ST2_low_2;2;Same;low;132;82;82;f;v;1;f;n;7777.265600000192
7c#83qs;172;False;1;P = T2?;ST2_high_2;2;Same;high;112;82;82;f;v;1;f;v;699.8916000002282
7c#83qs;173;False;1;P = T1?;ST1_low_5;1;Same;low;96;154;96;f;v;1;f;v;796.1350999999013
7c#83qs;174;False;1;P = T2?;ST1_high_5;1;Same;high;96;132;96;f;v;0;f;v;607.3136999998496
7c#83qs;175;False;1;P = T2?;STb_1;0;Same;None;60;60;60;f;v;1;f;v;930.1491999999598
7c#83qs;176;False;1;P = T1?;ST1_low_5;1;Same;low;96;154;96;f;v;1;f;v;735.9795000002123
7c#83qs;1;True;2;P != T2?;STb_6;0;Same;None;132;132;132;f;v;1;j;v;2003.5619999998744
7c#83qs;2;True;2;P != T1?;STb_2;0;Same;None;70;70;70;f;v;1;j;v;1874.5958999998038
7c#83qs;3;True;2;P != T2?;DT2_low_2;2;Different;low;132;82;70;f;v;1;f;v;2016.543300000194
7c#83qs;4;True;2;P != T2?;ST1_low_3;1;Same;low;70;112;70;f;v;0;j;v;2631.3617000000704
7c#83qs;5;True;2;P != T1?;ST1_high_4;1;Same;high;96;70;96;f;v;1;j;v;1029.5081000003847
7c#83qs;6;True;2;P != T2?;ST2_low_4;2;Same;low;112;70;70;f;v;1;j;v;1402.4246000003586
7c#83qs;7;True;2;P != T1?;ST2_low_4;2;Same;low;112;70;70;f;v;1;f;v;1428.68929999986
7c#83qs;8;True;2;P != T2?;STb_5;0;Same;None;112;112;112;f;v;1;j;v;1142.9006000003028
7c#83qs;9;True;2;P != T1?;ST2_high_6;2;Same;high;132;96;96;f;v;1;f;v;1831.2997000002724
7c#83qs;10;True;2;P != T2?;ST2_low_4;2;Same;low;112;70;70;f;v;1;j;v;759.7584999998617
7c#83qs;11;True;2;P != T1?;STb_6;0;Same;None;132;132;132;f;v;1;j;v;271.4523000004192
7c#83qs;12;True;2;P != T2?;DT2_high_2;2;Different;high;112;82;70;f;v;1;f;v;744.2467000000761
7c#83qs;13;True;2;P != T1?;ST1_high_5;1;Same;high;96;132;96;f;v;0;f;v;784.6518000001197
7c#83qs;14;True;2;P != T1?;DT1_high_3;1;Different;high;70;96;60;f;v;1;f;v;1748.2826999998906
7c#83qs;15;True;2;P != T2?;ST1_high_2;1;Same;high;112;82;112;f;v;0;j;v;849.3406999996296
7c#83qs;16;True;2;P != T1?;DT2_low_2;2;Different;low;132;82;70;f;v;0;j;v;3387.451200000214
7c#83qs;1;False;2;P != T1?;ST2_low_2;2;Same;low;132;82;82;f;v;0;j;v;1466.1227999999937
7c#83qs;2;False;2;P != T2?;ST2_high_3;2;Same;high;70;96;96;f;v;0;f;v;1266.8788999999379
7c#83qs;3;False;2;P != T2?;STb_1;0;Same;None;60;60;60;f;v;1;j;v;848.5787999998138
7c#83qs;4;False;2;P != T2?;STb_6;0;Same;None;132;132;132;f;v;1;j;v;617.5278000000617
7c#83qs;5;False;2;P != T1?;ST2_high_6;2;Same;high;132;96;96;f;v;0;j;v;50.09829999971771
7c#83qs;6;False;2;P != T1?;DT1_low_4;1;Different;low;112;70;132;f;v;1;f;v;869.1963999999643
7c#83qs;7;False;2;P != T2?;ST2_low_2;2;Same;low;132;82;82;f;v;1;j;v;906.2275000001137
7c#83qs;8;False;2;P != T1?;ST1_low_4;1;Same;low;112;70;112;f;v;0;f;b;2511.4441999999144
7c#83qs;9;False;2;P != T2?;DT2_high_2;2;Different;high;112;82;70;f;v;0;j;v;882.941700000174
7c#83qs;10;False;2;P != T1?;ST1_high_2;1;Same;high;112;82;112;f;v;0;f;v;1600.5481000001964
7c#83qs;11;False;2;P != T1?;ST2_high_4;2;Same;high;96;70;70;f;v;0;j;b;2565.6991999999263
7c#83qs;12;False;2;P != T1?;DT1_low_2;1;Different;low;132;82;154;f;v;0;j;b;3585.450999999921
7c#83qs;13;False;2;P != T1?;ST1_high_5;1;Same;high;96;132;96;f;v;1;j;b;4690.7225999998445
7c#83qs;14;False;2;P != T2?;ST1_high_6;1;Same;high;132;96;132;f;v;0;j;v;906.3000000001011
7c#83qs;15;False;2;P != T1?;ST2_low_3;2;Same;low;70;112;112;f;v;1;f;b;4878.929399999834
7c#83qs;16;False;2;P != T2?;STb_7;0;Same;None;154;154;154;f;v;1;j;v;251.30170000011276
7c#83qs;17;False;2;P != T1?;ST1_low_1;1;Same;low;82;132;82;f;v;1;j;v;146.03960000022198
7c#83qs;18;False;2;P != T1?;ST2_low_5;2;Same;low;96;154;154;f;v;1;f;v;1988.047800000004
7c#83qs;19;False;2;P != T1?;ST2_low_1;2;Same;low;82;132;132;f;v;0;j;v;950.8409000000029
7c#83qs;20;False;2;P != T2?;ST1_low_6;1;Same;low;154;96;154;f;v;1;f;v;1052.7361999997993
7c#83qs;21;False;2;P != T1?;ST1_low_3;1;Same;low;70;112;70;f;v;1;j;v;2967.812600000343
7c#83qs;22;False;2;P != T1?;ST2_low_5;2;Same;low;96;154;154;f;v;1;f;v;1181.8099000001894
7c#83qs;23;False;2;P != T2?;ST1_low_3;1;Same;low;70;112;70;f;v;0;j;v;214.52600000020539
7c#83qs;24;False;2;P != T1?;ST1_low_1;1;Same;low;82;132;82;f;v;1;j;v;1793.961599999875
7c#83qs;25;False;2;P != T2?;ST2_high_2;2;Same;high;112;82;82;f;v;1;j;v;1728.632800000014
7c#83qs;26;False;2;P != T1?;ST1_high_3;1;Same;high;70;96;70;f;v;1;j;v;4073.068400000011
7c#83qs;27;False;2;P != T2?;ST1_high_1;1;Same;high;82;112;82;f;v;0;j;v;447.21860000026936
7c#83qs;28;False;2;P != T2?;ST1_low_4;1;Same;low;112;70;112;f;v;0;j;v;883.5206999997354
7c#83qs;29;False;2;P != T2?;ST2_high_3;2;Same;high;70;96;96;f;v;0;f;v;1646.733199999744
7c#83qs;30;False;2;P != T1?;ST1_low_5;1;Same;low;96;154;96;f;v;1;j;v;174.35129999967103
7c#83qs;31;False;2;P != T2?;ST1_high_6;1;Same;high;132;96;132;f;v;0;j;v;494.71600000015314
7c#83qs;32;False;2;P != T1?;ST1_low_3;1;Same;low;70;112;70;f;v;1;j;v;3744.7462000000087
7c#83qs;33;False;2;P != T1?;ST2_low_6;2;Same;low;154;96;96;f;v;0;j;v;3927.9185000004873
7c#83qs;34;False;2;P != T1?;ST1_low_2;1;Same;low;132;82;132;f;v;1;j;v;944.561799999974
7c#83qs;35;False;2;P != T2?;ST2_high_4;2;Same;high;96;70;70;f;v;1;j;v;1604.0992000007464
7c#83qs;36;False;2;P != T2?;ST2_high_4;2;Same;high;96;70;70;f;v;0;f;v;2180.3150999994614
7c#83qs;37;False;2;P != T2?;ST2_high_5;2;Same;high;96;132;132;f;v;0;f;b;8807.565699999941
7c#83qs;38;False;2;P != T2?;ST2_high_4;2;Same;high;96;70;70;f;v;1;j;v;4325.75369999995
7c#83qs;39;False;2;P != T1?;ST1_high_1;1;Same;high;82;112;82;f;v;1;j;v;6822.340199999417
7c#83qs;40;False;2;P != T2?;ST1_low_4;1;Same;low;112;70;112;f;v;0;j;v;167.59689999980765
7c#83qs;41;False;2;P != T1?;ST2_low_3;2;Same;low;70;112;112;f;v;0;j;v;7268.643000000338
7c#83qs;42;False;2;P != T1?;ST1_high_3;1;Same;high;70;96;70;f;v;0;f;v;2151.485899999898
7c#83qs;43;False;2;P != T2?;DT2_high_5;2;Different;high;96;132;154;f;v;1;f;v;6179.062600000179
7c#83qs;44;False;2;P != T1?;DT1_high_4;1;Different;high;96;70;112;f;v;0;j;v;241.2322000000131
7c#83qs;45;False;2;P != T1?;ST2_low_1;2;Same;low;82;132;132;f;v;0;j;v;7916.078300000663
7c#83qs;46;False;2;P != T2?;DT1_low_1;1;Different;low;82;132;70;f;v;0;j;v;1256.8837000007989
7c#83qs;47;False;2;P != T1?;ST1_high_2;1;Same;high;112;82;112;f;v;0;f;v;1195.0120999999854
7c#83qs;48;False;2;P != T2?;STb_4;0;Same;None;96;96;96;f;v;0;f;b;1953.8720000000467
7c#83qs;49;False;2;P != T2?;ST1_low_2;1;Same;low;132;82;132;f;v;0;j;v;2238.413600000058
7c#83qs;50;False;2;P != T1?;ST2_low_2;2;Same;low;132;82;82;f;v;1;f;b;6854.1723999996975
7c#83qs;51;False;2;P != T2?;ST2_low_1;2;Same;low;82;132;132;f;v;1;j;v;29.98129999923549
7c#83qs;52;False;2;P != T2?;ST1_high_1;1;Same;high;82;112;82;f;v;1;f;v;3780.7186
7c#83qs;53;False;2;P != T2?;ST2_low_3;2;Same;low;70;112;112;f;v;1;j;v;913.9849999992293
7c#83qs;54;False;2;P != T2?;ST2_low_2;2;Same;low;132;82;82;f;v;0;f;v;1728.6598999999114
7c#83qs;55;False;2;P != T2?;ST2_high_5;2;Same;high;96;132;132;f;v;1;j;v;975.2361999999266
7c#83qs;56;False;2;P != T1?;ST2_low_3;2;Same;low;70;112;112;f;v;1;f;v;3076.324499999828
7c#83qs;57;False;2;P != T2?;ST1_high_5;1;Same;high;96;132;96;f;v;0;j;v;1360.0801999991745
7c#83qs;58;False;2;P != T2?;DT1_low_6;1;Different;low;154;96;180;f;v;0;j;v;1301.9171999994796
7c#83qs;59;False;2;P != T2?;ST1_high_5;1;Same;high;96;132;96;f;v;0;j;v;910.763699999734
7c#83qs;60;False;2;P != T1?;ST1_high_1;1;Same;high;82;112;82;f;v;1;j;v;1747.8476000005685
7c#83qs;61;False;2;P != T1?;STb_7;0;Same;None;154;154;154;f;v;0;f;v;986.1094999996567
7c#83qs;62;False;2;P != T1?;DT1_high_2;1;Different;high;112;82;132;f;v;1;f;v;2437.4032999994597
7c#83qs;63;False;2;P != T2?;ST1_low_5;1;Same;low;96;154;96;f;v;1;f;v;735.0826000001689
7c#83qs;64;False;2;P != T2?;ST2_low_1;2;Same;low;82;132;132;f;v;1;j;v;3649.7561999995014
7c#83qs;65;False;2;P != T1?;ST2_high_1;2;Same;high;82;112;112;f;v;1;f;v;1639.5644999993237
7c#83qs;66;False;2;P != T2?;ST2_low_6;2;Same;low;154;96;96;f;v;0;f;v;1339.805399999932
7c#83qs;67;False;2;P != T2?;ST1_high_3;1;Same;high;70;96;70;f;v;0;j;v;656.0777000004236
7c#83qs;68;False;2;P != T2?;ST2_high_6;2;Same;high;132;96;96;f;v;1;j;v;5351.593200000025
7c#83qs;69;False;2;P != T2?;ST1_low_1;1;Same;low;82;132;82;f;v;0;j;n;2200.6403000004866
7c#83qs;70;False;2;P != T2?;ST1_low_2;1;Same;low;132;82;132;f;v;1;f;v;3559.3551000001753
7c#83qs;71;False;2;P != T1?;ST2_high_3;2;Same;high;70;96;96;f;v;1;f;v;1358.7999999999738
7c#83qs;72;False;2;P != T1?;ST1_low_6;1;Same;low;154;96;154;f;v;1;j;v;1100.3150999995341
7c#83qs;73;False;2;P != T2?;ST2_high_6;2;Same;high;132;96;96;f;v;1;j;v;1631.2448999997287
7c#83qs;74;False;2;P != T2?;ST2_high_1;2;Same;high;82;112;112;f;v;0;f;v;952.2659999993266
7c#83qs;75;False;2;P != T2?;ST1_low_6;1;Same;low;154;96;154;f;v;1;f;v;784.726199999568
7c#83qs;76;False;2;P != T2?;ST1_high_2;1;Same;high;112;82;112;f;v;1;f;v;1042.243399999279
7c#83qs;77;False;2;P != T1?;ST2_high_1;2;Same;high;82;112;112;f;v;1;f;v;371.67369999951916
7c#83qs;78;False;2;P != T1?;ST1_low_3;1;Same;low;70;112;70;f;v;1;j;v;738.889599999311
7c#83qs;79;False;2;P != T1?;STb_2;0;Same;None;70;70;70;f;v;0;f;b;7052.802299999712
7c#83qs;80;False;2;P != T2?;DT1_low_3;1;Different;low;70;112;60;f;v;0;j;v;917.5613000006706
7c#83qs;81;False;2;P != T2?;ST1_high_5;1;Same;high;96;132;96;f;v;0;j;v;770.7134000002043
7c#83qs;82;False;2;P != T1?;STb_3;0;Same;None;82;82;82;f;v;0;f;v;2283.9355000005526
7c#83qs;83;False;2;P != T1?;ST1_high_4;1;Same;high;96;70;96;f;v;0;f;n;4063.7602000006154
7c#83qs;84;False;2;P != T1?;ST1_high_6;1;Same;high;132;96;132;f;v;1;j;v;1092.177300000003
7c#83qs;85;False;2;P != T1?;ST2_low_6;2;Same;low;154;96;96;f;v;1;f;v;963.7862999998106
7c#83qs;86;False;2;P != T2?;DT1_high_1;1;Different;high;82;112;70;f;v;1;f;v;1261.6317999991224
7c#83qs;87;False;2;P != T2?;ST1_low_3;1;Same;low;70;112;70;f;v;1;f;v;1049.4714000005843
7c#83qs;88;False;2;P != T2?;ST2_high_2;2;Same;high;112;82;82;f;v;1;j;v;750.3071000001
7c#83qs;89;False;2;P != T2?;ST2_low_5;2;Same;low;96;154;154;f;v;1;j;v;725.2195000000938
7c#83qs;90;False;2;P != T1?;ST2_high_6;2;Same;high;132;96;96;f;v;1;f;v;1217.8504000003159
7c#83qs;91;False;2;P != T2?;ST2_low_1;2;Same;low;82;132;132;f;v;1;j;v;669.7480000002543
7c#83qs;92;False;2;P != T2?;ST2_low_6;2;Same;low;154;96;96;f;v;0;f;v;4613.1790999997975
7c#83qs;93;False;2;P != T1?;STb_4;0;Same;None;96;96;96;f;v;0;f;v;2319.30949999969
7c#83qs;94;False;2;P != T2?;ST2_low_5;2;Same;low;96;154;154;f;v;1;j;v;745.2322999997705
7c#83qs;95;False;2;P != T1?;ST1_low_1;1;Same;low;82;132;82;f;v;1;j;v;745.747200000551
7c#83qs;96;False;2;P != T1?;ST2_high_5;2;Same;high;96;132;132;f;v;1;f;v;788.4083999997529
7c#83qs;97;False;2;P != T1?;ST1_high_6;1;Same;high;132;96;132;f;v;1;j;v;1820.3796999996484
7c#83qs;98;False;2;P != T2?;ST1_low_5;1;Same;low;96;154;96;f;v;0;j;v;931.8644000004497
7c#83qs;99;False;2;P != T2?;ST1_high_2;1;Same;high;112;82;112;f;v;1;f;b;2544.8593000000983
7c#83qs;100;False;2;P != T2?;ST2_low_4;2;Same;low;112;70;70;f;v;0;f;b;4993.8045999997485
7c#83qs;101;False;2;P != T2?;ST2_low_5;2;Same;low;96;154;154;f;v;1;j;b;10220.786799999587
7c#83qs;102;False;2;P != T2?;ST1_low_1;1;Same;low;82;132;82;f;v;0;j;v;1108.2264000006035
7c#83qs;103;False;2;P != T2?;ST2_low_4;2;Same;low;112;70;70;f;v;1;j;v;4394.500700000208
7c#83qs;104;False;2;P != T2?;ST1_low_2;1;Same;low;132;82;132;f;v;0;j;b;7066.65299999986
7c#83qs;105;False;2;P != T2?;ST1_high_1;1;Same;high;82;112;82;f;v;1;f;v;1953.4013000002233
7c#83qs;106;False;2;P != T2?;ST2_high_6;2;Same;high;132;96;96;f;v;1;j;v;1724.363600000288
7c#83qs;107;False;2;P != T1?;ST1_high_4;1;Same;high;96;70;96;f;v;0;f;v;1731.0518000003867
7c#83qs;108;False;2;P != T1?;ST2_low_1;2;Same;low;82;132;132;f;v;0;j;v;2775.8261999997558
7c#83qs;109;False;2;P != T1?;ST1_low_5;1;Same;low;96;154;96;f;v;1;j;v;3109.329899999466
7c#83qs;110;False;2;P != T1?;ST2_high_2;2;Same;high;112;82;82;f;v;0;j;v;2205.9753000003184
7c#83qs;111;False;2;P != T1?;ST2_high_5;2;Same;high;96;132;132;f;v;1;f;v;872.5137000001268
7c#83qs;112;False;2;P != T2?;DT1_high_6;1;Different;high;132;96;154;f;v;0;j;v;6532.798000000184
7c#83qs;113;False;2;P != T1?;ST1_low_6;1;Same;low;154;96;154;f;v;1;j;v;3760.0781000001007
7c#83qs;114;False;2;P != T1?;ST2_high_3;2;Same;high;70;96;96;f;v;0;j;b;3913.9143999991575
7c#83qs;115;False;2;P != T2?;ST2_high_2;2;Same;high;112;82;82;f;v;0;f;b;2276.8677999993088
7c#83qs;116;False;2;P != T2?;ST1_low_6;1;Same;low;154;96;154;f;v;0;j;v;817.3114999999598
7c#83qs;117;False;2;P != T1?;ST2_high_3;2;Same;high;70;96;96;f;v;0;j;v;2694.1946000006283
7c#83qs;118;False;2;P != T1?;ST1_high_2;1;Same;high;112;82;112;f;v;0;f;v;1316.5405999998256
7c#83qs;119;False;2;P != T2?;STb_3;0;Same;None;82;82;82;f;v;1;j;v;806.4183000005869
7c#83qs;120;False;2;P != T1?;ST2_high_4;2;Same;high;96;70;70;f;v;1;f;v;913.390900000195
7c#83qs;121;False;2;P != T2?;ST2_low_3;2;Same;low;70;112;112;f;v;0;f;v;885.5203000002803
7c#83qs;122;False;2;P != T1?;STb_5;0;Same;None;112;112;112;f;v;0;f;v;418.3781000001545
7c#83qs;123;False;2;P != T1?;DT2_low_6;2;Different;low;154;96;82;f;v;1;f;b;750.822099999823
7c#83qs;124;False;2;P != T2?;ST1_high_4;1;Same;high;96;70;96;f;v;1;f;b;750.7347999999183
7c#83qs;125;False;2;P != T1?;ST2_high_5;2;Same;high;96;132;132;f;v;1;f;v;1323.0265000001964
7c#83qs;126;False;2;P != T1?;ST1_low_6;1;Same;low;154;96;154;f;v;1;j;v;938.8684000005014
7c#83qs;127;False;2;P != T2?;STb_8;0;Same;None;180;180;180;f;v;1;j;v;3493.9388999991934
7c#83qs;128;False;2;P != T2?;ST2_low_2;2;Same;low;132;82;82;f;v;0;f;v;5773.200800000268
7c#83qs;129;False;2;P != T1?;ST2_low_6;2;Same;low;154;96;96;f;v;0;j;v;634.2081999991933
7c#83qs;130;False;2;P != T1?;STb_1;0;Same;None;60;60;60;f;v;0;f;v;1225.1560999993671
7c#83qs;131;False;2;P != T1?;ST2_low_4;2;Same;low;112;70;70;f;v;1;f;v;834.8980000000665
7c#83qs;132;False;2;P != T2?;ST1_low_4;1;Same;low;112;70;112;f;v;1;f;v;2675.5996000001687
7c#83qs;133;False;2;P != T2?;STb_5;0;Same;None;112;112;112;f;v;1;j;v;1321.5863000004902
7c#83qs;134;False;2;P != T2?;ST1_high_3;1;Same;high;70;96;70;f;v;0;j;n;6736.880700000256
7c#83qs;135;False;2;P != T1?;ST2_low_4;2;Same;low;112;70;70;f;v;1;f;b;1478.681499999766
7c#83qs;136;False;2;P != T1?;ST1_high_6;1;Same;high;132;96;132;f;v;0;f;v;1106.292499999654
7c#83qs;137;False;2;P != T2?;ST2_low_3;2;Same;low;70;112;112;f;v;1;j;v;723.9484000001539
7c#83qs;138;False;2;P != T1?;ST1_low_5;1;Same;low;96;154;96;f;v;1;j;b;2498.9402999999584
7c#83qs;139;False;2;P != T1?;ST2_high_4;2;Same;high;96;70;70;f;v;1;f;b;1844.0589000001637
7c#83qs;140;False;2;P != T2?;ST2_high_1;2;Same;high;82;112;112;f;v;0;f;v;998.9464999998745
7c#83qs;141;False;2;P != T1?;ST1_low_4;1;Same;low;112;70;112;f;v;1;j;v;2508.119000000079
7c#83qs;142;False;2;P != T1?;ST2_high_1;2;Same;high;82;112;112;f;v;1;f;v;1500.0587000004089
7c#83qs;143;False;2;P != T2?;STb_2;0;Same;None;70;70;70;f;v;1;j;v;865.1042999999845
7c#83qs;144;False;2;P != T1?;ST1_high_4;1;Same;high;96;70;96;f;v;0;f;v;495.596700000533
7c#83qs;145;False;2;P != T2?;ST1_high_4;1;Same;high;96;70;96;f;v;0;j;v;1604.5758999998725
7c#83qs;146;False;2;P != T1?;ST1_high_1;1;Same;high;82;112;82;f;v;1;j;v;658.0890000004729
7c#83qs;147;False;2;P != T1?;ST2_high_2;2;Same;high;112;82;82;f;v;0;j;v;900.6765999993149
7c#83qs;148;False;2;P != T1?;ST2_high_6;2;Same;high;132;96;96;f;v;1;f;b;1006.8926000003557
7c#83qs;149;False;2;P != T1?;DT2_high_6;2;Different;high;132;96;82;f;v;1;f;b;3323.256699999547
7c#83qs;150;False;2;P != T2?;DT2_high_1;2;Different;high;82;112;132;f;v;1;f;b;1482.8063999993901
7c#83qs;151;False;2;P != T1?;STb_6;0;Same;None;132;132;132;f;v;1;j;n;3031.5377000006265
7c#83qs;152;False;2;P != T2?;ST1_low_1;1;Same;low;82;132;82;f;v;1;f;b;2644.598699999733
7c#83qs;153;False;2;P != T1?;ST2_low_5;2;Same;low;96;154;154;f;v;1;f;v;903.4344000001511
7c#83qs;154;False;2;P != T2?;ST1_low_5;1;Same;low;96;154;96;f;v;0;j;v;892.9781999995612
7c#83qs;155;False;2;P != T2?;ST1_high_6;1;Same;high;132;96;132;f;v;0;j;v;772.8005999997549
7c#83qs;156;False;2;P != T1?;ST2_low_2;2;Same;low;132;82;82;f;v;1;f;v;2902.197299999898
7c#83qs;157;False;2;P != T2?;ST2_high_1;2;Same;high;82;112;112;f;v;0;f;v;747.0617999997557
7c#83qs;158;False;2;P != T2?;ST1_high_4;1;Same;high;96;70;96;f;v;1;f;b;2823.996099999931
7c#83qs;159;False;2;P != T1?;ST1_high_5;1;Same;high;96;132;96;f;v;1;j;v;3599.7843999994075
7c#83qs;160;False;2;P != T1?;ST1_high_5;1;Same;high;96;132;96;f;v;0;f;b;4940.605499999947
7c#83qs;161;False;2;P != T1?;STb_8;0;Same;None;180;180;180;f;v;1;j;v;809.8728000004485
7c#83qs;162;False;2;P != T2?;ST1_high_3;1;Same;high;70;96;70;f;v;0;j;v;1145.1170999998794
7c#83qs;163;False;2;P != T2?;ST1_low_3;1;Same;low;70;112;70;f;v;1;f;v;989.457399999992
7c#83qs;164;False;2;P != T2?;ST2_low_4;2;Same;low;112;70;70;f;v;1;j;v;787.9994999993869
7c#83qs;165;False;2;P != T2?;ST2_high_5;2;Same;high;96;132;132;f;v;0;f;v;1273.7441999997827
7c#83qs;166;False;2;P != T2?;ST2_low_6;2;Same;low;154;96;96;f;v;1;j;v;7628.236500000639
7c#83qs;167;False;2;P != T1?;ST1_low_2;1;Same;low;132;82;132;f;v;1;j;b;3878.509699999995
7c#83qs;168;False;2;P != T2?;ST2_high_3;2;Same;high;70;96;96;f;v;0;f;b;4192.008899999564
7c#83qs;169;False;2;P != T1?;ST1_low_4;1;Same;low;112;70;112;f;v;1;j;b;8703.847699999642
7c#83qs;170;False;2;P != T1?;ST1_low_2;1;Same;low;132;82;132;f;v;1;j;v;851.2177000002339
7c#83qs;171;False;2;P != T1?;DT2_low_4;2;Different;low;112;70;60;f;v;1;f;v;835.459400000218
7c#83qs;172;False;2;P != T1?;ST2_low_4;2;Same;low;112;70;70;f;v;1;f;b;1543.9338000005591
7c#83qs;173;False;2;P != T1?;ST2_high_2;2;Same;high;112;82;82;f;v;0;j;b;4143.036600000414
7c#83qs;174;False;2;P != T1?;ST1_high_3;1;Same;high;70;96;70;f;v;0;f;n;5761.534600000232
7c#83qs;175;False;2;P != T2?;ST1_high_2;1;Same;high;112;82;112;f;v;1;f;b;1886.7333999996845
7c#83qs;176;False;2;P != T1?;DT2_low_5;2;Different;low;96;154;180;f;v;1;f;b;2971.8158000005133
