p_code;trial_nr;practice;block;question;condition;seqPos;Same_or_Diff;ITS;T1_hz;T2_hz;P_hz;yes_key;sure_key;correct;yes_no;rating;resp_time
ic1x#07;1;True;1;P = T1?;ST2_high_4;2;Same;high;96;70;70;f;n;1;j;n;4022.102700000687
ic1x#07;2;True;1;P = T2?;ST2_high_6;2;Same;high;132;96;96;f;n;1;f;v;11421.654300000228
ic1x#07;3;True;1;P = T1?;ST2_high_3;2;Same;high;70;96;96;f;n;1;j;b;2291.984699997556
ic1x#07;4;True;1;P = T2?;DT1_high_1;1;Different;high;82;112;70;f;n;0;f;b;2894.77049999914
ic1x#07;5;True;1;P = T2?;ST1_high_4;1;Same;high;96;70;96;f;n;0;f;b;2183.322099997895
ic1x#07;6;True;1;P = T1?;ST1_low_2;1;Same;low;132;82;132;f;n;1;f;v;3086.908000001131
ic1x#07;7;True;1;P = T2?;DT2_high_2;2;Different;high;112;82;70;f;n;1;j;n;1909.592200001498
ic1x#07;8;True;1;P = T1?;STb_7;0;Same;None;154;154;154;f;n;1;f;n;2192.7842000004603
ic1x#07;9;True;1;P = T1?;ST1_low_2;1;Same;low;132;82;132;f;n;1;f;b;1296.8585000016901
ic1x#07;10;True;1;P = T2?;STb_1;0;Same;None;60;60;60;f;n;1;f;b;1916.2679000000935
ic1x#07;11;True;1;P = T2?;ST2_high_5;2;Same;high;96;132;132;f;n;1;f;b;1072.8257000009762
ic1x#07;12;True;1;P = T1?;STb_6;0;Same;None;132;132;132;f;n;1;f;n;1238.3441000019957
ic1x#07;13;True;1;P = T1?;DT1_high_4;1;Different;high;96;70;112;f;n;1;j;n;4938.895499999489
ic1x#07;14;True;1;P = T2?;ST1_low_5;1;Same;low;96;154;96;f;n;1;j;n;1698.437400002149
ic1x#07;15;True;1;P = T1?;DT1_low_2;1;Different;low;132;82;154;f;n;0;f;v;2303.1371000033687
ic1x#07;16;True;1;P = T2?;STb_7;0;Same;None;154;154;154;f;n;1;f;n;1334.5523000025423
p_code;trial_nr;practice;block;question;condition;seqPos;Same_or_Diff;ITS;T1_hz;T2_hz;P_hz;yes_key;sure_key;correct;yes_no;rating;resp_time
ic1x#07;1;False;1;P = T2?;ST1_high_4;1;Same;high;96;70;96;f;n;0;f;v;8440.108300001157
ic1x#07;2;False;1;P = T1?;STb_5;0;Same;None;112;112;112;f;n;0;j;b;1445.8823000022676
ic1x#07;3;False;1;P = T1?;ST2_high_2;2;Same;high;112;82;82;f;n;1;j;n;2005.35050000326
ic1x#07;4;False;1;P = T2?;ST1_high_4;1;Same;high;96;70;96;f;n;0;f;b;1741.8361000018194
ic1x#07;5;False;1;P = T1?;DT1_high_1;1;Different;high;82;112;70;f;n;0;f;n;1335.9129999989818
ic1x#07;6;False;1;P = T1?;ST2_low_1;2;Same;low;82;132;132;f;n;1;j;v;3318.8740000005055
ic1x#07;7;False;1;P = T2?;ST1_high_1;1;Same;high;82;112;82;f;n;0;f;n;1764.5314000001235
ic1x#07;8;False;1;P = T2?;ST2_high_6;2;Same;high;132;96;96;f;n;1;f;b;2312.849499998265
ic1x#07;9;False;1;P = T2?;STb_2;0;Same;None;70;70;70;f;n;1;f;n;2292.8226000003633
ic1x#07;10;False;1;P = T1?;ST2_high_3;2;Same;high;70;96;96;f;n;0;f;b;2651.261599999998
ic1x#07;11;False;1;P = T2?;ST1_high_6;1;Same;high;132;96;132;f;n;1;j;b;1203.9917000001878
ic1x#07;12;False;1;P = T2?;ST1_low_2;1;Same;low;132;82;132;f;n;1;j;n;1576.1319999983243
ic1x#07;13;False;1;P = T2?;ST1_low_4;1;Same;low;112;70;112;f;n;1;j;n;1287.271299999702
ic1x#07;14;False;1;P = T1?;ST2_high_6;2;Same;high;132;96;96;f;n;1;j;n;1645.3765999976895
ic1x#07;15;False;1;P = T1?;ST2_high_1;2;Same;high;82;112;112;f;n;0;f;b;1105.3530999997747
ic1x#07;16;False;1;P = T2?;ST1_high_3;1;Same;high;70;96;70;f;n;0;f;v;6549.37770000106
ic1x#07;17;False;1;P = T1?;DT1_low_5;1;Different;low;96;154;82;f;n;0;f;v;1416.7876999999862
ic1x#07;18;False;1;P = T1?;ST1_low_6;1;Same;low;154;96;154;f;n;0;j;b;2565.49730000188
ic1x#07;19;False;1;P = T1?;ST1_low_5;1;Same;low;96;154;96;f;n;1;f;b;612.9154000009294
ic1x#07;20;False;1;P = T2?;ST2_low_5;2;Same;low;96;154;154;f;n;1;f;n;1630.9744999998657
ic1x#07;21;False;1;P = T1?;ST1_low_3;1;Same;low;70;112;70;f;n;1;f;v;4956.383900000219
ic1x#07;22;False;1;P = T2?;ST2_low_5;2;Same;low;96;154;154;f;n;1;f;b;1443.4186999969825
ic1x#07;23;False;1;P = T2?;ST2_low_5;2;Same;low;96;154;154;f;n;1;f;n;3758.386100002099
ic1x#07;24;False;1;P = T1?;ST2_high_4;2;Same;high;96;70;70;f;n;1;j;b;2674.771199999668
ic1x#07;25;False;1;P = T2?;STb_6;0;Same;None;132;132;132;f;n;1;f;n;1445.0959000023431
ic1x#07;26;False;1;P = T2?;ST2_low_1;2;Same;low;82;132;132;f;n;0;j;b;1560.3472000002512
ic1x#07;27;False;1;P = T2?;ST1_high_1;1;Same;high;82;112;82;f;n;1;j;b;1273.374699998385
ic1x#07;28;False;1;P = T2?;DT2_high_4;2;Different;high;96;70;60;f;n;0;f;b;2015.3511999997136
ic1x#07;29;False;1;P = T1?;ST1_high_4;1;Same;high;96;70;96;f;n;0;j;v;3484.644299998763
ic1x#07;30;False;1;P = T1?;ST2_low_2;2;Same;low;132;82;82;f;n;1;j;n;1627.1283000023686
ic1x#07;31;False;1;P = T1?;ST1_high_3;1;Same;high;70;96;70;f;n;1;f;b;2263.6549999988347
ic1x#07;32;False;1;P = T1?;ST2_high_1;2;Same;high;82;112;112;f;n;0;f;b;1868.8436999982514
ic1x#07;33;False;1;P = T1?;ST1_high_1;1;Same;high;82;112;82;f;n;0;j;n;6398.313899997447
ic1x#07;34;False;1;P = T1?;STb_1;0;Same;None;60;60;60;f;n;1;f;b;2719.8367999990296
ic1x#07;35;False;1;P = T2?;ST2_high_4;2;Same;high;96;70;70;f;n;1;f;b;1932.4090000009164
ic1x#07;36;False;1;P = T2?;ST1_high_6;1;Same;high;132;96;132;f;n;0;f;b;2113.3115999982692
ic1x#07;37;False;1;P = T1?;ST1_low_3;1;Same;low;70;112;70;f;n;1;f;n;1149.6246999995492
ic1x#07;38;False;1;P = T2?;ST2_low_6;2;Same;low;154;96;96;f;n;1;f;b;3680.01589999767
ic1x#07;39;False;1;P = T2?;ST2_high_6;2;Same;high;132;96;96;f;n;0;j;b;1151.0491000008187
ic1x#07;40;False;1;P = T2?;ST1_low_3;1;Same;low;70;112;70;f;n;0;f;b;1553.8487000012537
ic1x#07;41;False;1;P = T2?;ST1_low_3;1;Same;low;70;112;70;f;n;1;j;n;1232.5992999976734
ic1x#07;42;False;1;P = T1?;ST2_low_3;2;Same;low;70;112;112;f;n;0;f;b;1240.125900003477
ic1x#07;43;False;1;P = T1?;DT2_high_4;2;Different;high;96;70;60;f;n;0;f;b;2199.3970000039553
ic1x#07;44;False;1;P = T2?;ST2_low_2;2;Same;low;132;82;82;f;n;1;f;b;1512.3422000033315
ic1x#07;45;False;1;P = T1?;ST2_low_2;2;Same;low;132;82;82;f;n;1;j;n;4311.9441000017105
ic1x#07;46;False;1;P = T2?;STb_5;0;Same;None;112;112;112;f;n;1;f;b;2551.475500004017
ic1x#07;47;False;1;P = T1?;ST1_low_1;1;Same;low;82;132;82;f;n;1;f;n;1038.1622999993851
ic1x#07;48;False;1;P = T2?;ST2_low_3;2;Same;low;70;112;112;f;n;1;f;v;9153.616900002817
ic1x#07;49;False;1;P = T1?;ST1_high_3;1;Same;high;70;96;70;f;n;1;f;n;1015.5367999977898
ic1x#07;50;False;1;P = T1?;ST1_high_6;1;Same;high;132;96;132;f;n;0;j;b;1445.7474000009825
ic1x#07;51;False;1;P = T2?;ST2_low_1;2;Same;low;82;132;132;f;n;1;f;n;1498.0742999978247
ic1x#07;52;False;1;P = T2?;ST2_high_3;2;Same;high;70;96;96;f;n;1;f;b;1295.054899994284
ic1x#07;53;False;1;P = T1?;ST2_high_5;2;Same;high;96;132;132;f;n;1;j;b;2911.0001000008197
ic1x#07;54;False;1;P = T2?;DT2_high_5;2;Different;high;96;132;154;f;n;1;j;v;4948.8104000047315
ic1x#07;55;False;1;P = T1?;ST1_high_2;1;Same;high;112;82;112;f;n;1;f;n;1096.0411999985809
ic1x#07;56;False;1;P = T2?;STb_4;0;Same;None;96;96;96;f;n;1;f;v;1688.7458999990486
ic1x#07;57;False;1;P = T1?;ST2_low_3;2;Same;low;70;112;112;f;n;0;f;b;1236.1396999986027
ic1x#07;58;False;1;P = T1?;ST1_high_5;1;Same;high;96;132;96;f;n;0;j;n;1600.95359999832
ic1x#07;59;False;1;P = T2?;ST2_high_5;2;Same;high;96;132;132;f;n;0;j;v;4837.135699999635
ic1x#07;60;False;1;P = T1?;ST1_low_2;1;Same;low;132;82;132;f;n;0;j;b;1774.9550999942585
ic1x#07;61;False;1;P = T1?;ST2_low_3;2;Same;low;70;112;112;f;n;1;j;b;1675.4489999948419
ic1x#07;62;False;1;P = T2?;ST2_high_3;2;Same;high;70;96;96;f;n;1;f;n;1307.603699999163
ic1x#07;63;False;1;P = T1?;ST2_low_4;2;Same;low;112;70;70;f;n;1;j;b;1191.188200005854
ic1x#07;64;False;1;P = T1?;ST1_high_1;1;Same;high;82;112;82;f;n;0;j;v;1926.3842000000295
ic1x#07;65;False;1;P = T2?;ST2_low_2;2;Same;low;132;82;82;f;n;1;f;n;1535.5659999986528
ic1x#07;66;False;1;P = T2?;ST1_high_4;1;Same;high;96;70;96;f;n;0;f;n;1076.0295000000042
ic1x#07;67;False;1;P = T2?;ST2_low_6;2;Same;low;154;96;96;f;n;1;f;b;1024.171799996111
ic1x#07;68;False;1;P = T1?;ST1_high_4;1;Same;high;96;70;96;f;n;1;f;v;1000.509500001499
ic1x#07;69;False;1;P = T2?;ST1_high_5;1;Same;high;96;132;96;f;n;0;f;b;2220.081499996013
ic1x#07;70;False;1;P = T2?;DT1_low_1;1;Different;low;82;132;70;f;n;1;j;b;1632.4028000017279
ic1x#07;71;False;1;P = T1?;ST2_low_5;2;Same;low;96;154;154;f;n;1;j;n;1230.7168999977876
ic1x#07;72;False;1;P = T1?;STb_7;0;Same;None;154;154;154;f;n;1;f;v;3401.102100004209
ic1x#07;73;False;1;P = T1?;ST1_high_6;1;Same;high;132;96;132;f;n;0;j;v;1556.9579000002705
ic1x#07;74;False;1;P = T2?;ST2_low_4;2;Same;low;112;70;70;f;n;1;f;v;5880.981399997836
ic1x#07;75;False;1;P = T1?;ST1_high_5;1;Same;high;96;132;96;f;n;1;f;v;3104.368500004057
ic1x#07;76;False;1;P = T2?;STb_3;0;Same;None;82;82;82;f;n;1;f;n;1459.057899999607
ic1x#07;77;False;1;P = T1?;ST2_high_4;2;Same;high;96;70;70;f;n;0;f;b;1203.2706000027247
ic1x#07;78;False;1;P = T1?;ST2_high_3;2;Same;high;70;96;96;f;n;0;f;b;2032.1191999973962
ic1x#07;79;False;1;P = T1?;ST2_high_4;2;Same;high;96;70;70;f;n;1;j;b;997.3108999984106
ic1x#07;80;False;1;P = T1?;ST1_high_1;1;Same;high;82;112;82;f;n;0;j;v;4160.302199998114
ic1x#07;81;False;1;P = T1?;ST2_low_1;2;Same;low;82;132;132;f;n;1;j;b;1636.2383000014233
ic1x#07;82;False;1;P = T2?;ST1_high_3;1;Same;high;70;96;70;f;n;0;f;b;5225.5577000032645
ic1x#07;83;False;1;P = T2?;ST2_high_1;2;Same;high;82;112;112;f;n;0;j;b;1033.079100001487
ic1x#07;84;False;1;P = T2?;ST2_low_2;2;Same;low;132;82;82;f;n;1;f;v;3432.9269000008935
ic1x#07;85;False;1;P = T2?;ST2_high_5;2;Same;high;96;132;132;f;n;1;f;v;1672.1675000007963
ic1x#07;86;False;1;P = T1?;ST1_high_4;1;Same;high;96;70;96;f;n;1;f;v;4461.069600001792
ic1x#07;87;False;1;P = T1?;ST2_high_3;2;Same;high;70;96;96;f;n;0;f;v;1311.6111999988789
ic1x#07;88;False;1;P = T1?;ST1_high_2;1;Same;high;112;82;112;f;n;1;f;n;1142.3013000021456
ic1x#07;89;False;1;P = T2?;DT1_low_4;1;Different;low;112;70;132;f;n;1;j;n;2859.6641999974963
ic1x#07;90;False;1;P = T2?;ST1_low_6;1;Same;low;154;96;154;f;n;1;j;n;1269.0443000028608
ic1x#07;91;False;1;P = T1?;DT1_high_6;1;Different;high;132;96;154;f;n;1;j;v;4620.347099997161
ic1x#07;92;False;1;P = T2?;ST2_high_3;2;Same;high;70;96;96;f;n;1;f;b;1139.8305000038818
ic1x#07;93;False;1;P = T1?;ST2_low_4;2;Same;low;112;70;70;f;n;0;f;b;1317.4684999976307
ic1x#07;94;False;1;P = T1?;ST1_low_4;1;Same;low;112;70;112;f;n;1;f;n;994.0569000027608
ic1x#07;95;False;1;P = T2?;ST2_high_1;2;Same;high;82;112;112;f;n;1;f;n;1525.401700004295
ic1x#07;96;False;1;P = T2?;ST1_high_5;1;Same;high;96;132;96;f;n;0;f;v;5900.431599999138
ic1x#07;97;False;1;P = T1?;DT2_low_2;2;Different;low;132;82;70;f;n;1;j;n;1359.1680999961682
ic1x#07;98;False;1;P = T1?;ST2_low_1;2;Same;low;82;132;132;f;n;1;j;n;2350.3203999935067
ic1x#07;99;False;1;P = T2?;STb_8;0;Same;None;180;180;180;f;n;1;f;n;2552.7471999957925
ic1x#07;100;False;1;P = T1?;ST1_low_2;1;Same;low;132;82;132;f;n;1;f;n;1728.8714999958756
ic1x#07;101;False;1;P = T1?;STb_4;0;Same;None;96;96;96;f;n;0;j;v;1270.8533000040916
ic1x#07;102;False;1;P = T1?;DT1_high_3;1;Different;high;70;96;60;f;n;0;f;v;7909.89940000145
ic1x#07;103;False;1;P = T2?;ST2_high_2;2;Same;high;112;82;82;f;n;1;f;n;1263.9746999993804
ic1x#07;104;False;1;P = T2?;ST1_low_1;1;Same;low;82;132;82;f;n;1;j;b;1335.7041999988724
ic1x#07;105;False;1;P = T2?;ST1_low_6;1;Same;low;154;96;154;f;n;1;j;n;1824.9157999962335
ic1x#07;106;False;1;P = T2?;ST2_low_1;2;Same;low;82;132;132;f;n;0;j;b;1227.1605000059935
ic1x#07;107;False;1;P = T2?;ST1_low_6;1;Same;low;154;96;154;f;n;1;j;b;3208.1866999942577
ic1x#07;108;False;1;P = T2?;ST1_high_2;1;Same;high;112;82;112;f;n;0;f;b;3368.6851000020397
ic1x#07;109;False;1;P = T1?;ST2_high_6;2;Same;high;132;96;96;f;n;0;f;b;1946.1410000003525
ic1x#07;110;False;1;P = T1?;ST2_high_2;2;Same;high;112;82;82;f;n;1;j;v;9239.908299998206
ic1x#07;111;False;1;P = T2?;ST1_high_5;1;Same;high;96;132;96;f;n;1;j;n;1145.9222999983467
ic1x#07;112;False;1;P = T1?;ST2_low_2;2;Same;low;132;82;82;f;n;1;j;n;2684.7844000003533
ic1x#07;113;False;1;P = T1?;ST1_low_5;1;Same;low;96;154;96;f;n;1;f;b;2008.3317000026
ic1x#07;114;False;1;P = T1?;ST2_high_5;2;Same;high;96;132;132;f;n;1;j;b;4143.371399994066
ic1x#07;115;False;1;P = T2?;DT2_low_6;2;Different;low;154;96;82;f;n;1;j;v;3165.4139000020223
ic1x#07;116;False;1;P = T2?;ST2_high_5;2;Same;high;96;132;132;f;n;1;f;v;2485.9731000033207
ic1x#07;117;False;1;P = T1?;STb_8;0;Same;None;180;180;180;f;n;1;f;n;1288.8777000043774
ic1x#07;118;False;1;P = T2?;ST2_low_4;2;Same;low;112;70;70;f;n;1;f;n;1137.943500005349
ic1x#07;119;False;1;P = T2?;ST2_low_3;2;Same;low;70;112;112;f;n;1;f;b;3812.7547999974922
ic1x#07;120;False;1;P = T1?;ST2_low_6;2;Same;low;154;96;96;f;n;1;j;b;1891.9873999984702
ic1x#07;121;False;1;P = T2?;ST1_low_2;1;Same;low;132;82;132;f;n;1;j;b;944.5238999978756
ic1x#07;122;False;1;P = T2?;ST2_high_6;2;Same;high;132;96;96;f;n;1;f;v;3220.6593999944744
ic1x#07;123;False;1;P = T2?;ST1_low_3;1;Same;low;70;112;70;f;n;0;f;b;2331.3746999992873
ic1x#07;124;False;1;P = T2?;ST1_low_5;1;Same;low;96;154;96;f;n;0;f;v;2759.1983000020264
ic1x#07;125;False;1;P = T2?;ST2_low_6;2;Same;low;154;96;96;f;n;1;f;n;2323.315099994943
ic1x#07;126;False;1;P = T1?;ST1_high_5;1;Same;high;96;132;96;f;n;1;f;v;6135.27780000004
ic1x#07;127;False;1;P = T1?;DT2_low_3;2;Different;low;70;112;132;f;n;0;f;b;2085.3875000029802
ic1x#07;128;False;1;P = T2?;ST1_high_3;1;Same;high;70;96;70;f;n;0;f;v;2010.6492999984766
ic1x#07;129;False;1;P = T2?;ST2_low_4;2;Same;low;112;70;70;f;n;1;f;n;1449.1341999964789
ic1x#07;130;False;1;P = T1?;ST2_low_4;2;Same;low;112;70;70;f;n;1;j;b;1632.1096000028774
ic1x#07;131;False;1;P = T2?;ST1_low_5;1;Same;low;96;154;96;f;n;1;j;n;1095.0010999949882
ic1x#07;132;False;1;P = T1?;ST1_low_4;1;Same;low;112;70;112;f;n;0;j;v;2738.254900003085
ic1x#07;133;False;1;P = T2?;ST2_high_4;2;Same;high;96;70;70;f;n;0;j;v;2256.784500001231
ic1x#07;134;False;1;P = T1?;ST1_low_2;1;Same;low;132;82;132;f;n;1;f;b;959.6644999983255
ic1x#07;135;False;1;P = T1?;ST1_low_3;1;Same;low;70;112;70;f;n;1;f;v;2157.4325999972643
ic1x#07;136;False;1;P = T2?;ST1_low_2;1;Same;low;132;82;132;f;n;1;j;n;1348.789299998316
ic1x#07;137;False;1;P = T2?;ST2_high_2;2;Same;high;112;82;82;f;n;1;f;n;2601.470199995674
ic1x#07;138;False;1;P = T1?;ST2_high_5;2;Same;high;96;132;132;f;n;0;f;v;4269.649299996672
ic1x#07;139;False;1;P = T1?;ST1_low_1;1;Same;low;82;132;82;f;n;1;f;b;1290.895799997088
ic1x#07;140;False;1;P = T2?;DT1_high_5;1;Different;high;96;132;82;f;n;1;j;n;1089.3149999974412
ic1x#07;141;False;1;P = T2?;ST2_high_4;2;Same;high;96;70;70;f;n;1;f;n;2072.4723000021186
ic1x#07;142;False;1;P = T1?;ST2_low_5;2;Same;low;96;154;154;f;n;0;f;b;1013.0700000008801
ic1x#07;143;False;1;P = T1?;ST1_low_6;1;Same;low;154;96;154;f;n;1;f;b;990.496999998868
ic1x#07;144;False;1;P = T1?;STb_2;0;Same;None;70;70;70;f;n;0;j;v;4719.224899999972
ic1x#07;145;False;1;P = T2?;ST1_high_2;1;Same;high;112;82;112;f;n;0;f;b;2606.1228000035044
ic1x#07;146;False;1;P = T1?;ST1_high_3;1;Same;high;70;96;70;f;n;1;f;b;1594.8992999983602
ic1x#07;147;False;1;P = T1?;STb_6;0;Same;None;132;132;132;f;n;0;j;v;3500.5872000037925
ic1x#07;148;False;1;P = T1?;ST2_low_5;2;Same;low;96;154;154;f;n;1;j;v;1364.7662000003038
ic1x#07;149;False;1;P = T2?;ST1_low_1;1;Same;low;82;132;82;f;n;0;f;v;7234.691200006637
ic1x#07;150;False;1;P = T1?;ST1_high_2;1;Same;high;112;82;112;f;n;0;j;n;2010.7051000013598
ic1x#07;151;False;1;P = T2?;ST1_high_6;1;Same;high;132;96;132;f;n;0;f;b;1304.2638000042643
ic1x#07;152;False;1;P = T2?;ST1_high_2;1;Same;high;112;82;112;f;n;0;f;b;3490.217599995958
ic1x#07;153;False;1;P = T2?;ST1_low_4;1;Same;low;112;70;112;f;n;1;j;n;1156.665399998019
ic1x#07;154;False;1;P = T2?;STb_7;0;Same;None;154;154;154;f;n;1;f;n;1656.9206999993185
ic1x#07;155;False;1;P = T1?;ST1_low_6;1;Same;low;154;96;154;f;n;1;f;b;4827.522699997644
ic1x#07;156;False;1;P = T2?;ST2_high_2;2;Same;high;112;82;82;f;n;0;j;b;1714.2045000000508
ic1x#07;157;False;1;P = T1?;ST1_high_6;1;Same;high;132;96;132;f;n;1;f;b;1184.988599998178
ic1x#07;158;False;1;P = T2?;ST1_low_5;1;Same;low;96;154;96;f;n;0;f;b;4321.603500000492
ic1x#07;159;False;1;P = T2?;STb_1;0;Same;None;60;60;60;f;n;1;f;n;3380.199100000027
ic1x#07;160;False;1;P = T1?;ST1_low_1;1;Same;low;82;132;82;f;n;1;f;v;4180.6911999956355
ic1x#07;161;False;1;P = T1?;DT1_low_1;1;Different;low;82;132;70;f;n;0;f;n;1261.7642999975942
ic1x#07;162;False;1;P = T2?;ST1_high_1;1;Same;high;82;112;82;f;n;1;j;n;1171.676900004968
ic1x#07;163;False;1;P = T1?;ST1_low_5;1;Same;low;96;154;96;f;n;0;j;v;4068.9746999996714
ic1x#07;164;False;1;P = T2?;ST1_low_1;1;Same;low;82;132;82;f;n;1;j;b;886.6985999993631
ic1x#07;165;False;1;P = T2?;DT2_high_3;2;Different;high;70;96;112;f;n;0;f;b;1424.2400000002817
ic1x#07;166;False;1;P = T1?;ST1_low_4;1;Same;low;112;70;112;f;n;1;f;v;2418.5920000018086
ic1x#07;167;False;1;P = T1?;ST2_low_6;2;Same;low;154;96;96;f;n;1;j;b;2733.6119999963557
ic1x#07;168;False;1;P = T1?;ST2_high_2;2;Same;high;112;82;82;f;n;1;j;b;942.3177999997279
ic1x#07;169;False;1;P = T2?;ST2_high_1;2;Same;high;82;112;112;f;n;0;j;b;2725.5420999936177
ic1x#07;170;False;1;P = T1?;STb_3;0;Same;None;82;82;82;f;n;0;j;v;6320.231600002444
ic1x#07;171;False;1;P = T2?;DT2_high_1;2;Different;high;82;112;132;f;n;1;j;v;3029.4809999977588
ic1x#07;172;False;1;P = T2?;ST2_low_3;2;Same;low;70;112;112;f;n;1;f;n;1906.886899996607
ic1x#07;173;False;1;P = T2?;ST1_low_4;1;Same;low;112;70;112;f;n;0;f;v;1885.3929999968386
ic1x#07;174;False;1;P = T1?;ST2_low_6;2;Same;low;154;96;96;f;n;1;j;n;1135.5354999977862
ic1x#07;175;False;1;P = T1?;ST2_high_1;2;Same;high;82;112;112;f;n;1;j;n;1136.2387999979546
ic1x#07;176;False;1;P = T1?;ST2_high_6;2;Same;high;132;96;96;f;n;0;f;n;1157.6088000001619
ic1x#07;1;True;2;P != T1?;ST2_high_1;2;Same;high;82;112;112;f;n;1;f;v;8707.058500003768
ic1x#07;2;True;2;P != T2?;STb_4;0;Same;None;96;96;96;f;n;1;j;n;2573.7940999970306
ic1x#07;3;True;2;P != T2?;DT2_low_3;2;Different;low;70;112;132;f;n;0;j;n;2252.0761000050697
ic1x#07;4;True;2;P != T1?;DT1_high_5;1;Different;high;96;132;82;f;n;1;f;v;5619.7758999987855
ic1x#07;5;True;2;P != T2?;ST2_low_5;2;Same;low;96;154;154;f;n;1;j;n;1887.3224999988452
ic1x#07;6;True;2;P != T1?;ST2_low_6;2;Same;low;154;96;96;f;n;1;f;n;2214.0208999990136
ic1x#07;7;True;2;P != T1?;ST1_high_6;1;Same;high;132;96;132;f;n;0;f;b;1412.463699998625
ic1x#07;8;True;2;P != T2?;DT1_high_3;1;Different;high;70;96;60;f;n;1;f;b;1398.1114999987767
ic1x#07;9;True;2;P != T2?;STb_5;0;Same;None;112;112;112;f;n;1;j;b;1684.4105999989551
ic1x#07;10;True;2;P != T2?;ST1_low_5;1;Same;low;96;154;96;f;n;1;f;v;1659.890800001449
ic1x#07;11;True;2;P != T1?;STb_4;0;Same;None;96;96;96;f;n;0;f;v;6829.584999999497
ic1x#07;12;True;2;P != T2?;ST2_high_5;2;Same;high;96;132;132;f;n;0;f;v;2945.246399998723
ic1x#07;13;True;2;P != T1?;ST1_low_5;1;Same;low;96;154;96;f;n;1;j;n;1399.6593999981997
ic1x#07;14;True;2;P != T2?;ST1_low_1;1;Same;low;82;132;82;f;n;0;j;b;1646.565199996985
ic1x#07;15;True;2;P != T1?;DT2_high_3;2;Different;high;70;96;112;f;n;0;j;b;1463.220600002387
ic1x#07;16;True;2;P != T1?;STb_7;0;Same;None;154;154;154;f;n;1;j;v;2986.037299997406
ic1x#07;1;False;2;P != T2?;ST1_high_2;1;Same;high;112;82;112;f;n;0;j;b;1467.7097000021604
ic1x#07;2;False;2;P != T2?;ST2_high_6;2;Same;high;132;96;96;f;n;1;j;b;1441.7891999983112
ic1x#07;3;False;2;P != T2?;ST2_low_1;2;Same;low;82;132;132;f;n;1;j;n;1075.63300000038
ic1x#07;4;False;2;P != T1?;ST1_low_5;1;Same;low;96;154;96;f;n;1;j;v;3581.134899999597
ic1x#07;5;False;2;P != T2?;ST2_low_1;2;Same;low;82;132;132;f;n;1;j;n;1854.7720999995363
ic1x#07;6;False;2;P != T2?;ST2_high_1;2;Same;high;82;112;112;f;n;1;j;n;1321.6690000044764
ic1x#07;7;False;2;P != T2?;STb_1;0;Same;None;60;60;60;f;n;1;j;n;1559.7724999970524
ic1x#07;8;False;2;P != T2?;ST2_high_4;2;Same;high;96;70;70;f;n;1;j;n;1492.4270000046818
ic1x#07;9;False;2;P != T2?;ST2_high_3;2;Same;high;70;96;96;f;n;1;j;n;1112.3087000014493
ic1x#07;10;False;2;P != T2?;STb_8;0;Same;None;180;180;180;f;n;1;j;n;999.5082999957958
ic1x#07;11;False;2;P != T1?;ST2_high_5;2;Same;high;96;132;132;f;n;0;j;v;5039.97309999977
ic1x#07;12;False;2;P != T2?;DT2_low_1;2;Different;low;82;132;154;f;n;0;j;v;1917.6041000027908
ic1x#07;13;False;2;P != T2?;ST2_high_5;2;Same;high;96;132;132;f;n;1;j;b;3976.153499999782
ic1x#07;14;False;2;P != T1?;ST2_high_4;2;Same;high;96;70;70;f;n;1;f;v;2555.077999997593
ic1x#07;15;False;2;P != T1?;ST2_low_6;2;Same;low;154;96;96;f;n;1;f;b;2416.931299994758
ic1x#07;16;False;2;P != T1?;ST2_high_6;2;Same;high;132;96;96;f;n;1;f;v;6444.5673000009265
ic1x#07;17;False;2;P != T1?;STb_3;0;Same;None;82;82;82;f;n;0;f;b;4108.692600006179
ic1x#07;18;False;2;P != T2?;ST2_low_5;2;Same;low;96;154;154;f;n;1;j;n;3235.2960999996867
ic1x#07;19;False;2;P != T1?;STb_1;0;Same;None;60;60;60;f;n;1;j;b;3090.692500001751
ic1x#07;20;False;2;P != T2?;STb_7;0;Same;None;154;154;154;f;n;1;j;n;1159.5065999936196
ic1x#07;21;False;2;P != T1?;ST1_low_6;1;Same;low;154;96;154;f;n;1;j;n;1007.3350000020582
ic1x#07;22;False;2;P != T1?;ST2_low_4;2;Same;low;112;70;70;f;n;1;f;n;1936.9117000023834
ic1x#07;23;False;2;P != T1?;ST1_low_6;1;Same;low;154;96;154;f;n;1;j;n;1456.151400001545
ic1x#07;24;False;2;P != T2?;ST2_low_2;2;Same;low;132;82;82;f;n;1;j;n;1446.9386000055238
ic1x#07;25;False;2;P != T2?;ST1_low_3;1;Same;low;70;112;70;f;n;1;f;b;2166.2158999970416
ic1x#07;26;False;2;P != T1?;ST2_low_5;2;Same;low;96;154;154;f;n;0;j;v;2422.4907999960124
ic1x#07;27;False;2;P != T1?;ST2_high_1;2;Same;high;82;112;112;f;n;1;f;v;6504.201499999908
ic1x#07;28;False;2;P != T1?;ST2_high_3;2;Same;high;70;96;96;f;n;1;f;v;3273.5799999936717
ic1x#07;29;False;2;P != T2?;ST1_high_6;1;Same;high;132;96;132;f;n;1;f;v;1773.9271000027657
ic1x#07;30;False;2;P != T1?;ST1_high_5;1;Same;high;96;132;96;f;n;1;j;b;2908.3073000001605
ic1x#07;31;False;2;P != T1?;ST2_high_3;2;Same;high;70;96;96;f;n;0;j;n;1806.7757999961032
ic1x#07;32;False;2;P != T1?;ST2_high_2;2;Same;high;112;82;82;f;n;1;f;n;1777.518399998371
ic1x#07;33;False;2;P != T1?;ST2_low_1;2;Same;low;82;132;132;f;n;0;j;n;1588.8484000024619
ic1x#07;34;False;2;P != T1?;ST2_low_5;2;Same;low;96;154;154;f;n;0;j;b;2924.7581000017817
ic1x#07;35;False;2;P != T1?;ST1_low_5;1;Same;low;96;154;96;f;n;1;j;b;1154.97580000374
ic1x#07;36;False;2;P != T1?;ST1_low_1;1;Same;low;82;132;82;f;n;1;j;b;3828.9065999997547
ic1x#07;37;False;2;P != T2?;ST2_high_1;2;Same;high;82;112;112;f;n;1;j;v;3035.739899998589
ic1x#07;38;False;2;P != T2?;ST2_low_3;2;Same;low;70;112;112;f;n;1;j;n;4757.44929999928
ic1x#07;39;False;2;P != T1?;ST2_low_1;2;Same;low;82;132;132;f;n;1;f;b;2173.9818999994895
ic1x#07;40;False;2;P != T1?;ST1_low_4;1;Same;low;112;70;112;f;n;0;f;b;1487.2842999975546
ic1x#07;41;False;2;P != T1?;STb_2;0;Same;None;70;70;70;f;n;1;j;b;2408.55709999596
ic1x#07;42;False;2;P != T1?;ST2_low_2;2;Same;low;132;82;82;f;n;1;f;b;4543.003900005715
ic1x#07;43;False;2;P != T2?;ST1_low_6;1;Same;low;154;96;154;f;n;0;j;b;8801.406799997494
ic1x#07;44;False;2;P != T2?;ST1_high_3;1;Same;high;70;96;70;f;n;0;j;n;1525.5948999983957
ic1x#07;45;False;2;P != T1?;DT1_low_4;1;Different;low;112;70;132;f;n;0;j;n;1560.6269999989308
ic1x#07;46;False;2;P != T1?;ST2_low_4;2;Same;low;112;70;70;f;n;1;f;b;2120.004500000505
ic1x#07;47;False;2;P != T1?;ST1_low_5;1;Same;low;96;154;96;f;n;1;j;v;6389.62690000335
ic1x#07;48;False;2;P != T2?;ST2_low_5;2;Same;low;96;154;154;f;n;1;j;b;1870.1251999955275
ic1x#07;49;False;2;P != T2?;DT2_high_3;2;Different;high;70;96;112;f;n;0;j;v;1871.2892000039574
ic1x#07;50;False;2;P != T2?;STb_5;0;Same;None;112;112;112;f;n;1;j;b;3246.2238000007346
ic1x#07;51;False;2;P != T2?;ST1_high_4;1;Same;high;96;70;96;f;n;0;j;b;1455.6953999999678
ic1x#07;52;False;2;P != T1?;ST1_high_1;1;Same;high;82;112;82;f;n;1;j;v;4045.2848999993876
ic1x#07;53;False;2;P != T2?;ST2_high_2;2;Same;high;112;82;82;f;n;1;j;n;1643.9489999975194
ic1x#07;54;False;2;P != T2?;ST2_high_5;2;Same;high;96;132;132;f;n;1;j;n;1067.477799995686
ic1x#07;55;False;2;P != T1?;DT2_low_3;2;Different;low;70;112;132;f;n;0;j;n;2008.7536000064574
ic1x#07;56;False;2;P != T2?;ST2_high_1;2;Same;high;82;112;112;f;n;1;j;b;4194.336299995484
ic1x#07;57;False;2;P != T2?;ST1_low_4;1;Same;low;112;70;112;f;n;0;j;v;5019.3803000001935
ic1x#07;58;False;2;P != T2?;ST1_low_2;1;Same;low;132;82;132;f;n;0;j;v;1248.6529000016162
ic1x#07;59;False;2;P != T2?;ST1_high_1;1;Same;high;82;112;82;f;n;0;j;n;3000.6284000046435
ic1x#07;60;False;2;P != T2?;ST2_low_2;2;Same;low;132;82;82;f;n;1;j;n;2289.965600000869
ic1x#07;61;False;2;P != T1?;ST2_high_5;2;Same;high;96;132;132;f;n;1;f;b;1814.673099994252
ic1x#07;62;False;2;P != T2?;ST2_high_2;2;Same;high;112;82;82;f;n;1;j;b;4844.455400001607
ic1x#07;63;False;2;P != T2?;ST2_low_2;2;Same;low;132;82;82;f;n;1;j;v;2090.7420000003185
ic1x#07;64;False;2;P != T2?;ST1_high_1;1;Same;high;82;112;82;f;n;0;j;b;1679.875500005437
ic1x#07;65;False;2;P != T2?;ST1_low_6;1;Same;low;154;96;154;f;n;1;f;n;2373.136299996986
ic1x#07;66;False;2;P != T1?;ST2_low_4;2;Same;low;112;70;70;f;n;1;f;n;1865.4185000050347
ic1x#07;67;False;2;P != T1?;STb_8;0;Same;None;180;180;180;f;n;1;j;n;2916.527599998517
ic1x#07;68;False;2;P != T2?;ST1_high_5;1;Same;high;96;132;96;f;n;1;f;b;1816.613299997698
ic1x#07;69;False;2;P != T2?;ST2_high_6;2;Same;high;132;96;96;f;n;0;f;v;3208.749399993394
ic1x#07;70;False;2;P != T2?;ST1_high_4;1;Same;high;96;70;96;f;n;0;j;n;2830.0473999988753
ic1x#07;71;False;2;P != T1?;ST2_low_1;2;Same;low;82;132;132;f;n;1;f;b;2299.999300004856
ic1x#07;72;False;2;P != T1?;DT1_high_4;1;Different;high;96;70;112;f;n;1;f;b;5350.112000000081
ic1x#07;73;False;2;P != T2?;ST1_low_3;1;Same;low;70;112;70;f;n;0;j;n;1259.521500003757
ic1x#07;74;False;2;P != T1?;ST2_low_6;2;Same;low;154;96;96;f;n;0;j;n;1174.014399999578
ic1x#07;75;False;2;P != T2?;DT1_high_1;1;Different;high;82;112;70;f;n;1;f;b;1735.366699998849
ic1x#07;76;False;2;P != T1?;ST1_low_2;1;Same;low;132;82;132;f;n;1;j;b;4871.373900001345
ic1x#07;77;False;2;P != T1?;ST2_high_1;2;Same;high;82;112;112;f;n;0;j;n;1095.8677000016905
ic1x#07;78;False;2;P != T2?;ST1_high_2;1;Same;high;112;82;112;f;n;0;j;n;2817.8645000007236
ic1x#07;79;False;2;P != T1?;ST1_low_2;1;Same;low;132;82;132;f;n;0;f;v;3403.4524000016972
ic1x#07;80;False;2;P != T1?;ST1_high_1;1;Same;high;82;112;82;f;n;1;j;v;4313.2755999977235
ic1x#07;81;False;2;P != T2?;ST1_low_4;1;Same;low;112;70;112;f;n;0;j;b;8036.639999998442
ic1x#07;82;False;2;P != T1?;STb_6;0;Same;None;132;132;132;f;n;1;j;b;1395.2881000004709
ic1x#07;83;False;2;P != T1?;ST1_low_3;1;Same;low;70;112;70;f;n;1;j;n;997.8255000023637
ic1x#07;84;False;2;P != T2?;ST1_high_6;1;Same;high;132;96;132;f;n;1;f;n;2733.8100999986636
ic1x#07;85;False;2;P != T1?;ST2_high_4;2;Same;high;96;70;70;f;n;0;j;n;2889.6112000002177
ic1x#07;86;False;2;P != T1?;ST1_high_5;1;Same;high;96;132;96;f;n;1;j;n;3005.3044999949634
ic1x#07;87;False;2;P != T2?;ST2_high_6;2;Same;high;132;96;96;f;n;1;j;n;1659.7431999980472
ic1x#07;88;False;2;P != T2?;DT1_low_5;1;Different;low;96;154;82;f;n;1;f;n;2113.4571000002325
ic1x#07;89;False;2;P != T1?;ST1_high_6;1;Same;high;132;96;132;f;n;1;j;v;1980.3518999979133
ic1x#07;90;False;2;P != T1?;ST2_low_3;2;Same;low;70;112;112;f;n;0;j;b;1196.8613999997615
ic1x#07;91;False;2;P != T1?;ST2_low_2;2;Same;low;132;82;82;f;n;1;f;v;5197.038199999952
ic1x#07;92;False;2;P != T2?;ST2_low_3;2;Same;low;70;112;112;f;n;1;j;b;2104.8645000046236
ic1x#07;93;False;2;P != T2?;ST1_low_5;1;Same;low;96;154;96;f;n;1;f;b;1904.031699996267
ic1x#07;94;False;2;P != T1?;ST2_low_3;2;Same;low;70;112;112;f;n;1;f;b;2220.6432999955723
ic1x#07;95;False;2;P != T1?;ST2_high_2;2;Same;high;112;82;82;f;n;1;f;v;4404.26429999934
ic1x#07;96;False;2;P != T2?;STb_6;0;Same;None;132;132;132;f;n;1;j;b;3761.43189999857
ic1x#07;97;False;2;P != T2?;ST1_low_1;1;Same;low;82;132;82;f;n;1;f;n;1669.3563000007998
ic1x#07;98;False;2;P != T2?;ST2_low_5;2;Same;low;96;154;154;f;n;1;j;n;3524.936900001194
ic1x#07;99;False;2;P != T2?;ST1_high_1;1;Same;high;82;112;82;f;n;0;j;v;1717.369799996959
ic1x#07;100;False;2;P != T1?;ST1_low_6;1;Same;low;154;96;154;f;n;1;j;n;1072.6324999995995
ic1x#07;101;False;2;P != T2?;ST2_high_2;2;Same;high;112;82;82;f;n;1;j;v;3103.012799998396
ic1x#07;102;False;2;P != T1?;ST1_high_3;1;Same;high;70;96;70;f;n;0;f;b;2355.8870000051684
ic1x#07;103;False;2;P != T2?;ST1_high_4;1;Same;high;96;70;96;f;n;0;j;n;974.6442999967257
ic1x#07;104;False;2;P != T2?;ST2_high_5;2;Same;high;96;132;132;f;n;1;j;n;1465.0273000006564
ic1x#07;105;False;2;P != T1?;ST2_high_3;2;Same;high;70;96;96;f;n;0;j;n;1095.0797999976203
ic1x#07;106;False;2;P != T2?;ST2_high_3;2;Same;high;70;96;96;f;n;1;j;n;1387.2042999937548
ic1x#07;107;False;2;P != T2?;ST2_low_6;2;Same;low;154;96;96;f;n;1;j;v;4022.388999997929
ic1x#07;108;False;2;P != T2?;ST1_high_2;1;Same;high;112;82;112;f;n;0;j;v;5389.9760999993305
ic1x#07;109;False;2;P != T1?;ST1_low_1;1;Same;low;82;132;82;f;n;1;j;b;2686.1000999997486
ic1x#07;110;False;2;P != T2?;ST1_low_1;1;Same;low;82;132;82;f;n;0;j;b;1578.4739000009722
ic1x#07;111;False;2;P != T2?;ST1_high_3;1;Same;high;70;96;70;f;n;0;j;n;2208.786399998644
ic1x#07;112;False;2;P != T2?;DT2_low_5;2;Different;low;96;154;180;f;n;0;j;n;3473.5968000022694
ic1x#07;113;False;2;P != T2?;ST2_high_3;2;Same;high;70;96;96;f;n;1;j;v;3637.1115000001737
ic1x#07;114;False;2;P != T1?;ST1_high_5;1;Same;high;96;132;96;f;n;0;f;b;4496.685499994783
ic1x#07;115;False;2;P != T1?;ST1_low_4;1;Same;low;112;70;112;f;n;0;f;b;2417.4034999959986
ic1x#07;116;False;2;P != T1?;ST1_high_4;1;Same;high;96;70;96;f;n;1;j;n;1814.111600004253
ic1x#07;117;False;2;P != T1?;ST2_low_5;2;Same;low;96;154;154;f;n;1;f;v;1564.9514999968233
ic1x#07;118;False;2;P != T2?;DT1_low_4;1;Different;low;112;70;132;f;n;0;j;b;1240.4252999986056
ic1x#07;119;False;2;P != T1?;ST1_high_2;1;Same;high;112;82;112;f;n;1;j;v;5871.759800000291
ic1x#07;120;False;2;P != T2?;ST2_low_6;2;Same;low;154;96;96;f;n;1;j;b;1145.226000000548
ic1x#07;121;False;2;P != T2?;ST1_low_1;1;Same;low;82;132;82;f;n;1;f;n;2006.7315999986022
ic1x#07;122;False;2;P != T1?;ST2_high_6;2;Same;high;132;96;96;f;n;1;f;n;1403.8412000008975
ic1x#07;123;False;2;P != T2?;ST2_low_1;2;Same;low;82;132;132;f;n;1;j;n;906.7768000022625
ic1x#07;124;False;2;P != T2?;ST2_low_4;2;Same;low;112;70;70;f;n;1;j;n;1543.4361999941757
ic1x#07;125;False;2;P != T1?;ST1_high_6;1;Same;high;132;96;132;f;n;1;j;v;2603.902400005609
ic1x#07;126;False;2;P != T1?;ST1_high_2;1;Same;high;112;82;112;f;n;0;f;v;1290.488300001016
ic1x#07;127;False;2;P != T2?;ST1_low_5;1;Same;low;96;154;96;f;n;1;f;n;1701.5877999947406
ic1x#07;128;False;2;P != T1?;ST2_high_6;2;Same;high;132;96;96;f;n;0;j;v;2812.6103000031435
ic1x#07;129;False;2;P != T2?;ST1_high_6;1;Same;high;132;96;132;f;n;0;j;n;976.8309999999474
ic1x#07;130;False;2;P != T1?;ST1_high_1;1;Same;high;82;112;82;f;n;0;f;v;2596.743299996888
ic1x#07;131;False;2;P != T2?;ST2_low_6;2;Same;low;154;96;96;f;n;1;j;n;1244.2026999997324
ic1x#07;132;False;2;P != T2?;ST1_low_4;1;Same;low;112;70;112;f;n;0;j;n;6876.790100002836
ic1x#07;133;False;2;P != T1?;DT1_low_3;1;Different;low;70;112;60;f;n;1;f;v;1753.896000001987
ic1x#07;134;False;2;P != T2?;DT2_low_2;2;Different;low;132;82;70;f;n;0;j;b;1337.5594000026467
ic1x#07;135;False;2;P != T2?;ST1_high_3;1;Same;high;70;96;70;f;n;0;j;n;1197.936299999128
ic1x#07;136;False;2;P != T1?;ST1_high_3;1;Same;high;70;96;70;f;n;1;j;v;2159.2668000012054
ic1x#07;137;False;2;P != T1?;ST2_high_4;2;Same;high;96;70;70;f;n;1;f;b;1439.872099996137
ic1x#07;138;False;2;P != T2?;ST1_high_5;1;Same;high;96;132;96;f;n;0;j;n;733.820099994773
ic1x#07;139;False;2;P != T2?;ST1_low_3;1;Same;low;70;112;70;f;n;0;j;n;576.986100000795
ic1x#07;140;False;2;P != T2?;STb_3;0;Same;None;82;82;82;f;n;1;j;b;2970.03080000286
ic1x#07;141;False;2;P != T1?;DT1_high_5;1;Different;high;96;132;82;f;n;1;f;n;2928.9324000055785
ic1x#07;142;False;2;P != T2?;ST1_low_5;1;Same;low;96;154;96;f;n;0;j;v;2793.2325000001583
ic1x#07;143;False;2;P != T1?;ST2_low_2;2;Same;low;132;82;82;f;n;1;f;b;2270.251800000551
ic1x#07;144;False;2;P != T1?;ST2_high_2;2;Same;high;112;82;82;f;n;1;f;v;1420.261400002346
ic1x#07;145;False;2;P != T1?;STb_5;0;Same;None;112;112;112;f;n;1;j;v;7513.936499999545
ic1x#07;146;False;2;P != T1?;DT2_high_1;2;Different;high;82;112;132;f;n;0;j;b;2902.2761000014725
ic1x#07;147;False;2;P != T1?;ST1_high_2;1;Same;high;112;82;112;f;n;1;j;b;4952.137200001744
ic1x#07;148;False;2;P != T1?;ST1_low_4;1;Same;low;112;70;112;f;n;1;j;n;966.038300000946
ic1x#07;149;False;2;P != T1?;ST2_high_5;2;Same;high;96;132;132;f;n;0;j;n;1758.5997999995016
ic1x#07;150;False;2;P != T2?;STb_4;0;Same;None;96;96;96;f;n;1;j;n;1279.088099996443
ic1x#07;151;False;2;P != T2?;ST1_high_5;1;Same;high;96;132;96;f;n;0;j;n;1433.6920999994618
ic1x#07;152;False;2;P != T2?;ST2_high_4;2;Same;high;96;70;70;f;n;1;j;n;1053.112900000997
ic1x#07;153;False;2;P != T1?;ST2_low_3;2;Same;low;70;112;112;f;n;1;f;b;1884.1546999974526
ic1x#07;154;False;2;P != T2?;DT2_high_6;2;Different;high;132;96;82;f;n;1;f;b;1375.106900006358
ic1x#07;155;False;2;P != T2?;ST2_low_4;2;Same;low;112;70;70;f;n;1;j;n;663.6687999998685
ic1x#07;156;False;2;P != T2?;STb_2;0;Same;None;70;70;70;f;n;1;j;n;1859.6203999986756
ic1x#07;157;False;2;P != T2?;ST2_high_4;2;Same;high;96;70;70;f;n;1;j;n;3369.4118999992497
ic1x#07;158;False;2;P != T1?;ST1_high_4;1;Same;high;96;70;96;f;n;0;f;n;1274.7732999996515
ic1x#07;159;False;2;P != T2?;ST2_low_3;2;Same;low;70;112;112;f;n;0;f;v;1880.8556999938446
ic1x#07;160;False;2;P != T1?;ST1_low_3;1;Same;low;70;112;70;f;n;1;j;b;1685.0864999942132
ic1x#07;161;False;2;P != T1?;DT1_low_6;1;Different;low;154;96;180;f;n;0;j;n;1682.8851000027498
ic1x#07;162;False;2;P != T2?;ST1_low_2;1;Same;low;132;82;132;f;n;0;j;n;1092.003099998692
ic1x#07;163;False;2;P != T1?;ST1_high_3;1;Same;high;70;96;70;f;n;1;j;v;4051.55470000318
ic1x#07;164;False;2;P != T2?;ST1_low_6;1;Same;low;154;96;154;f;n;1;f;b;2540.3512999982922
ic1x#07;165;False;2;P != T1?;ST1_high_4;1;Same;high;96;70;96;f;n;0;f;v;1519.861900000251
ic1x#07;166;False;2;P != T1?;ST2_high_1;2;Same;high;82;112;112;f;n;0;j;n;3213.8378999952693
ic1x#07;167;False;2;P != T1?;ST2_low_6;2;Same;low;154;96;96;f;n;1;f;b;7082.70579999953
ic1x#07;168;False;2;P != T1?;ST1_low_2;1;Same;low;132;82;132;f;n;0;f;v;3211.839100003999
ic1x#07;169;False;2;P != T1?;DT2_high_5;2;Different;high;96;132;154;f;n;0;j;n;1492.2929000022123
ic1x#07;170;False;2;P != T2?;ST1_low_2;1;Same;low;132;82;132;f;n;1;f;b;2531.1780999982147
ic1x#07;171;False;2;P != T2?;ST2_low_4;2;Same;low;112;70;70;f;n;1;j;n;2848.362400000042
ic1x#07;172;False;2;P != T1?;STb_7;0;Same;None;154;154;154;f;n;1;j;b;1697.9812999998103
ic1x#07;173;False;2;P != T1?;ST1_high_6;1;Same;high;132;96;132;f;n;0;f;v;2331.449999997858
ic1x#07;174;False;2;P != T1?;ST1_low_3;1;Same;low;70;112;70;f;n;1;j;v;4349.58270000061
ic1x#07;175;False;2;P != T1?;STb_4;0;Same;None;96;96;96;f;n;0;f;b;3605.830699998478
ic1x#07;176;False;2;P != T1?;ST1_low_1;1;Same;low;82;132;82;f;n;1;j;n;1659.9161000049207
