p_code;trial_nr;practice;block;question;condition;seqPos;Same_or_Diff;ITS;T1_hz;T2_hz;P_hz;yes_key;sure_key;correct;yes_no;rating;resp_time
1d5#s4v;1;True;1;P != T2?;ST1_low_3;1;Same;low;70;112;70;f;v;1;f;v;1842.6948999999695
1d5#s4v;2;True;1;P != T1?;ST2_high_2;2;Same;high;112;82;82;f;v;1;f;n;4250.8563000000095
1d5#s4v;3;True;1;P != T1?;ST1_low_5;1;Same;low;96;154;96;f;v;1;j;v;1515.0135999999748
1d5#s4v;4;True;1;P != T1?;STb_2;0;Same;None;70;70;70;f;v;1;j;v;1478.3588999999893
1d5#s4v;5;True;1;P != T2?;ST2_high_6;2;Same;high;132;96;96;f;v;1;j;v;1453.978500000062
1d5#s4v;6;True;1;P != T1?;ST2_low_2;2;Same;low;132;82;82;f;v;1;f;v;2896.977799999945
1d5#s4v;7;True;1;P != T2?;ST1_high_3;1;Same;high;70;96;70;f;v;1;f;v;1638.1013999999823
1d5#s4v;8;True;1;P != T2?;DT2_low_1;2;Different;low;82;132;154;f;v;0;j;v;891.2473000000318
1d5#s4v;9;True;1;P != T2?;ST2_low_3;2;Same;low;70;112;112;f;v;0;f;v;1701.78779999992
1d5#s4v;10;True;1;P != T1?;ST1_low_3;1;Same;low;70;112;70;f;v;1;j;v;1067.4399000000676
1d5#s4v;11;True;1;P != T1?;DT1_low_3;1;Different;low;70;112;60;f;v;1;f;v;2172.8157999999667
1d5#s4v;12;True;1;P != T1?;STb_4;0;Same;None;96;96;96;f;v;1;j;v;1125.9989000000132
1d5#s4v;13;True;1;P != T1?;DT1_low_6;1;Different;low;154;96;180;f;v;0;j;v;2224.8479000001
1d5#s4v;14;True;1;P != T2?;DT2_high_6;2;Different;high;132;96;82;f;v;0;j;v;919.0259000000651
1d5#s4v;15;True;1;P != T2?;STb_4;0;Same;None;96;96;96;f;v;1;j;v;1143.0330000000595
1d5#s4v;16;True;1;P != T2?;STb_5;0;Same;None;112;112;112;f;v;1;j;v;1104.2723999998998
p_code;trial_nr;practice;block;question;condition;seqPos;Same_or_Diff;ITS;T1_hz;T2_hz;P_hz;yes_key;sure_key;correct;yes_no;rating;resp_time
1d5#s4v;1;False;1;P != T2?;ST2_high_6;2;Same;high;132;96;96;f;v;1;j;v;1120.3526000000466
1d5#s4v;2;False;1;P != T2?;ST1_low_5;1;Same;low;96;154;96;f;v;1;f;v;1712.0172999999568
1d5#s4v;3;False;1;P != T2?;ST1_high_5;1;Same;high;96;132;96;f;v;1;f;v;1739.0482000000702
1d5#s4v;4;False;1;P != T2?;ST1_low_2;1;Same;low;132;82;132;f;v;1;f;v;1189.28870000002
1d5#s4v;5;False;1;P != T2?;ST2_high_3;2;Same;high;70;96;96;f;v;1;j;v;1137.4432999999726
1d5#s4v;6;False;1;P != T1?;ST2_high_4;2;Same;high;96;70;70;f;v;0;j;v;1515.4360000000224
1d5#s4v;7;False;1;P != T1?;ST1_high_3;1;Same;high;70;96;70;f;v;1;j;v;985.4385999999522
1d5#s4v;8;False;1;P != T2?;ST1_low_3;1;Same;low;70;112;70;f;v;1;f;n;5455.487500000004
1d5#s4v;9;False;1;P != T2?;ST1_high_2;1;Same;high;112;82;112;f;v;1;f;v;1143.1061999999201
1d5#s4v;10;False;1;P != T1?;ST2_high_2;2;Same;high;112;82;82;f;v;1;f;v;942.7865999999767
1d5#s4v;11;False;1;P != T1?;DT2_high_2;2;Different;high;112;82;70;f;v;1;f;v;3241.437499999961
1d5#s4v;12;False;1;P != T2?;ST1_low_4;1;Same;low;112;70;112;f;v;1;f;v;7025.542100000052
1d5#s4v;13;False;1;P != T1?;ST1_low_6;1;Same;low;154;96;154;f;v;1;j;v;3734.1963999999734
1d5#s4v;14;False;1;P != T2?;ST1_high_6;1;Same;high;132;96;132;f;v;1;f;v;906.3470999999481
1d5#s4v;15;False;1;P != T1?;STb_2;0;Same;None;70;70;70;f;v;1;j;v;1147.364400000015
1d5#s4v;16;False;1;P != T2?;ST2_low_3;2;Same;low;70;112;112;f;v;1;j;v;2110.8957000000146
1d5#s4v;17;False;1;P != T1?;ST1_high_6;1;Same;high;132;96;132;f;v;1;j;v;997.6265999999896
1d5#s4v;18;False;1;P != T2?;ST1_high_3;1;Same;high;70;96;70;f;v;1;f;v;1181.736399999977
1d5#s4v;19;False;1;P != T2?;ST2_low_1;2;Same;low;82;132;132;f;v;1;j;b;2617.848800000047
1d5#s4v;20;False;1;P != T2?;ST1_low_4;1;Same;low;112;70;112;f;v;1;f;v;6818.8400999999885
1d5#s4v;21;False;1;P != T1?;ST2_low_1;2;Same;low;82;132;132;f;v;1;f;v;1195.6993000000011
1d5#s4v;22;False;1;P != T2?;DT1_low_5;1;Different;low;96;154;82;f;v;1;f;v;1727.6681999999255
1d5#s4v;23;False;1;P != T1?;STb_5;0;Same;None;112;112;112;f;v;1;j;v;2475.3368000000364
1d5#s4v;24;False;1;P != T2?;ST1_low_6;1;Same;low;154;96;154;f;v;1;f;v;868.1394000000182
1d5#s4v;25;False;1;P != T2?;ST1_low_1;1;Same;low;82;132;82;f;v;1;f;v;923.7623000000212
1d5#s4v;26;False;1;P != T2?;ST1_high_3;1;Same;high;70;96;70;f;v;1;f;v;1498.8773000000037
1d5#s4v;27;False;1;P != T1?;ST2_high_2;2;Same;high;112;82;82;f;v;1;f;v;1091.0228999999845
1d5#s4v;28;False;1;P != T1?;ST2_low_4;2;Same;low;112;70;70;f;v;1;f;v;1487.9433000000972
1d5#s4v;29;False;1;P != T1?;STb_3;0;Same;None;82;82;82;f;v;1;j;v;1677.3882999999614
1d5#s4v;30;False;1;P != T1?;ST2_low_4;2;Same;low;112;70;70;f;v;1;f;v;1085.2412000000413
1d5#s4v;31;False;1;P != T1?;ST2_high_5;2;Same;high;96;132;132;f;v;1;f;v;788.9204000000518
1d5#s4v;32;False;1;P != T2?;STb_2;0;Same;None;70;70;70;f;v;1;j;v;2158.2531000000245
1d5#s4v;33;False;1;P != T1?;STb_1;0;Same;None;60;60;60;f;v;1;j;v;3552.67589999994
1d5#s4v;34;False;1;P != T1?;ST1_low_4;1;Same;low;112;70;112;f;v;1;j;v;1440.158100000076
1d5#s4v;35;False;1;P != T2?;ST1_high_1;1;Same;high;82;112;82;f;v;0;j;n;3100.5250999999134
1d5#s4v;36;False;1;P != T1?;ST1_low_1;1;Same;low;82;132;82;f;v;1;j;v;1701.6636999999264
1d5#s4v;37;False;1;P != T1?;ST1_high_3;1;Same;high;70;96;70;f;v;1;j;v;1437.4205999999958
1d5#s4v;38;False;1;P != T1?;ST2_high_1;2;Same;high;82;112;112;f;v;1;f;n;1180.073099999845
1d5#s4v;39;False;1;P != T2?;ST1_low_4;1;Same;low;112;70;112;f;v;0;j;n;3553.6090999999033
1d5#s4v;40;False;1;P != T2?;ST1_high_5;1;Same;high;96;132;96;f;v;1;f;b;2399.576899999829
1d5#s4v;41;False;1;P != T1?;ST2_low_5;2;Same;low;96;154;154;f;v;1;f;v;1760.4004999998324
1d5#s4v;42;False;1;P != T1?;ST2_low_5;2;Same;low;96;154;154;f;v;1;f;v;1345.8124000001135
1d5#s4v;43;False;1;P != T1?;DT1_high_2;1;Different;high;112;82;132;f;v;1;f;b;6249.90959999991
1d5#s4v;44;False;1;P != T1?;ST1_low_5;1;Same;low;96;154;96;f;v;1;j;b;4823.166100000208
1d5#s4v;45;False;1;P != T1?;ST1_low_4;1;Same;low;112;70;112;f;v;1;j;v;701.1206000001948
1d5#s4v;46;False;1;P != T1?;ST1_high_1;1;Same;high;82;112;82;f;v;1;j;b;1803.0573999999433
1d5#s4v;47;False;1;P != T1?;ST2_high_3;2;Same;high;70;96;96;f;v;0;j;b;4736.4722000002075
1d5#s4v;48;False;1;P != T2?;ST1_high_4;1;Same;high;96;70;96;f;v;1;f;v;1097.1325999998953
1d5#s4v;49;False;1;P != T2?;ST1_high_1;1;Same;high;82;112;82;f;v;1;f;v;2541.8864999999187
1d5#s4v;50;False;1;P != T2?;ST2_high_4;2;Same;high;96;70;70;f;v;1;j;v;2206.2998000001244
1d5#s4v;51;False;1;P != T1?;STb_4;0;Same;None;96;96;96;f;v;1;j;v;2400.921100000005
1d5#s4v;52;False;1;P != T2?;ST2_low_6;2;Same;low;154;96;96;f;v;1;j;b;7240.003300000126
1d5#s4v;53;False;1;P != T1?;DT2_high_3;2;Different;high;70;96;112;f;v;1;f;b;2521.533800000043
1d5#s4v;54;False;1;P != T1?;ST2_low_3;2;Same;low;70;112;112;f;v;1;f;v;1011.6500999999971
1d5#s4v;55;False;1;P != T1?;ST2_high_6;2;Same;high;132;96;96;f;v;1;f;v;3941.8005999998513
1d5#s4v;56;False;1;P != T2?;ST1_high_6;1;Same;high;132;96;132;f;v;1;f;v;1001.2434000000212
1d5#s4v;57;False;1;P != T1?;ST2_low_2;2;Same;low;132;82;82;f;v;1;f;v;856.5917000000809
1d5#s4v;58;False;1;P != T2?;ST2_low_2;2;Same;low;132;82;82;f;v;1;j;v;1206.1443999998573
1d5#s4v;59;False;1;P != T1?;ST1_high_4;1;Same;high;96;70;96;f;v;1;j;v;1830.3783999999723
1d5#s4v;60;False;1;P != T1?;ST1_low_1;1;Same;low;82;132;82;f;v;1;j;b;7285.520500000075
1d5#s4v;61;False;1;P != T2?;ST1_low_2;1;Same;low;132;82;132;f;v;1;f;v;5195.203100000072
1d5#s4v;62;False;1;P != T2?;STb_6;0;Same;None;132;132;132;f;v;1;j;v;865.873400000055
1d5#s4v;63;False;1;P != T2?;ST1_low_6;1;Same;low;154;96;154;f;v;1;f;v;1200.928200000135
1d5#s4v;64;False;1;P != T1?;ST2_high_5;2;Same;high;96;132;132;f;v;1;f;v;2597.9015000000345
1d5#s4v;65;False;1;P != T2?;ST2_high_2;2;Same;high;112;82;82;f;v;1;j;v;606.0976999999639
1d5#s4v;66;False;1;P != T2?;ST2_high_5;2;Same;high;96;132;132;f;v;1;j;v;1862.5615000000835
1d5#s4v;67;False;1;P != T1?;ST1_low_5;1;Same;low;96;154;96;f;v;0;f;n;1396.400099999937
1d5#s4v;68;False;1;P != T1?;ST2_high_1;2;Same;high;82;112;112;f;v;1;f;v;1376.8734000000222
1d5#s4v;69;False;1;P != T2?;STb_4;0;Same;None;96;96;96;f;v;1;j;v;853.5183999999845
1d5#s4v;70;False;1;P != T2?;ST2_high_5;2;Same;high;96;132;132;f;v;1;j;v;1127.190100000007
1d5#s4v;71;False;1;P != T2?;DT2_high_3;2;Different;high;70;96;112;f;v;0;j;n;6597.096199999896
1d5#s4v;72;False;1;P != T2?;ST1_high_2;1;Same;high;112;82;112;f;v;1;f;v;1025.8997999999337
1d5#s4v;73;False;1;P != T2?;ST2_low_2;2;Same;low;132;82;82;f;v;1;j;n;1414.591800000153
1d5#s4v;74;False;1;P != T1?;ST1_low_3;1;Same;low;70;112;70;f;v;1;j;v;1993.3107000001655
1d5#s4v;75;False;1;P != T1?;DT1_high_5;1;Different;high;96;132;82;f;v;0;j;v;1495.3271000001678
1d5#s4v;76;False;1;P != T2?;ST2_high_4;2;Same;high;96;70;70;f;v;1;j;v;483.2690000000639
1d5#s4v;77;False;1;P != T1?;ST2_high_4;2;Same;high;96;70;70;f;v;1;f;n;1179.0338999999221
1d5#s4v;78;False;1;P != T1?;ST1_high_5;1;Same;high;96;132;96;f;v;1;j;v;1259.3180999999731
1d5#s4v;79;False;1;P != T1?;ST1_high_2;1;Same;high;112;82;112;f;v;1;j;b;1458.616099999972
1d5#s4v;80;False;1;P != T1?;ST2_high_3;2;Same;high;70;96;96;f;v;1;f;b;1258.0488999999488
1d5#s4v;81;False;1;P != T2?;ST2_high_6;2;Same;high;132;96;96;f;v;1;j;v;1821.3455000000067
1d5#s4v;82;False;1;P != T2?;ST2_high_5;2;Same;high;96;132;132;f;v;0;f;b;8753.00140000013
1d5#s4v;83;False;1;P != T1?;ST2_high_6;2;Same;high;132;96;96;f;v;1;f;v;926.0742000001301
1d5#s4v;84;False;1;P != T2?;ST2_low_1;2;Same;low;82;132;132;f;v;1;j;v;920.609900000045
1d5#s4v;85;False;1;P != T1?;ST1_low_6;1;Same;low;154;96;154;f;v;1;j;v;1414.4057000000885
1d5#s4v;86;False;1;P != T1?;ST1_high_2;1;Same;high;112;82;112;f;v;1;j;n;5833.889799999952
1d5#s4v;87;False;1;P != T2?;ST1_low_5;1;Same;low;96;154;96;f;v;1;f;n;1482.7312999998412
1d5#s4v;88;False;1;P != T1?;ST1_high_6;1;Same;high;132;96;132;f;v;1;j;b;1557.7716000000237
1d5#s4v;89;False;1;P != T1?;STb_8;0;Same;None;180;180;180;f;v;1;j;v;537.8001999999924
1d5#s4v;90;False;1;P != T2?;ST1_high_6;1;Same;high;132;96;132;f;v;1;f;b;1548.2002999999622
1d5#s4v;91;False;1;P != T2?;DT1_low_4;1;Different;low;112;70;132;f;v;1;f;v;847.3328999998557
1d5#s4v;92;False;1;P != T1?;ST2_low_5;2;Same;low;96;154;154;f;v;1;f;v;1461.1081999998987
1d5#s4v;93;False;1;P != T1?;ST1_high_4;1;Same;high;96;70;96;f;v;1;j;n;1838.3375000000797
1d5#s4v;94;False;1;P != T1?;ST1_low_6;1;Same;low;154;96;154;f;v;1;j;b;2622.8868000000602
1d5#s4v;95;False;1;P != T1?;ST2_low_2;2;Same;low;132;82;82;f;v;1;f;v;958.4706000000551
1d5#s4v;96;False;1;P != T1?;ST1_low_4;1;Same;low;112;70;112;f;v;1;j;v;2172.350800000004
1d5#s4v;97;False;1;P != T2?;ST1_high_5;1;Same;high;96;132;96;f;v;1;f;v;1237.62099999999
1d5#s4v;98;False;1;P != T1?;ST1_low_2;1;Same;low;132;82;132;f;v;1;j;v;1853.301700000202
1d5#s4v;99;False;1;P != T1?;ST2_low_6;2;Same;low;154;96;96;f;v;1;f;v;1043.9708999999766
1d5#s4v;100;False;1;P != T2?;ST2_low_6;2;Same;low;154;96;96;f;v;1;j;n;14360.676700000113
1d5#s4v;101;False;1;P != T1?;ST2_low_1;2;Same;low;82;132;132;f;v;1;f;n;9386.466700000028
1d5#s4v;102;False;1;P != T2?;ST2_low_4;2;Same;low;112;70;70;f;v;1;j;v;696.5321000000131
1d5#s4v;103;False;1;P != T2?;ST2_low_5;2;Same;low;96;154;154;f;v;1;j;v;1039.9168000001282
1d5#s4v;104;False;1;P != T2?;ST1_low_1;1;Same;low;82;132;82;f;v;0;j;n;7246.289199999865
1d5#s4v;105;False;1;P != T2?;ST2_low_4;2;Same;low;112;70;70;f;v;1;j;v;1172.7518000000146
1d5#s4v;106;False;1;P != T1?;ST2_high_3;2;Same;high;70;96;96;f;v;1;f;b;6225.720599999931
1d5#s4v;107;False;1;P != T2?;ST1_high_1;1;Same;high;82;112;82;f;v;1;f;v;1276.287400000001
1d5#s4v;108;False;1;P != T2?;STb_7;0;Same;None;154;154;154;f;v;1;j;v;485.78410000004624
1d5#s4v;109;False;1;P != T2?;ST2_low_2;2;Same;low;132;82;82;f;v;1;j;v;1937.7577000000201
1d5#s4v;110;False;1;P != T1?;STb_6;0;Same;None;132;132;132;f;v;1;j;v;367.38179999997556
1d5#s4v;111;False;1;P != T2?;STb_8;0;Same;None;180;180;180;f;v;1;j;v;279.31690000013987
1d5#s4v;112;False;1;P != T1?;ST1_high_5;1;Same;high;96;132;96;f;v;1;j;v;1709.9921999999879
1d5#s4v;113;False;1;P != T2?;ST2_high_1;2;Same;high;82;112;112;f;v;1;j;v;1179.722399999946
1d5#s4v;114;False;1;P != T1?;ST1_low_2;1;Same;low;132;82;132;f;v;1;j;v;1572.5268000001051
1d5#s4v;115;False;1;P != T1?;ST2_high_4;2;Same;high;96;70;70;f;v;0;j;v;515.3404999998656
1d5#s4v;116;False;1;P != T2?;ST2_high_3;2;Same;high;70;96;96;f;v;1;j;v;915.2102000000468
1d5#s4v;117;False;1;P != T1?;ST2_high_2;2;Same;high;112;82;82;f;v;1;f;v;1996.4458000001741
1d5#s4v;118;False;1;P != T2?;ST2_high_2;2;Same;high;112;82;82;f;v;1;j;v;999.448399999892
1d5#s4v;119;False;1;P != T2?;ST1_low_3;1;Same;low;70;112;70;f;v;1;f;v;1317.0713000001797
1d5#s4v;120;False;1;P != T1?;DT1_high_6;1;Different;high;132;96;154;f;v;0;j;v;1441.8108999998367
1d5#s4v;121;False;1;P != T2?;STb_3;0;Same;None;82;82;82;f;v;1;j;v;449.56550000006246
1d5#s4v;122;False;1;P != T1?;ST2_low_6;2;Same;low;154;96;96;f;v;1;f;v;1330.3111999998691
1d5#s4v;123;False;1;P != T2?;DT2_high_2;2;Different;high;112;82;70;f;v;0;j;b;3267.4762999999984
1d5#s4v;124;False;1;P != T2?;ST2_high_4;2;Same;high;96;70;70;f;v;1;j;v;372.74619999993774
1d5#s4v;125;False;1;P != T1?;DT2_low_5;2;Different;low;96;154;180;f;v;1;f;v;1322.3089000000527
1d5#s4v;126;False;1;P != T1?;ST1_high_3;1;Same;high;70;96;70;f;v;1;j;b;4291.953899999953
1d5#s4v;127;False;1;P != T1?;ST1_high_4;1;Same;high;96;70;96;f;v;0;f;v;905.9813999999733
1d5#s4v;128;False;1;P != T2?;DT1_high_2;1;Different;high;112;82;132;f;v;1;f;v;830.8334999999261
1d5#s4v;129;False;1;P != T2?;DT1_high_1;1;Different;high;82;112;70;f;v;1;f;v;875.1354999999421
1d5#s4v;130;False;1;P != T1?;ST2_low_3;2;Same;low;70;112;112;f;v;1;f;v;783.0462000001717
1d5#s4v;131;False;1;P != T2?;ST2_low_1;2;Same;low;82;132;132;f;v;1;j;v;1163.41280000006
1d5#s4v;132;False;1;P != T1?;ST2_high_6;2;Same;high;132;96;96;f;v;1;f;v;3690.460099999882
1d5#s4v;133;False;1;P != T2?;ST1_low_5;1;Same;low;96;154;96;f;v;1;f;v;2306.2719000001835
1d5#s4v;134;False;1;P != T1?;DT1_low_5;1;Different;low;96;154;82;f;v;0;j;v;957.0481999999174
1d5#s4v;135;False;1;P != T2?;STb_1;0;Same;None;60;60;60;f;v;1;j;v;553.3015999999407
1d5#s4v;136;False;1;P != T1?;ST2_low_6;2;Same;low;154;96;96;f;v;1;f;v;910.255799999959
1d5#s4v;137;False;1;P != T2?;DT2_high_4;2;Different;high;96;70;60;f;v;0;j;v;1390.6660000000102
1d5#s4v;138;False;1;P != T2?;ST1_high_4;1;Same;high;96;70;96;f;v;0;j;v;3019.25099999994
1d5#s4v;139;False;1;P != T2?;ST2_low_3;2;Same;low;70;112;112;f;v;1;j;v;2211.461399999962
1d5#s4v;140;False;1;P != T2?;ST1_high_3;1;Same;high;70;96;70;f;v;1;f;v;941.8799000000035
1d5#s4v;141;False;1;P != T1?;ST1_high_2;1;Same;high;112;82;112;f;v;1;j;v;1486.558400000149
1d5#s4v;142;False;1;P != T2?;ST2_high_2;2;Same;high;112;82;82;f;v;1;j;v;325.08229999984906
1d5#s4v;143;False;1;P != T1?;ST2_high_5;2;Same;high;96;132;132;f;v;1;f;v;1020.4262000002018
1d5#s4v;144;False;1;P != T1?;ST1_low_1;1;Same;low;82;132;82;f;v;1;j;v;4146.025699999882
1d5#s4v;145;False;1;P != T2?;DT1_low_3;1;Different;low;70;112;60;f;v;1;f;v;12307.95420000004
1d5#s4v;146;False;1;P != T1?;ST2_low_1;2;Same;low;82;132;132;f;v;1;f;v;1307.2311999999329
1d5#s4v;147;False;1;P != T2?;ST2_high_1;2;Same;high;82;112;112;f;v;1;j;v;3215.9155999997893
1d5#s4v;148;False;1;P != T2?;ST2_high_6;2;Same;high;132;96;96;f;v;1;j;v;1357.411299999967
1d5#s4v;149;False;1;P != T2?;ST1_low_3;1;Same;low;70;112;70;f;v;0;j;n;10123.840599999767
1d5#s4v;150;False;1;P != T2?;ST2_low_6;2;Same;low;154;96;96;f;v;1;j;v;1745.1374999996005
1d5#s4v;151;False;1;P != T1?;ST1_low_3;1;Same;low;70;112;70;f;v;1;j;v;2102.711999999883
1d5#s4v;152;False;1;P != T1?;DT2_low_3;2;Different;low;70;112;132;f;v;1;f;v;967.2649999997702
1d5#s4v;153;False;1;P != T2?;ST2_low_3;2;Same;low;70;112;112;f;v;1;j;n;4532.370699999774
1d5#s4v;154;False;1;P != T1?;ST2_low_4;2;Same;low;112;70;70;f;v;1;f;v;1169.960600000195
1d5#s4v;155;False;1;P != T1?;ST1_low_2;1;Same;low;132;82;132;f;v;1;j;v;1015.1110000001609
1d5#s4v;156;False;1;P != T1?;ST1_high_1;1;Same;high;82;112;82;f;v;1;j;v;6260.908499999914
1d5#s4v;157;False;1;P != T2?;STb_5;0;Same;None;112;112;112;f;v;0;f;v;1027.7374000002055
1d5#s4v;158;False;1;P != T2?;ST2_low_5;2;Same;low;96;154;154;f;v;1;j;v;7375.532699999894
1d5#s4v;159;False;1;P != T1?;ST2_low_2;2;Same;low;132;82;82;f;v;1;f;v;10871.547799999917
1d5#s4v;160;False;1;P != T2?;ST1_low_2;1;Same;low;132;82;132;f;v;1;f;v;1339.1372999999476
1d5#s4v;161;False;1;P != T2?;ST1_high_2;1;Same;high;112;82;112;f;v;1;f;v;3556.8687999998474
1d5#s4v;162;False;1;P != T1?;ST1_high_5;1;Same;high;96;132;96;f;v;1;j;v;1387.654399999974
1d5#s4v;163;False;1;P != T2?;ST2_high_3;2;Same;high;70;96;96;f;v;1;j;v;1402.8997999998865
1d5#s4v;164;False;1;P != T2?;ST1_high_4;1;Same;high;96;70;96;f;v;0;j;v;3109.89759999984
1d5#s4v;165;False;1;P != T1?;ST1_low_3;1;Same;low;70;112;70;f;v;0;f;v;3975.9980999997424
1d5#s4v;166;False;1;P != T2?;ST1_low_1;1;Same;low;82;132;82;f;v;1;f;v;2340.6804000001102
1d5#s4v;167;False;1;P != T1?;ST2_high_1;2;Same;high;82;112;112;f;v;1;f;n;2642.4965999999586
1d5#s4v;168;False;1;P != T1?;STb_7;0;Same;None;154;154;154;f;v;1;j;v;2040.0760000002265
1d5#s4v;169;False;1;P != T1?;ST2_low_3;2;Same;low;70;112;112;f;v;0;j;b;1504.8394000000371
1d5#s4v;170;False;1;P != T1?;ST1_high_6;1;Same;high;132;96;132;f;v;1;j;n;2667.9775000002337
1d5#s4v;171;False;1;P != T2?;ST1_low_6;1;Same;low;154;96;154;f;v;1;f;v;818.2712000002539
1d5#s4v;172;False;1;P != T1?;ST1_low_5;1;Same;low;96;154;96;f;v;1;j;v;6888.507699999991
1d5#s4v;173;False;1;P != T1?;ST1_high_1;1;Same;high;82;112;82;f;v;1;j;v;18100.424700000076
1d5#s4v;174;False;1;P != T2?;ST2_low_5;2;Same;low;96;154;154;f;v;1;j;v;1664.6875999999793
1d5#s4v;175;False;1;P != T2?;ST2_high_1;2;Same;high;82;112;112;f;v;1;j;v;1077.0597000000635
1d5#s4v;176;False;1;P != T2?;ST2_low_4;2;Same;low;112;70;70;f;v;1;j;v;1150.4755000000841
1d5#s4v;1;True;2;P = T1?;DT1_high_2;1;Different;high;112;82;132;f;v;0;f;b;3032.0882000000893
1d5#s4v;2;True;2;P = T2?;STb_7;0;Same;None;154;154;154;f;v;1;f;v;724.3450000000848
1d5#s4v;3;True;2;P = T1?;STb_3;0;Same;None;82;82;82;f;v;1;f;b;1677.5703000002977
1d5#s4v;4;True;2;P = T2?;ST2_high_5;2;Same;high;96;132;132;f;v;1;f;v;737.6076999998986
1d5#s4v;5;True;2;P = T1?;STb_7;0;Same;None;154;154;154;f;v;1;f;v;473.65650000028836
1d5#s4v;6;True;2;P = T1?;ST1_high_2;1;Same;high;112;82;112;f;v;1;f;v;1658.5267000000385
1d5#s4v;7;True;2;P = T1?;DT2_high_1;2;Different;high;82;112;132;f;v;1;j;v;934.6372999998493
1d5#s4v;8;True;2;P = T2?;ST1_low_4;1;Same;low;112;70;112;f;v;1;j;n;2155.1901999996517
1d5#s4v;9;True;2;P = T2?;ST1_high_4;1;Same;high;96;70;96;f;v;1;j;b;1242.9176999999072
1d5#s4v;10;True;2;P = T2?;ST2_high_1;2;Same;high;82;112;112;f;v;1;f;v;3627.144000000044
1d5#s4v;11;True;2;P = T1?;ST2_low_2;2;Same;low;132;82;82;f;v;1;j;n;2132.6515999999174
1d5#s4v;12;True;2;P = T2?;DT2_high_5;2;Different;high;96;132;154;f;v;0;f;v;1907.7210000000377
1d5#s4v;13;True;2;P = T1?;ST1_low_1;1;Same;low;82;132;82;f;v;1;f;v;846.2268999996923
1d5#s4v;14;True;2;P = T1?;ST2_high_3;2;Same;high;70;96;96;f;v;0;f;v;2209.5140999999785
1d5#s4v;15;True;2;P = T2?;STb_1;0;Same;None;60;60;60;f;v;1;f;v;261.8962999999894
1d5#s4v;16;True;2;P = T2?;DT2_high_1;2;Different;high;82;112;132;f;v;0;f;v;3976.1742999999115
1d5#s4v;1;False;2;P = T2?;ST1_low_4;1;Same;low;112;70;112;f;v;1;j;v;1107.4704000002384
1d5#s4v;2;False;2;P = T1?;ST1_low_2;1;Same;low;132;82;132;f;v;1;f;v;744.043099999999
1d5#s4v;3;False;2;P = T2?;ST2_low_5;2;Same;low;96;154;154;f;v;1;f;v;696.9918999998299
1d5#s4v;4;False;2;P = T1?;STb_3;0;Same;None;82;82;82;f;v;1;f;v;649.5453000002271
1d5#s4v;5;False;2;P = T1?;DT2_low_4;2;Different;low;112;70;60;f;v;1;j;v;1387.7856999997675
1d5#s4v;6;False;2;P = T1?;ST1_low_4;1;Same;low;112;70;112;f;v;1;f;v;750.532099999873
1d5#s4v;7;False;2;P = T1?;ST1_high_4;1;Same;high;96;70;96;f;v;1;f;v;821.6946000002281
1d5#s4v;8;False;2;P = T2?;ST2_low_4;2;Same;low;112;70;70;f;v;1;f;n;1047.1373000000312
1d5#s4v;9;False;2;P = T1?;DT1_low_2;1;Different;low;132;82;154;f;v;0;f;v;1606.5066999999544
1d5#s4v;10;False;2;P = T2?;ST1_high_1;1;Same;high;82;112;82;f;v;1;j;v;805.7677000001604
1d5#s4v;11;False;2;P = T1?;ST1_low_5;1;Same;low;96;154;96;f;v;1;f;v;474.5404000000235
1d5#s4v;12;False;2;P = T2?;ST2_high_3;2;Same;high;70;96;96;f;v;1;f;n;2348.1504999999743
1d5#s4v;13;False;2;P = T1?;ST2_low_3;2;Same;low;70;112;112;f;v;0;f;b;2085.346700000173
1d5#s4v;14;False;2;P = T1?;ST1_low_3;1;Same;low;70;112;70;f;v;1;f;v;2012.760900000103
1d5#s4v;15;False;2;P = T1?;STb_7;0;Same;None;154;154;154;f;v;1;f;v;330.44639999980063
1d5#s4v;16;False;2;P = T2?;ST1_low_5;1;Same;low;96;154;96;f;v;1;j;v;1133.9720000000852
1d5#s4v;17;False;2;P = T2?;ST1_high_5;1;Same;high;96;132;96;f;v;1;j;v;1253.1773000000612
1d5#s4v;18;False;2;P = T2?;ST1_high_1;1;Same;high;82;112;82;f;v;1;j;v;1546.8267999999625
1d5#s4v;19;False;2;P = T1?;ST2_high_1;2;Same;high;82;112;112;f;v;1;j;v;1694.0883000002032
1d5#s4v;20;False;2;P = T2?;ST1_high_6;1;Same;high;132;96;132;f;v;1;j;v;1783.3729999997558
1d5#s4v;21;False;2;P = T1?;ST2_low_5;2;Same;low;96;154;154;f;v;1;j;v;982.8511999999137
1d5#s4v;22;False;2;P = T2?;STb_4;0;Same;None;96;96;96;f;v;1;f;v;1268.6281999999665
1d5#s4v;23;False;2;P = T2?;ST2_low_3;2;Same;low;70;112;112;f;v;1;f;b;1531.8232999998145
1d5#s4v;24;False;2;P = T1?;ST1_high_5;1;Same;high;96;132;96;f;v;1;f;v;1105.9927999999672
1d5#s4v;25;False;2;P = T1?;ST2_high_5;2;Same;high;96;132;132;f;v;1;j;n;3923.526800000218
1d5#s4v;26;False;2;P = T1?;ST1_high_1;1;Same;high;82;112;82;f;v;1;f;v;661.9909000000916
1d5#s4v;27;False;2;P = T1?;DT2_high_3;2;Different;high;70;96;112;f;v;1;j;v;1709.8562000001039
1d5#s4v;28;False;2;P = T1?;ST1_low_1;1;Same;low;82;132;82;f;v;1;f;v;1998.8675999998122
1d5#s4v;29;False;2;P = T1?;ST2_low_6;2;Same;low;154;96;96;f;v;1;j;v;4292.799300000297
1d5#s4v;30;False;2;P = T2?;ST2_low_6;2;Same;low;154;96;96;f;v;1;f;v;846.9301000000087
1d5#s4v;31;False;2;P = T2?;DT1_high_4;1;Different;high;96;70;112;f;v;1;j;b;2036.5123000001404
1d5#s4v;32;False;2;P = T2?;ST1_high_3;1;Same;high;70;96;70;f;v;1;j;v;1028.4090000000106
1d5#s4v;33;False;2;P = T2?;ST2_high_2;2;Same;high;112;82;82;f;v;0;j;b;1124.2496999998366
1d5#s4v;34;False;2;P = T1?;ST2_high_1;2;Same;high;82;112;112;f;v;1;j;v;4826.214400000026
1d5#s4v;35;False;2;P = T2?;ST1_low_6;1;Same;low;154;96;154;f;v;1;j;v;977.5958000000173
1d5#s4v;36;False;2;P = T2?;ST2_low_4;2;Same;low;112;70;70;f;v;1;f;v;4010.981400000219
1d5#s4v;37;False;2;P = T2?;ST1_high_3;1;Same;high;70;96;70;f;v;1;j;b;986.0820999997486
1d5#s4v;38;False;2;P = T2?;ST2_high_4;2;Same;high;96;70;70;f;v;1;f;v;806.0153999999784
1d5#s4v;39;False;2;P = T1?;ST1_high_2;1;Same;high;112;82;112;f;v;1;f;v;522.6952000002711
1d5#s4v;40;False;2;P = T1?;ST2_low_3;2;Same;low;70;112;112;f;v;1;j;v;834.8141000001306
1d5#s4v;41;False;2;P = T2?;ST1_high_5;1;Same;high;96;132;96;f;v;0;f;v;889.6098000000165
1d5#s4v;42;False;2;P = T1?;STb_4;0;Same;None;96;96;96;f;v;1;f;b;1393.2746999998926
1d5#s4v;43;False;2;P = T1?;ST2_low_1;2;Same;low;82;132;132;f;v;1;j;v;1270.7452999998168
1d5#s4v;44;False;2;P = T1?;ST1_low_3;1;Same;low;70;112;70;f;v;0;j;b;2763.4689999999864
1d5#s4v;45;False;2;P = T1?;ST2_high_3;2;Same;high;70;96;96;f;v;1;j;b;1857.2023000001536
1d5#s4v;46;False;2;P = T2?;ST2_high_5;2;Same;high;96;132;132;f;v;1;f;v;1209.1220000002068
1d5#s4v;47;False;2;P = T1?;ST2_low_4;2;Same;low;112;70;70;f;v;1;j;v;1272.819199999958
1d5#s4v;48;False;2;P = T2?;ST1_low_5;1;Same;low;96;154;96;f;v;1;j;v;1158.0187999998088
1d5#s4v;49;False;2;P = T1?;ST1_high_4;1;Same;high;96;70;96;f;v;0;j;v;1240.3505999996014
1d5#s4v;50;False;2;P = T1?;ST2_low_4;2;Same;low;112;70;70;f;v;0;f;b;3680.88409999973
1d5#s4v;51;False;2;P = T2?;ST1_high_2;1;Same;high;112;82;112;f;v;1;j;v;1232.3594999998022
1d5#s4v;52;False;2;P = T1?;ST2_high_6;2;Same;high;132;96;96;f;v;1;j;v;1373.2104000000618
1d5#s4v;53;False;2;P = T2?;ST1_low_1;1;Same;low;82;132;82;f;v;1;j;v;1446.8291999996836
1d5#s4v;54;False;2;P = T2?;ST2_low_1;2;Same;low;82;132;132;f;v;1;f;v;1190.7359000001634
1d5#s4v;55;False;2;P = T2?;ST1_low_3;1;Same;low;70;112;70;f;v;1;j;v;1255.54719999991
1d5#s4v;56;False;2;P = T1?;ST1_high_5;1;Same;high;96;132;96;f;v;1;f;b;5946.975999999722
1d5#s4v;57;False;2;P = T2?;ST2_low_5;2;Same;low;96;154;154;f;v;1;f;b;1591.2253000001328
1d5#s4v;58;False;2;P = T1?;ST2_low_6;2;Same;low;154;96;96;f;v;1;j;v;1089.876500000173
1d5#s4v;59;False;2;P = T1?;ST2_high_6;2;Same;high;132;96;96;f;v;1;j;b;1209.733000000142
1d5#s4v;60;False;2;P = T1?;ST1_low_6;1;Same;low;154;96;154;f;v;1;f;v;1043.2080999999016
1d5#s4v;61;False;2;P = T1?;ST1_high_3;1;Same;high;70;96;70;f;v;1;f;v;224.8304999998254
1d5#s4v;62;False;2;P = T1?;DT1_high_2;1;Different;high;112;82;132;f;v;0;f;v;1632.2556999998596
1d5#s4v;63;False;2;P = T1?;ST1_high_3;1;Same;high;70;96;70;f;v;1;f;v;1198.291899999731
1d5#s4v;64;False;2;P = T1?;ST2_low_6;2;Same;low;154;96;96;f;v;1;j;v;1535.2514999999585
1d5#s4v;65;False;2;P = T2?;DT2_high_6;2;Different;high;132;96;82;f;v;0;f;v;1216.8007999998736
1d5#s4v;66;False;2;P = T2?;ST1_high_4;1;Same;high;96;70;96;f;v;0;f;v;1223.387300000013
1d5#s4v;67;False;2;P = T2?;ST2_low_6;2;Same;low;154;96;96;f;v;1;f;v;1136.6775000001326
1d5#s4v;68;False;2;P = T1?;ST1_low_5;1;Same;low;96;154;96;f;v;1;f;v;1328.7431999997352
1d5#s4v;69;False;2;P = T2?;ST1_high_6;1;Same;high;132;96;132;f;v;1;j;v;1044.1838000001553
1d5#s4v;70;False;2;P = T2?;ST2_high_6;2;Same;high;132;96;96;f;v;1;f;v;1408.5058999999092
1d5#s4v;71;False;2;P = T1?;ST2_low_2;2;Same;low;132;82;82;f;v;0;f;v;954.9901000000318
1d5#s4v;72;False;2;P = T2?;STb_2;0;Same;None;70;70;70;f;v;1;f;v;167.22239999990052
1d5#s4v;73;False;2;P = T2?;ST1_low_6;1;Same;low;154;96;154;f;v;1;j;v;1245.1924000001782
1d5#s4v;74;False;2;P = T2?;ST2_low_3;2;Same;low;70;112;112;f;v;1;f;v;964.7441999995863
1d5#s4v;75;False;2;P = T1?;ST2_high_4;2;Same;high;96;70;70;f;v;0;f;v;248.03259999998772
1d5#s4v;76;False;2;P = T1?;ST1_low_6;1;Same;low;154;96;154;f;v;1;f;v;1494.112800000039
1d5#s4v;77;False;2;P = T1?;STb_2;0;Same;None;70;70;70;f;v;1;f;v;241.19710000013583
1d5#s4v;78;False;2;P = T2?;ST1_high_6;1;Same;high;132;96;132;f;v;1;j;v;2042.6045999997768
1d5#s4v;79;False;2;P = T1?;DT1_high_6;1;Different;high;132;96;154;f;v;0;f;v;4453.883499999847
1d5#s4v;80;False;2;P = T1?;ST2_high_2;2;Same;high;112;82;82;f;v;0;f;v;1430.2314999999908
1d5#s4v;81;False;2;P = T2?;ST1_low_5;1;Same;low;96;154;96;f;v;1;j;v;1148.9246999999523
1d5#s4v;82;False;2;P = T1?;ST2_high_3;2;Same;high;70;96;96;f;v;1;j;v;1185.9143000001495
1d5#s4v;83;False;2;P = T1?;ST1_low_1;1;Same;low;82;132;82;f;v;1;f;v;857.1461999999883
1d5#s4v;84;False;2;P = T2?;STb_6;0;Same;None;132;132;132;f;v;1;f;v;362.4963000002026
1d5#s4v;85;False;2;P = T2?;STb_3;0;Same;None;82;82;82;f;v;1;f;v;281.4973999998074
1d5#s4v;86;False;2;P = T2?;ST1_low_2;1;Same;low;132;82;132;f;v;1;j;v;1110.4325999999674
1d5#s4v;87;False;2;P = T1?;ST1_high_6;1;Same;high;132;96;132;f;v;1;f;v;1576.0377000001426
1d5#s4v;88;False;2;P = T2?;ST2_high_1;2;Same;high;82;112;112;f;v;0;j;v;2022.4686999999903
1d5#s4v;89;False;2;P = T1?;STb_5;0;Same;None;112;112;112;f;v;1;f;v;900.4007999997157
1d5#s4v;90;False;2;P = T2?;ST2_high_4;2;Same;high;96;70;70;f;v;1;f;v;44.26229999990028
1d5#s4v;91;False;2;P = T2?;DT2_low_4;2;Different;low;112;70;60;f;v;0;f;v;607.3110000002089
1d5#s4v;92;False;2;P = T2?;ST2_high_2;2;Same;high;112;82;82;f;v;1;f;v;271.07569999998304
1d5#s4v;93;False;2;P = T1?;ST2_high_6;2;Same;high;132;96;96;f;v;0;f;v;299.1023999998106
1d5#s4v;94;False;2;P = T2?;ST1_low_1;1;Same;low;82;132;82;f;v;1;j;v;992.5536000000648
1d5#s4v;95;False;2;P = T2?;ST2_high_5;2;Same;high;96;132;132;f;v;1;f;v;604.6176999998352
1d5#s4v;96;False;2;P = T1?;ST1_high_1;1;Same;high;82;112;82;f;v;1;f;v;355.9888999998293
1d5#s4v;97;False;2;P = T1?;ST1_low_2;1;Same;low;132;82;132;f;v;1;f;v;745.9979000000203
1d5#s4v;98;False;2;P = T1?;ST2_low_5;2;Same;low;96;154;154;f;v;0;f;v;238.33289999993212
1d5#s4v;99;False;2;P = T2?;ST1_low_2;1;Same;low;132;82;132;f;v;1;j;v;907.4608999999327
1d5#s4v;100;False;2;P = T1?;ST2_high_4;2;Same;high;96;70;70;f;v;1;j;v;1034.365799999705
1d5#s4v;101;False;2;P = T1?;STb_8;0;Same;None;180;180;180;f;v;1;f;v;807.0042999997895
1d5#s4v;102;False;2;P = T2?;ST2_high_1;2;Same;high;82;112;112;f;v;1;f;v;198.28300000017407
1d5#s4v;103;False;2;P = T2?;ST1_high_3;1;Same;high;70;96;70;f;v;0;f;v;341.8440999998893
1d5#s4v;104;False;2;P = T2?;ST1_high_5;1;Same;high;96;132;96;f;v;1;j;b;3126.917300000059
1d5#s4v;105;False;2;P = T1?;ST2_low_2;2;Same;low;132;82;82;f;v;1;j;v;815.0955000000977
1d5#s4v;106;False;2;P = T2?;ST2_high_6;2;Same;high;132;96;96;f;v;1;f;v;1643.0658999997831
1d5#s4v;107;False;2;P = T2?;ST2_low_1;2;Same;low;82;132;132;f;v;1;f;v;594.673099999909
1d5#s4v;108;False;2;P = T2?;ST1_low_3;1;Same;low;70;112;70;f;v;1;j;v;982.3652000000038
1d5#s4v;109;False;2;P = T1?;ST1_low_6;1;Same;low;154;96;154;f;v;1;f;v;2380.6455999997524
1d5#s4v;110;False;2;P = T1?;ST2_low_4;2;Same;low;112;70;70;f;v;0;f;v;485.0304000001415
1d5#s4v;111;False;2;P = T1?;ST2_high_5;2;Same;high;96;132;132;f;v;0;f;v;426.6489999999976
1d5#s4v;112;False;2;P = T2?;STb_8;0;Same;None;180;180;180;f;v;1;f;v;300.25389999991603
1d5#s4v;113;False;2;P = T1?;ST1_low_3;1;Same;low;70;112;70;f;v;1;f;v;408.52769999992233
1d5#s4v;114;False;2;P = T1?;ST1_high_5;1;Same;high;96;132;96;f;v;1;f;v;685.5877000002693
1d5#s4v;115;False;2;P = T2?;DT1_low_5;1;Different;low;96;154;82;f;v;1;j;v;1006.8891999999323
1d5#s4v;116;False;2;P = T2?;DT2_low_2;2;Different;low;132;82;70;f;v;0;f;v;972.6039000001947
1d5#s4v;117;False;2;P = T1?;ST2_high_4;2;Same;high;96;70;70;f;v;1;j;v;1919.5521000001463
1d5#s4v;118;False;2;P = T1?;ST2_low_3;2;Same;low;70;112;112;f;v;1;j;v;1291.6175999998813
1d5#s4v;119;False;2;P = T2?;ST2_high_6;2;Same;high;132;96;96;f;v;1;f;v;1229.093400000238
1d5#s4v;120;False;2;P = T1?;ST2_high_2;2;Same;high;112;82;82;f;v;1;j;n;1372.8240999998889
1d5#s4v;121;False;2;P = T1?;DT2_low_3;2;Different;low;70;112;132;f;v;1;j;v;1087.1124999998756
1d5#s4v;122;False;2;P = T2?;STb_5;0;Same;None;112;112;112;f;v;1;f;b;2244.792700000289
1d5#s4v;123;False;2;P = T1?;DT1_low_5;1;Different;low;96;154;82;f;v;0;f;v;1777.1680999999262
1d5#s4v;124;False;2;P = T2?;DT2_low_1;2;Different;low;82;132;154;f;v;0;f;v;668.8385000002199
1d5#s4v;125;False;2;P = T2?;STb_1;0;Same;None;60;60;60;f;v;1;f;v;784.419600000092
1d5#s4v;126;False;2;P = T1?;ST2_high_2;2;Same;high;112;82;82;f;v;1;j;n;1784.208900000067
1d5#s4v;127;False;2;P = T2?;ST2_low_4;2;Same;low;112;70;70;f;v;1;f;v;991.6253000001234
1d5#s4v;128;False;2;P = T2?;DT1_low_6;1;Different;low;154;96;180;f;v;1;j;v;5924.826500000108
1d5#s4v;129;False;2;P = T2?;ST1_high_4;1;Same;high;96;70;96;f;v;0;f;v;5925.503299999946
1d5#s4v;130;False;2;P = T1?;ST2_high_1;2;Same;high;82;112;112;f;v;0;f;v;759.6348000001854
1d5#s4v;131;False;2;P = T1?;ST2_low_1;2;Same;low;82;132;132;f;v;1;j;v;908.96980000025
1d5#s4v;132;False;2;P = T2?;ST1_high_4;1;Same;high;96;70;96;f;v;0;f;v;250.57179999976142
1d5#s4v;133;False;2;P = T2?;ST2_low_2;2;Same;low;132;82;82;f;v;1;f;v;1133.940800000346
1d5#s4v;134;False;2;P = T2?;ST2_high_2;2;Same;high;112;82;82;f;v;1;f;v;1538.5105000000294
1d5#s4v;135;False;2;P = T1?;ST1_low_1;1;Same;low;82;132;82;f;v;1;f;v;1182.7784000001884
1d5#s4v;136;False;2;P = T2?;ST1_high_2;1;Same;high;112;82;112;f;v;1;j;v;1931.4527999999882
1d5#s4v;137;False;2;P = T1?;ST1_high_6;1;Same;high;132;96;132;f;v;1;f;v;522.6915000002919
1d5#s4v;138;False;2;P = T1?;ST2_low_2;2;Same;low;132;82;82;f;v;1;j;v;1433.4908999999243
1d5#s4v;139;False;2;P = T1?;ST1_high_4;1;Same;high;96;70;96;f;v;0;j;n;1892.6769999998214
1d5#s4v;140;False;2;P = T1?;ST1_high_3;1;Same;high;70;96;70;f;v;1;f;v;829.6348999997463
1d5#s4v;141;False;2;P = T2?;ST1_low_3;1;Same;low;70;112;70;f;v;1;j;v;1606.717000000117
1d5#s4v;142;False;2;P = T2?;ST2_low_6;2;Same;low;154;96;96;f;v;1;f;v;1241.1736000003657
1d5#s4v;143;False;2;P = T1?;ST1_high_2;1;Same;high;112;82;112;f;v;1;f;v;912.268099999892
1d5#s4v;144;False;2;P = T2?;ST1_low_4;1;Same;low;112;70;112;f;v;1;j;n;2682.9922000001716
1d5#s4v;145;False;2;P = T2?;ST2_low_2;2;Same;low;132;82;82;f;v;1;f;b;1153.518200000235
1d5#s4v;146;False;2;P = T2?;ST2_high_3;2;Same;high;70;96;96;f;v;0;j;b;1374.544600000263
1d5#s4v;147;False;2;P = T1?;ST1_low_4;1;Same;low;112;70;112;f;v;1;f;v;1107.9303999999865
1d5#s4v;148;False;2;P = T1?;DT1_low_1;1;Different;low;82;132;70;f;v;0;f;v;1081.7442000002302
1d5#s4v;149;False;2;P = T1?;ST1_low_2;1;Same;low;132;82;132;f;v;1;f;v;8286.639899999955
1d5#s4v;150;False;2;P = T2?;ST2_low_5;2;Same;low;96;154;154;f;v;1;f;v;1840.4681000001801
1d5#s4v;151;False;2;P = T2?;ST1_low_6;1;Same;low;154;96;154;f;v;1;j;v;1350.905799999964
1d5#s4v;152;False;2;P = T2?;ST1_high_2;1;Same;high;112;82;112;f;v;1;j;v;3362.9980000000614
1d5#s4v;153;False;2;P = T2?;ST2_high_4;2;Same;high;96;70;70;f;v;0;j;v;925.3377
1d5#s4v;154;False;2;P = T1?;ST1_low_5;1;Same;low;96;154;96;f;v;1;f;n;2262.1972000001733
1d5#s4v;155;False;2;P = T1?;ST2_high_3;2;Same;high;70;96;96;f;v;0;f;b;5693.871899999976
1d5#s4v;156;False;2;P = T2?;ST1_low_1;1;Same;low;82;132;82;f;v;1;j;v;1617.3251000000164
1d5#s4v;157;False;2;P = T2?;ST1_high_1;1;Same;high;82;112;82;f;v;1;j;v;952.2405999996408
1d5#s4v;158;False;2;P = T1?;ST1_low_4;1;Same;low;112;70;112;f;v;1;f;v;1204.1039000005185
1d5#s4v;159;False;2;P = T2?;DT2_high_3;2;Different;high;70;96;112;f;v;0;f;v;1670.2652000003582
1d5#s4v;160;False;2;P = T1?;ST2_low_1;2;Same;low;82;132;132;f;v;1;j;v;1162.3160999997708
1d5#s4v;161;False;2;P = T2?;ST2_low_2;2;Same;low;132;82;82;f;v;1;f;v;1496.991799999705
1d5#s4v;162;False;2;P = T1?;ST1_high_1;1;Same;high;82;112;82;f;v;0;j;v;1448.928099999648
1d5#s4v;163;False;2;P = T2?;ST1_low_2;1;Same;low;132;82;132;f;v;1;j;v;2193.02289999996
1d5#s4v;164;False;2;P = T2?;ST1_low_4;1;Same;low;112;70;112;f;v;1;j;v;1242.5257999993846
1d5#s4v;165;False;2;P = T1?;ST1_high_2;1;Same;high;112;82;112;f;v;1;f;v;1470.8133000003727
1d5#s4v;166;False;2;P = T2?;ST2_high_3;2;Same;high;70;96;96;f;v;1;f;v;1231.5822999999
1d5#s4v;167;False;2;P = T2?;ST2_low_3;2;Same;low;70;112;112;f;v;1;f;v;1662.1570999996038
1d5#s4v;168;False;2;P = T1?;STb_1;0;Same;None;60;60;60;f;v;1;f;v;1066.9856000004074
1d5#s4v;169;False;2;P = T2?;ST2_low_1;2;Same;low;82;132;132;f;v;1;f;v;951.9197999998141
1d5#s4v;170;False;2;P = T2?;STb_7;0;Same;None;154;154;154;f;v;1;f;v;1020.5130000003919
1d5#s4v;171;False;2;P = T1?;ST2_high_5;2;Same;high;96;132;132;f;v;1;j;v;4628.6362999999255
1d5#s4v;172;False;2;P = T1?;ST1_high_6;1;Same;high;132;96;132;f;v;1;f;v;1565.3298000006544
1d5#s4v;173;False;2;P = T1?;ST2_low_5;2;Same;low;96;154;154;f;v;1;j;b;1035.1276000001235
1d5#s4v;174;False;2;P = T2?;ST2_high_5;2;Same;high;96;132;132;f;v;1;f;v;1662.8491999999824
1d5#s4v;175;False;2;P = T2?;ST2_high_1;2;Same;high;82;112;112;f;v;1;f;v;1877.366699999584
1d5#s4v;176;False;2;P = T1?;STb_6;0;Same;None;132;132;132;f;v;1;f;v;234.53239999980724
