p_code;trial_nr;practice;block;question;condition;seqPos;Same_or_Diff;ITS;T1_hz;T2_hz;P_hz;yes_key;sure_key;correct;yes_no;rating;resp_time
r!3wy58;1;True;1;P != T1?;DT1_high_5;1;Different;high;96;132;82;f;v;0;j;v;3792.5028000004204
r!3wy58;2;True;1;P != T2?;STb_7;0;Same;None;154;154;154;f;v;0;f;v;4682.265299999926
r!3wy58;3;True;1;P != T1?;ST1_high_2;1;Same;high;112;82;112;f;v;1;j;b;2819.804000000204
r!3wy58;4;True;1;P != T2?;ST1_low_1;1;Same;low;82;132;82;f;v;1;f;v;1956.6423000001123
r!3wy58;5;True;1;P != T1?;ST1_low_4;1;Same;low;112;70;112;f;v;1;j;b;3043.8608000004024
r!3wy58;6;True;1;P != T1?;ST2_high_6;2;Same;high;132;96;96;f;v;1;f;v;1854.8667000000023
r!3wy58;7;True;1;P != T2?;ST2_high_3;2;Same;high;70;96;96;f;v;0;f;v;3829.761399999825
r!3wy58;8;True;1;P != T1?;DT1_low_6;1;Different;low;154;96;180;f;v;1;f;b;2563.7300999997024
r!3wy58;9;True;1;P != T1?;STb_6;0;Same;None;132;132;132;f;v;1;j;b;4042.548599999918
r!3wy58;10;True;1;P != T2?;DT2_low_6;2;Different;low;154;96;82;f;v;1;f;b;2379.961800000274
r!3wy58;11;True;1;P != T2?;ST1_low_5;1;Same;low;96;154;96;f;v;1;f;v;2218.81889999986
r!3wy58;12;True;1;P != T2?;STb_3;0;Same;None;82;82;82;f;v;1;j;b;1772.9416000001947
r!3wy58;13;True;1;P != T2?;DT1_low_4;1;Different;low;112;70;132;f;v;1;f;v;2459.6459999997933
r!3wy58;14;True;1;P != T2?;ST2_high_2;2;Same;high;112;82;82;f;v;0;f;v;1633.028600000216
r!3wy58;15;True;1;P != T1?;ST2_low_6;2;Same;low;154;96;96;f;v;1;f;v;2267.2723999999107
r!3wy58;16;True;1;P != T1?;STb_4;0;Same;None;96;96;96;f;v;0;f;v;1640.4152000000067
p_code;trial_nr;practice;block;question;condition;seqPos;Same_or_Diff;ITS;T1_hz;T2_hz;P_hz;yes_key;sure_key;correct;yes_no;rating;resp_time
r!3wy58;1;False;1;P != T2?;ST1_high_4;1;Same;high;96;70;96;f;v;1;f;b;2368.5239000001275
r!3wy58;2;False;1;P != T2?;ST2_low_3;2;Same;low;70;112;112;f;v;1;j;b;1581.1712999998235
r!3wy58;3;False;1;P != T2?;STb_7;0;Same;None;154;154;154;f;v;1;j;b;3239.489500000218
r!3wy58;4;False;1;P != T1?;ST1_low_4;1;Same;low;112;70;112;f;v;1;j;v;1376.6052000000855
r!3wy58;5;False;1;P != T2?;ST2_low_4;2;Same;low;112;70;70;f;v;1;j;b;2300.0868999997692
r!3wy58;6;False;1;P != T1?;ST2_high_2;2;Same;high;112;82;82;f;v;1;f;v;1725.9472999999161
r!3wy58;7;False;1;P != T1?;DT1_high_1;1;Different;high;82;112;70;f;v;0;j;b;2637.7164999998968
r!3wy58;8;False;1;P != T1?;DT2_low_4;2;Different;low;112;70;60;f;v;1;f;v;1932.9688000002534
r!3wy58;9;False;1;P != T1?;ST1_high_5;1;Same;high;96;132;96;f;v;1;j;b;1132.2117999998227
r!3wy58;10;False;1;P != T1?;ST1_low_2;1;Same;low;132;82;132;f;v;1;j;n;1861.1178000001019
r!3wy58;11;False;1;P != T2?;ST2_low_6;2;Same;low;154;96;96;f;v;0;f;n;1578.5439999999653
r!3wy58;12;False;1;P != T2?;ST2_low_1;2;Same;low;82;132;132;f;v;1;j;b;1277.770799999871
r!3wy58;13;False;1;P != T1?;ST1_low_3;1;Same;low;70;112;70;f;v;1;j;v;1399.5161999996526
r!3wy58;14;False;1;P != T2?;ST1_low_3;1;Same;low;70;112;70;f;v;1;f;v;2623.372500000187
r!3wy58;15;False;1;P != T1?;ST2_low_5;2;Same;low;96;154;154;f;v;1;f;v;6243.824099999983
r!3wy58;16;False;1;P != T1?;ST1_low_3;1;Same;low;70;112;70;f;v;1;j;b;1769.54539999997
r!3wy58;17;False;1;P != T2?;ST1_low_6;1;Same;low;154;96;154;f;v;1;f;n;2711.154400000396
r!3wy58;18;False;1;P != T1?;ST2_high_1;2;Same;high;82;112;112;f;v;0;j;b;4262.799399999949
r!3wy58;19;False;1;P != T1?;ST2_low_4;2;Same;low;112;70;70;f;v;1;f;b;4700.124699999833
r!3wy58;20;False;1;P != T2?;ST2_high_5;2;Same;high;96;132;132;f;v;0;f;v;1560.331999999562
r!3wy58;21;False;1;P != T2?;ST2_high_3;2;Same;high;70;96;96;f;v;1;j;n;3775.5726000000323
r!3wy58;22;False;1;P != T1?;ST1_high_2;1;Same;high;112;82;112;f;v;0;f;v;2013.6406000001443
r!3wy58;23;False;1;P != T2?;STb_3;0;Same;None;82;82;82;f;v;1;j;v;1864.455000000362
r!3wy58;24;False;1;P != T1?;ST2_low_2;2;Same;low;132;82;82;f;v;0;j;v;2017.7865999999085
r!3wy58;25;False;1;P != T1?;ST2_low_2;2;Same;low;132;82;82;f;v;1;f;b;2285.28230000029
r!3wy58;26;False;1;P != T2?;ST1_high_2;1;Same;high;112;82;112;f;v;1;f;b;1370.2150999997684
r!3wy58;27;False;1;P != T2?;ST2_high_2;2;Same;high;112;82;82;f;v;1;j;b;1713.0388000000494
r!3wy58;28;False;1;P != T2?;DT1_high_6;1;Different;high;132;96;154;f;v;1;f;v;2897.545899999841
r!3wy58;29;False;1;P != T2?;ST1_high_3;1;Same;high;70;96;70;f;v;1;f;v;13206.732599999668
r!3wy58;30;False;1;P != T2?;ST2_high_5;2;Same;high;96;132;132;f;v;1;j;b;1382.6318000001265
r!3wy58;31;False;1;P != T1?;ST1_low_2;1;Same;low;132;82;132;f;v;1;j;b;4759.600200000023
r!3wy58;32;False;1;P != T2?;ST1_high_1;1;Same;high;82;112;82;f;v;1;f;v;1586.368599999787
r!3wy58;33;False;1;P != T2?;DT2_low_6;2;Different;low;154;96;82;f;v;1;f;n;2805.5678999999145
r!3wy58;34;False;1;P != T2?;ST2_low_6;2;Same;low;154;96;96;f;v;0;f;n;6746.377299999949
r!3wy58;35;False;1;P != T2?;ST2_high_6;2;Same;high;132;96;96;f;v;0;f;b;3015.9883000001173
r!3wy58;36;False;1;P != T2?;ST1_low_4;1;Same;low;112;70;112;f;v;1;f;b;1790.7187999999223
r!3wy58;37;False;1;P != T2?;STb_4;0;Same;None;96;96;96;f;v;1;j;v;2529.237799999919
r!3wy58;38;False;1;P != T2?;ST1_low_6;1;Same;low;154;96;154;f;v;1;f;v;1649.7907999996642
r!3wy58;39;False;1;P != T2?;ST1_high_5;1;Same;high;96;132;96;f;v;1;f;v;1888.8992000001963
r!3wy58;40;False;1;P != T1?;ST2_high_3;2;Same;high;70;96;96;f;v;0;j;b;2266.7695999998614
r!3wy58;41;False;1;P != T2?;ST2_high_3;2;Same;high;70;96;96;f;v;0;f;v;1526.011599999947
r!3wy58;42;False;1;P != T1?;STb_5;0;Same;None;112;112;112;f;v;0;f;v;1754.3945000002168
r!3wy58;43;False;1;P != T1?;DT1_high_5;1;Different;high;96;132;82;f;v;0;j;v;2890.684599999986
r!3wy58;44;False;1;P != T1?;ST2_high_5;2;Same;high;96;132;132;f;v;1;f;v;3055.230599999959
r!3wy58;45;False;1;P != T2?;ST2_low_4;2;Same;low;112;70;70;f;v;1;j;n;3388.9523999996527
r!3wy58;46;False;1;P != T2?;ST1_low_3;1;Same;low;70;112;70;f;v;1;f;v;2227.741299999707
r!3wy58;47;False;1;P != T2?;ST1_high_6;1;Same;high;132;96;132;f;v;1;f;b;7833.695599999828
r!3wy58;48;False;1;P != T2?;ST2_high_1;2;Same;high;82;112;112;f;v;0;f;v;1773.8730000000942
r!3wy58;49;False;1;P != T1?;STb_4;0;Same;None;96;96;96;f;v;1;j;b;2629.8580000002403
r!3wy58;50;False;1;P != T2?;ST1_low_2;1;Same;low;132;82;132;f;v;1;f;v;1984.3418000000383
r!3wy58;51;False;1;P != T2?;STb_6;0;Same;None;132;132;132;f;v;0;f;v;2677.923799999917
r!3wy58;52;False;1;P != T1?;ST2_high_3;2;Same;high;70;96;96;f;v;1;f;v;1806.1643000000913
r!3wy58;53;False;1;P != T2?;ST1_high_1;1;Same;high;82;112;82;f;v;1;f;v;1827.7732000001379
r!3wy58;54;False;1;P != T2?;ST1_high_1;1;Same;high;82;112;82;f;v;1;f;v;2986.7762000003495
r!3wy58;55;False;1;P != T2?;ST2_low_5;2;Same;low;96;154;154;f;v;1;j;v;2079.799600000115
r!3wy58;56;False;1;P != T2?;ST2_high_6;2;Same;high;132;96;96;f;v;1;j;n;3203.843400000096
r!3wy58;57;False;1;P != T2?;DT1_low_5;1;Different;low;96;154;82;f;v;1;f;v;2994.543700000122
r!3wy58;58;False;1;P != T1?;STb_6;0;Same;None;132;132;132;f;v;0;f;v;1701.0887000001276
r!3wy58;59;False;1;P != T1?;ST1_low_1;1;Same;low;82;132;82;f;v;0;f;v;830.818200000067
r!3wy58;60;False;1;P != T1?;ST1_high_1;1;Same;high;82;112;82;f;v;1;j;b;1566.5855000002011
r!3wy58;61;False;1;P != T1?;ST1_high_6;1;Same;high;132;96;132;f;v;0;f;v;2784.5657999996547
r!3wy58;62;False;1;P != T2?;ST2_high_1;2;Same;high;82;112;112;f;v;1;j;b;1564.0360000002147
r!3wy58;63;False;1;P != T1?;ST1_high_1;1;Same;high;82;112;82;f;v;1;j;b;9147.884599999998
r!3wy58;64;False;1;P != T1?;ST1_high_2;1;Same;high;112;82;112;f;v;1;j;b;4280.430900000283
r!3wy58;65;False;1;P != T1?;ST1_high_4;1;Same;high;96;70;96;f;v;1;j;v;1567.4340000000484
r!3wy58;66;False;1;P != T1?;ST1_low_5;1;Same;low;96;154;96;f;v;1;j;n;2429.44690000013
r!3wy58;67;False;1;P != T2?;ST1_high_2;1;Same;high;112;82;112;f;v;0;j;v;1165.568599999915
r!3wy58;68;False;1;P != T2?;ST2_high_4;2;Same;high;96;70;70;f;v;1;j;b;1069.0068999997493
r!3wy58;69;False;1;P != T1?;STb_7;0;Same;None;154;154;154;f;v;0;f;v;1657.6586000001043
r!3wy58;70;False;1;P != T1?;ST1_low_4;1;Same;low;112;70;112;f;v;1;j;b;1716.9747000002644
r!3wy58;71;False;1;P != T1?;ST2_low_6;2;Same;low;154;96;96;f;v;1;f;v;1687.590999999884
r!3wy58;72;False;1;P != T1?;ST2_high_3;2;Same;high;70;96;96;f;v;0;j;n;1471.4696000000913
r!3wy58;73;False;1;P != T1?;ST1_high_5;1;Same;high;96;132;96;f;v;1;j;n;2775.799300000017
r!3wy58;74;False;1;P != T2?;ST1_high_3;1;Same;high;70;96;70;f;v;1;f;v;1719.3822999997792
r!3wy58;75;False;1;P != T2?;ST2_high_5;2;Same;high;96;132;132;f;v;1;j;v;1097.3034999997253
r!3wy58;76;False;1;P != T1?;ST1_low_6;1;Same;low;154;96;154;f;v;1;j;v;1958.028199999717
r!3wy58;77;False;1;P != T2?;ST2_low_3;2;Same;low;70;112;112;f;v;1;j;v;1495.904899999914
r!3wy58;78;False;1;P != T1?;ST2_low_3;2;Same;low;70;112;112;f;v;0;j;n;5399.9902000000475
r!3wy58;79;False;1;P != T1?;ST1_low_1;1;Same;low;82;132;82;f;v;1;j;b;1276.046800000131
r!3wy58;80;False;1;P != T2?;ST2_low_2;2;Same;low;132;82;82;f;v;1;j;v;2069.7564000001876
r!3wy58;81;False;1;P != T2?;ST1_low_3;1;Same;low;70;112;70;f;v;1;f;b;2963.1419000002097
r!3wy58;82;False;1;P != T2?;ST2_low_3;2;Same;low;70;112;112;f;v;0;f;b;1988.4861999998975
r!3wy58;83;False;1;P != T2?;ST1_low_1;1;Same;low;82;132;82;f;v;1;f;b;2546.252000000095
r!3wy58;84;False;1;P != T1?;ST1_high_4;1;Same;high;96;70;96;f;v;0;f;b;1656.5038999997341
r!3wy58;85;False;1;P != T1?;ST2_low_4;2;Same;low;112;70;70;f;v;1;f;n;1901.7438999999285
r!3wy58;86;False;1;P != T2?;ST1_low_2;1;Same;low;132;82;132;f;v;1;f;v;1394.7803000000931
r!3wy58;87;False;1;P != T2?;ST1_low_4;1;Same;low;112;70;112;f;v;1;f;v;1353.4779000001436
r!3wy58;88;False;1;P != T2?;ST2_low_5;2;Same;low;96;154;154;f;v;1;j;v;1285.780700000032
r!3wy58;89;False;1;P != T2?;DT2_high_6;2;Different;high;132;96;82;f;v;1;f;b;4103.651899999932
r!3wy58;90;False;1;P != T1?;ST2_high_1;2;Same;high;82;112;112;f;v;1;f;n;4248.7842999998975
r!3wy58;91;False;1;P != T1?;ST1_high_3;1;Same;high;70;96;70;f;v;1;j;n;1800.0670000001264
r!3wy58;92;False;1;P != T1?;ST2_low_3;2;Same;low;70;112;112;f;v;1;f;n;2283.224799999971
r!3wy58;93;False;1;P != T2?;ST2_low_2;2;Same;low;132;82;82;f;v;0;f;v;2309.2985999996927
r!3wy58;94;False;1;P != T2?;DT2_high_2;2;Different;high;112;82;70;f;v;1;f;n;2103.770899999745
r!3wy58;95;False;1;P != T2?;DT1_high_5;1;Different;high;96;132;82;f;v;1;f;v;1314.3162999999731
r!3wy58;96;False;1;P != T1?;ST1_high_5;1;Same;high;96;132;96;f;v;1;j;n;5766.8705000000955
r!3wy58;97;False;1;P != T1?;ST2_low_5;2;Same;low;96;154;154;f;v;0;j;n;2224.636399999781
r!3wy58;98;False;1;P != T2?;STb_2;0;Same;None;70;70;70;f;v;1;j;v;901.2391999999636
r!3wy58;99;False;1;P != T1?;ST2_low_5;2;Same;low;96;154;154;f;v;1;f;v;1533.7090000002718
r!3wy58;100;False;1;P != T2?;ST1_low_5;1;Same;low;96;154;96;f;v;1;f;v;4098.77490000008
r!3wy58;101;False;1;P != T2?;ST2_high_1;2;Same;high;82;112;112;f;v;0;f;v;1222.8077999998277
r!3wy58;102;False;1;P != T1?;ST2_high_4;2;Same;high;96;70;70;f;v;1;f;v;1598.594999999932
r!3wy58;103;False;1;P != T1?;ST1_high_6;1;Same;high;132;96;132;f;v;1;j;n;2265.470499999992
r!3wy58;104;False;1;P != T2?;ST1_high_2;1;Same;high;112;82;112;f;v;1;f;v;1391.6696999999658
r!3wy58;105;False;1;P != T1?;ST1_high_4;1;Same;high;96;70;96;f;v;0;f;v;1086.848600000394
r!3wy58;106;False;1;P != T2?;ST2_low_1;2;Same;low;82;132;132;f;v;1;j;v;1306.3011999997798
r!3wy58;107;False;1;P != T1?;ST1_high_1;1;Same;high;82;112;82;f;v;0;f;b;2389.2079000002013
r!3wy58;108;False;1;P != T1?;ST2_high_5;2;Same;high;96;132;132;f;v;1;f;n;1480.086599999595
r!3wy58;109;False;1;P != T2?;ST1_low_4;1;Same;low;112;70;112;f;v;1;f;v;1808.159600000181
r!3wy58;110;False;1;P != T1?;ST2_low_6;2;Same;low;154;96;96;f;v;1;f;b;1735.8352000001105
r!3wy58;111;False;1;P != T2?;ST2_low_2;2;Same;low;132;82;82;f;v;1;j;b;3301.681500000086
r!3wy58;112;False;1;P != T1?;ST1_low_4;1;Same;low;112;70;112;f;v;1;j;b;1043.569800000114
r!3wy58;113;False;1;P != T1?;ST1_high_3;1;Same;high;70;96;70;f;v;0;f;b;5776.649700000235
r!3wy58;114;False;1;P != T2?;ST1_high_6;1;Same;high;132;96;132;f;v;1;f;b;2910.3636999998344
r!3wy58;115;False;1;P != T1?;ST1_low_6;1;Same;low;154;96;154;f;v;1;j;b;1702.8843999996752
r!3wy58;116;False;1;P != T1?;ST2_low_6;2;Same;low;154;96;96;f;v;1;f;b;3395.0796000008268
r!3wy58;117;False;1;P != T2?;STb_5;0;Same;None;112;112;112;f;v;1;j;b;1803.1901999993352
r!3wy58;118;False;1;P != T1?;ST2_high_5;2;Same;high;96;132;132;f;v;1;f;b;2166.248800000176
r!3wy58;119;False;1;P != T1?;DT2_low_5;2;Different;low;96;154;180;f;v;1;f;b;1508.32199999968
r!3wy58;120;False;1;P != T2?;ST1_high_5;1;Same;high;96;132;96;f;v;1;f;v;6696.948200000406
r!3wy58;121;False;1;P != T1?;ST2_high_2;2;Same;high;112;82;82;f;v;1;f;v;2275.828900000306
r!3wy58;122;False;1;P != T2?;ST1_low_6;1;Same;low;154;96;154;f;v;1;f;v;1887.9359000002296
r!3wy58;123;False;1;P != T1?;ST2_high_4;2;Same;high;96;70;70;f;v;1;f;v;6614.058500000283
r!3wy58;124;False;1;P != T2?;ST1_low_5;1;Same;low;96;154;96;f;v;0;j;n;9690.752200000134
r!3wy58;125;False;1;P != T2?;DT1_high_4;1;Different;high;96;70;112;f;v;1;f;v;1984.3018000001393
r!3wy58;126;False;1;P != T1?;ST2_high_2;2;Same;high;112;82;82;f;v;1;f;n;10844.107899999472
r!3wy58;127;False;1;P != T1?;ST1_high_3;1;Same;high;70;96;70;f;v;1;j;b;5406.404699999257
r!3wy58;128;False;1;P != T2?;ST1_high_6;1;Same;high;132;96;132;f;v;1;f;n;1355.9955000000627
r!3wy58;129;False;1;P != T1?;ST1_low_3;1;Same;low;70;112;70;f;v;1;j;b;4112.052399999811
r!3wy58;130;False;1;P != T2?;ST1_high_4;1;Same;high;96;70;96;f;v;1;f;v;1579.0774999995847
r!3wy58;131;False;1;P != T2?;STb_1;0;Same;None;60;60;60;f;v;1;j;v;1085.7510000005277
r!3wy58;132;False;1;P != T1?;ST2_high_4;2;Same;high;96;70;70;f;v;0;j;v;9527.948899999501
r!3wy58;133;False;1;P != T2?;ST1_high_5;1;Same;high;96;132;96;f;v;1;f;v;1413.6521000000357
r!3wy58;134;False;1;P != T1?;DT1_high_4;1;Different;high;96;70;112;f;v;0;j;v;3424.1515000003346
r!3wy58;135;False;1;P != T2?;STb_8;0;Same;None;180;180;180;f;v;0;f;v;13035.378700000365
r!3wy58;136;False;1;P != T2?;ST1_low_1;1;Same;low;82;132;82;f;v;1;f;v;1505.3157999991527
r!3wy58;137;False;1;P != T1?;STb_2;0;Same;None;70;70;70;f;v;0;f;n;2473.1050000000323
r!3wy58;138;False;1;P != T2?;ST2_low_1;2;Same;low;82;132;132;f;v;0;f;n;1149.9118000001545
r!3wy58;139;False;1;P != T1?;ST2_high_6;2;Same;high;132;96;96;f;v;1;f;v;1169.315000000097
r!3wy58;140;False;1;P != T1?;ST2_low_1;2;Same;low;82;132;132;f;v;1;f;v;1793.6121999991883
r!3wy58;141;False;1;P != T1?;ST1_high_6;1;Same;high;132;96;132;f;v;1;j;b;1317.109999999957
r!3wy58;142;False;1;P != T1?;ST1_low_6;1;Same;low;154;96;154;f;v;1;j;b;2980.6833999991795
r!3wy58;143;False;1;P != T1?;ST2_low_3;2;Same;low;70;112;112;f;v;0;j;b;2462.847800000418
r!3wy58;144;False;1;P != T2?;ST1_low_1;1;Same;low;82;132;82;f;v;1;f;v;1283.1301999995048
r!3wy58;145;False;1;P != T1?;ST2_low_4;2;Same;low;112;70;70;f;v;1;f;v;1685.7925999993313
r!3wy58;146;False;1;P != T1?;DT1_high_3;1;Different;high;70;96;60;f;v;0;j;v;1299.4878999998036
r!3wy58;147;False;1;P != T2?;ST2_low_5;2;Same;low;96;154;154;f;v;1;j;v;1685.8659999998054
r!3wy58;148;False;1;P != T1?;ST1_high_2;1;Same;high;112;82;112;f;v;1;j;v;1931.5233999996053
r!3wy58;149;False;1;P != T1?;ST2_low_1;2;Same;low;82;132;132;f;v;1;f;n;2002.8928000001542
r!3wy58;150;False;1;P != T1?;ST2_high_6;2;Same;high;132;96;96;f;v;1;f;v;1460.155499999928
r!3wy58;151;False;1;P != T1?;DT1_low_3;1;Different;low;70;112;60;f;v;1;f;v;950.7713000002695
r!3wy58;152;False;1;P != T1?;ST2_high_6;2;Same;high;132;96;96;f;v;1;f;v;1165.368099999796
r!3wy58;153;False;1;P != T2?;ST2_high_2;2;Same;high;112;82;82;f;v;0;f;v;2403.0079000003752
r!3wy58;154;False;1;P != T2?;ST2_high_3;2;Same;high;70;96;96;f;v;0;f;v;1177.0316000001912
r!3wy58;155;False;1;P != T2?;ST1_high_3;1;Same;high;70;96;70;f;v;1;f;v;1983.744399999523
r!3wy58;156;False;1;P != T1?;ST1_low_1;1;Same;low;82;132;82;f;v;1;j;b;1883.306600000651
r!3wy58;157;False;1;P != T2?;ST2_high_4;2;Same;high;96;70;70;f;v;1;j;n;1836.051199999929
r!3wy58;158;False;1;P != T1?;DT2_low_6;2;Different;low;154;96;82;f;v;1;f;v;1963.4391999998115
r!3wy58;159;False;1;P != T2?;ST2_low_4;2;Same;low;112;70;70;f;v;0;f;b;2632.421900000736
r!3wy58;160;False;1;P != T2?;DT1_high_3;1;Different;high;70;96;60;f;v;1;f;v;1353.65450000063
r!3wy58;161;False;1;P != T1?;ST2_high_1;2;Same;high;82;112;112;f;v;1;f;n;2801.2614999997822
r!3wy58;162;False;1;P != T1?;STb_8;0;Same;None;180;180;180;f;v;1;j;v;1605.154400000174
r!3wy58;163;False;1;P != T2?;ST2_high_2;2;Same;high;112;82;82;f;v;0;f;v;1440.0009000000864
r!3wy58;164;False;1;P != T2?;ST2_low_6;2;Same;low;154;96;96;f;v;1;j;n;2876.2563999998747
r!3wy58;165;False;1;P != T1?;STb_3;0;Same;None;82;82;82;f;v;1;j;b;8041.5468999999575
r!3wy58;166;False;1;P != T1?;ST1_low_2;1;Same;low;132;82;132;f;v;1;j;b;2521.935599999779
r!3wy58;167;False;1;P != T1?;STb_1;0;Same;None;60;60;60;f;v;0;f;v;1719.5996000000378
r!3wy58;168;False;1;P != T1?;ST1_low_5;1;Same;low;96;154;96;f;v;1;j;b;1251.8350000000282
r!3wy58;169;False;1;P != T2?;ST1_low_5;1;Same;low;96;154;96;f;v;1;f;v;1613.6414000002333
r!3wy58;170;False;1;P != T1?;ST2_low_2;2;Same;low;132;82;82;f;v;1;f;v;462.1804999997039
r!3wy58;171;False;1;P != T2?;ST1_high_4;1;Same;high;96;70;96;f;v;1;f;v;1073.4832999996797
r!3wy58;172;False;1;P != T2?;ST2_high_4;2;Same;high;96;70;70;f;v;0;f;v;1112.3088000003918
r!3wy58;173;False;1;P != T1?;ST1_low_5;1;Same;low;96;154;96;f;v;1;j;b;1545.3376999994362
r!3wy58;174;False;1;P != T1?;ST2_low_1;2;Same;low;82;132;132;f;v;1;f;v;1506.6765999999916
r!3wy58;175;False;1;P != T2?;ST2_high_6;2;Same;high;132;96;96;f;v;0;f;v;1293.740600000092
r!3wy58;176;False;1;P != T2?;ST1_low_2;1;Same;low;132;82;132;f;v;1;f;b;1279.2896999999357
r!3wy58;1;True;2;P = T1?;DT1_high_4;1;Different;high;96;70;112;f;v;1;j;v;5535.580499999924
r!3wy58;2;True;2;P = T2?;ST1_low_5;1;Same;low;96;154;96;f;v;1;j;v;5167.656399999942
r!3wy58;3;True;2;P = T2?;STb_2;0;Same;None;70;70;70;f;v;1;f;b;2025.918599999386
r!3wy58;4;True;2;P = T1?;ST1_high_2;1;Same;high;112;82;112;f;v;0;j;n;2313.5763999998744
r!3wy58;5;True;2;P = T1?;DT1_high_1;1;Different;high;82;112;70;f;v;0;f;n;3431.9924000001265
r!3wy58;6;True;2;P = T1?;ST1_high_1;1;Same;high;82;112;82;f;v;1;f;v;4885.7366000002
r!3wy58;7;True;2;P = T2?;ST2_low_6;2;Same;low;154;96;96;f;v;1;f;b;1675.4159000001891
r!3wy58;8;True;2;P = T1?;STb_4;0;Same;None;96;96;96;f;v;1;f;v;4105.921200000012
r!3wy58;9;True;2;P = T2?;ST1_high_5;1;Same;high;96;132;96;f;v;0;f;v;2639.290500000243
r!3wy58;10;True;2;P = T1?;STb_2;0;Same;None;70;70;70;f;v;1;f;v;1081.0862000007546
r!3wy58;11;True;2;P = T2?;DT2_high_2;2;Different;high;112;82;70;f;v;0;f;b;4263.932699999714
r!3wy58;12;True;2;P = T2?;ST2_low_3;2;Same;low;70;112;112;f;v;0;j;v;1626.4928999999029
r!3wy58;13;True;2;P = T1?;ST2_low_5;2;Same;low;96;154;154;f;v;1;j;v;1370.3089999999065
r!3wy58;14;True;2;P = T2?;DT1_low_4;1;Different;low;112;70;132;f;v;1;j;v;5731.073199999628
r!3wy58;15;True;2;P = T1?;ST2_low_4;2;Same;low;112;70;70;f;v;1;j;v;2623.508900000161
r!3wy58;16;True;2;P = T2?;STb_3;0;Same;None;82;82;82;f;v;0;j;v;2451.2811999993573
r!3wy58;1;False;2;P = T2?;ST2_low_1;2;Same;low;82;132;132;f;v;1;f;v;1211.7291000004116
r!3wy58;2;False;2;P = T1?;ST1_high_2;1;Same;high;112;82;112;f;v;1;f;v;1010.673300000235
r!3wy58;3;False;2;P = T1?;ST2_low_2;2;Same;low;132;82;82;f;v;1;j;v;1141.2320999997974
r!3wy58;4;False;2;P = T1?;ST2_low_6;2;Same;low;154;96;96;f;v;0;f;v;1786.7139999998471
r!3wy58;5;False;2;P = T2?;ST1_low_4;1;Same;low;112;70;112;f;v;1;j;v;1710.9135999999125
r!3wy58;6;False;2;P = T2?;ST1_high_2;1;Same;high;112;82;112;f;v;1;j;v;8395.881299999928
r!3wy58;7;False;2;P = T2?;ST1_high_2;1;Same;high;112;82;112;f;v;1;j;v;1493.2493000005707
r!3wy58;8;False;2;P = T1?;ST1_low_6;1;Same;low;154;96;154;f;v;0;j;v;1204.0227999996205
r!3wy58;9;False;2;P = T2?;ST2_high_6;2;Same;high;132;96;96;f;v;1;f;b;2833.2339999997203
r!3wy58;10;False;2;P = T2?;ST2_high_6;2;Same;high;132;96;96;f;v;0;j;v;1964.461599999595
r!3wy58;11;False;2;P = T2?;ST1_low_2;1;Same;low;132;82;132;f;v;1;j;v;1200.9723000001031
r!3wy58;12;False;2;P = T1?;ST1_high_6;1;Same;high;132;96;132;f;v;0;j;b;893.6333999999988
r!3wy58;13;False;2;P = T1?;ST1_high_5;1;Same;high;96;132;96;f;v;0;j;v;1230.7597999997597
r!3wy58;14;False;2;P = T1?;STb_1;0;Same;None;60;60;60;f;v;1;f;v;1925.5656999994244
r!3wy58;15;False;2;P = T1?;ST1_low_2;1;Same;low;132;82;132;f;v;0;j;v;1220.1826000000437
r!3wy58;16;False;2;P = T1?;ST1_low_2;1;Same;low;132;82;132;f;v;1;f;v;2183.7845000000016
r!3wy58;17;False;2;P = T1?;ST2_low_1;2;Same;low;82;132;132;f;v;1;j;v;1655.6468999997378
r!3wy58;18;False;2;P = T2?;STb_2;0;Same;None;70;70;70;f;v;1;f;b;788.3921000002374
r!3wy58;19;False;2;P = T2?;ST1_high_3;1;Same;high;70;96;70;f;v;1;j;v;5083.226700000523
r!3wy58;20;False;2;P = T1?;ST1_low_1;1;Same;low;82;132;82;f;v;0;j;v;950.6696999997075
r!3wy58;21;False;2;P = T2?;STb_1;0;Same;None;60;60;60;f;v;0;j;v;1458.2792999999583
r!3wy58;22;False;2;P = T2?;ST2_high_3;2;Same;high;70;96;96;f;v;1;f;b;1682.6677999997628
r!3wy58;23;False;2;P = T2?;ST1_low_4;1;Same;low;112;70;112;f;v;1;j;v;2230.720900000051
r!3wy58;24;False;2;P = T1?;ST1_high_5;1;Same;high;96;132;96;f;v;1;f;n;4165.633499999785
r!3wy58;25;False;2;P = T2?;ST1_low_3;1;Same;low;70;112;70;f;v;1;j;v;1150.9711999997307
r!3wy58;26;False;2;P = T1?;ST2_low_6;2;Same;low;154;96;96;f;v;0;f;v;978.4072000002197
r!3wy58;27;False;2;P = T1?;ST1_high_3;1;Same;high;70;96;70;f;v;1;f;n;1042.5471999997171
r!3wy58;28;False;2;P = T2?;DT2_low_5;2;Different;low;96;154;180;f;v;1;j;v;1353.8038999995479
r!3wy58;29;False;2;P = T1?;ST2_high_1;2;Same;high;82;112;112;f;v;1;j;v;1255.614699999569
r!3wy58;30;False;2;P = T1?;ST1_high_1;1;Same;high;82;112;82;f;v;0;j;v;2951.457400000436
r!3wy58;31;False;2;P = T1?;ST2_high_5;2;Same;high;96;132;132;f;v;1;j;b;1878.3759999996619
r!3wy58;32;False;2;P = T2?;ST2_high_5;2;Same;high;96;132;132;f;v;1;f;v;956.1616999999387
r!3wy58;33;False;2;P = T2?;ST2_low_2;2;Same;low;132;82;82;f;v;0;j;v;1769.2543999992267
r!3wy58;34;False;2;P = T2?;ST2_low_6;2;Same;low;154;96;96;f;v;0;j;v;3173.9707999995517
r!3wy58;35;False;2;P = T1?;ST2_high_6;2;Same;high;132;96;96;f;v;1;j;v;1270.419899999979
r!3wy58;36;False;2;P = T2?;ST2_high_6;2;Same;high;132;96;96;f;v;0;j;v;2409.245199999532
r!3wy58;37;False;2;P = T2?;ST2_high_5;2;Same;high;96;132;132;f;v;1;f;v;852.1152000002985
r!3wy58;38;False;2;P = T2?;ST2_low_2;2;Same;low;132;82;82;f;v;0;j;v;1278.5202999993999
r!3wy58;39;False;2;P = T1?;ST1_high_3;1;Same;high;70;96;70;f;v;1;f;v;1256.5942000001087
r!3wy58;40;False;2;P = T2?;ST2_low_1;2;Same;low;82;132;132;f;v;0;j;v;1957.3733000006541
r!3wy58;41;False;2;P = T2?;ST2_high_3;2;Same;high;70;96;96;f;v;1;f;n;1858.4508999992977
r!3wy58;42;False;2;P = T1?;ST1_high_3;1;Same;high;70;96;70;f;v;0;j;v;1065.9444000002622
r!3wy58;43;False;2;P = T1?;DT1_high_6;1;Different;high;132;96;154;f;v;0;f;b;2956.2277999993967
r!3wy58;44;False;2;P = T1?;ST1_low_5;1;Same;low;96;154;96;f;v;0;j;v;2260.613400000693
r!3wy58;45;False;2;P = T1?;ST2_high_2;2;Same;high;112;82;82;f;v;0;f;v;1705.1567999997133
r!3wy58;46;False;2;P = T1?;ST1_low_4;1;Same;low;112;70;112;f;v;1;f;v;957.2105999995983
r!3wy58;47;False;2;P = T2?;ST2_high_2;2;Same;high;112;82;82;f;v;0;j;v;1727.2226000004594
r!3wy58;48;False;2;P = T1?;ST2_low_2;2;Same;low;132;82;82;f;v;0;f;v;908.6703000002672
r!3wy58;49;False;2;P = T2?;ST2_high_1;2;Same;high;82;112;112;f;v;1;f;v;1333.6580000004687
r!3wy58;50;False;2;P = T1?;STb_8;0;Same;None;180;180;180;f;v;0;j;b;1482.3634999993374
r!3wy58;51;False;2;P = T2?;STb_4;0;Same;None;96;96;96;f;v;1;f;v;1074.317499999779
r!3wy58;52;False;2;P = T1?;ST1_high_5;1;Same;high;96;132;96;f;v;1;f;v;1116.494099999727
r!3wy58;53;False;2;P = T1?;DT2_low_5;2;Different;low;96;154;180;f;v;0;f;n;2579.2701000000307
r!3wy58;54;False;2;P = T2?;ST1_high_1;1;Same;high;82;112;82;f;v;1;j;b;1519.2837000004147
r!3wy58;55;False;2;P = T2?;ST2_low_3;2;Same;low;70;112;112;f;v;1;f;v;1797.071899999537
r!3wy58;56;False;2;P = T1?;ST2_low_6;2;Same;low;154;96;96;f;v;1;j;v;2464.1105000000607
r!3wy58;57;False;2;P = T1?;ST2_low_4;2;Same;low;112;70;70;f;v;1;j;v;2425.3311000002213
r!3wy58;58;False;2;P = T2?;ST2_low_5;2;Same;low;96;154;154;f;v;1;f;v;1631.7048999999315
r!3wy58;59;False;2;P = T1?;ST2_high_3;2;Same;high;70;96;96;f;v;0;f;v;977.4077000001853
r!3wy58;60;False;2;P = T1?;ST2_low_1;2;Same;low;82;132;132;f;v;1;j;b;1730.8218999996825
r!3wy58;61;False;2;P = T2?;ST2_high_4;2;Same;high;96;70;70;f;v;0;j;n;1811.4232999996602
r!3wy58;62;False;2;P = T1?;ST1_low_1;1;Same;low;82;132;82;f;v;1;f;b;2050.319299999501
r!3wy58;63;False;2;P = T1?;ST2_high_5;2;Same;high;96;132;132;f;v;0;f;v;2830.5416999992303
r!3wy58;64;False;2;P = T2?;STb_6;0;Same;None;132;132;132;f;v;0;j;v;1884.8275000000285
r!3wy58;65;False;2;P = T1?;STb_3;0;Same;None;82;82;82;f;v;0;j;v;2822.5204999998823
r!3wy58;66;False;2;P = T1?;ST1_low_5;1;Same;low;96;154;96;f;v;0;j;v;1717.6706999998714
r!3wy58;67;False;2;P = T2?;ST1_low_3;1;Same;low;70;112;70;f;v;1;j;v;921.9331000003876
r!3wy58;68;False;2;P = T1?;STb_4;0;Same;None;96;96;96;f;v;1;f;v;1499.977200000103
r!3wy58;69;False;2;P = T2?;ST2_low_2;2;Same;low;132;82;82;f;v;0;j;v;6446.273399999882
r!3wy58;70;False;2;P = T1?;ST1_low_2;1;Same;low;132;82;132;f;v;1;f;v;1252.342900000258
r!3wy58;71;False;2;P = T2?;STb_3;0;Same;None;82;82;82;f;v;0;j;v;1641.6950000002544
r!3wy58;72;False;2;P = T1?;ST2_high_1;2;Same;high;82;112;112;f;v;1;j;v;2062.1833999994124
r!3wy58;73;False;2;P = T1?;ST2_high_6;2;Same;high;132;96;96;f;v;0;f;b;1936.569600000439
r!3wy58;74;False;2;P = T2?;ST2_high_1;2;Same;high;82;112;112;f;v;0;j;v;2157.6512999999977
r!3wy58;75;False;2;P = T2?;DT2_high_2;2;Different;high;112;82;70;f;v;1;j;v;1449.0992000000915
r!3wy58;76;False;2;P = T1?;ST2_high_4;2;Same;high;96;70;70;f;v;0;f;n;2475.5809999996927
r!3wy58;77;False;2;P = T2?;ST1_high_1;1;Same;high;82;112;82;f;v;1;j;v;1261.8916000001263
r!3wy58;78;False;2;P = T1?;ST2_high_2;2;Same;high;112;82;82;f;v;0;f;v;8138.532400000258
r!3wy58;79;False;2;P = T1?;ST1_high_4;1;Same;high;96;70;96;f;v;1;f;v;450.0831000004837
r!3wy58;80;False;2;P = T2?;ST1_low_5;1;Same;low;96;154;96;f;v;1;j;v;1331.007700000555
r!3wy58;81;False;2;P = T2?;ST1_low_6;1;Same;low;154;96;154;f;v;1;j;v;3596.6355000000476
r!3wy58;82;False;2;P = T1?;ST2_low_3;2;Same;low;70;112;112;f;v;0;f;v;2031.5629999995508
r!3wy58;83;False;2;P = T1?;DT2_low_4;2;Different;low;112;70;60;f;v;0;f;b;3622.7343999998993
r!3wy58;84;False;2;P = T1?;DT1_high_3;1;Different;high;70;96;60;f;v;0;f;v;781.3608999995267
r!3wy58;85;False;2;P = T2?;ST2_high_2;2;Same;high;112;82;82;f;v;0;j;v;1529.1729999999006
r!3wy58;86;False;2;P = T2?;STb_5;0;Same;None;112;112;112;f;v;0;j;b;1129.363099999864
r!3wy58;87;False;2;P = T1?;ST1_high_4;1;Same;high;96;70;96;f;v;0;j;v;4379.129899999498
r!3wy58;88;False;2;P = T2?;ST1_low_4;1;Same;low;112;70;112;f;v;1;j;v;1754.0625999999975
r!3wy58;89;False;2;P = T2?;ST1_low_1;1;Same;low;82;132;82;f;v;1;j;v;2433.3904000004623
r!3wy58;90;False;2;P = T1?;ST1_low_3;1;Same;low;70;112;70;f;v;1;f;b;721.2754000001951
r!3wy58;91;False;2;P = T2?;DT1_high_5;1;Different;high;96;132;82;f;v;1;j;v;1696.368199999597
r!3wy58;92;False;2;P = T2?;ST1_low_1;1;Same;low;82;132;82;f;v;1;j;b;2538.568799999666
r!3wy58;93;False;2;P = T1?;ST1_low_4;1;Same;low;112;70;112;f;v;1;f;n;2362.0408000006137
r!3wy58;94;False;2;P = T1?;ST2_high_6;2;Same;high;132;96;96;f;v;0;f;b;3909.16500000003
r!3wy58;95;False;2;P = T1?;STb_6;0;Same;None;132;132;132;f;v;1;f;v;929.5173000000432
r!3wy58;96;False;2;P = T2?;ST1_high_6;1;Same;high;132;96;132;f;v;1;j;v;1195.3161999999793
r!3wy58;97;False;2;P = T1?;ST1_low_4;1;Same;low;112;70;112;f;v;1;f;b;1363.9610999998695
r!3wy58;98;False;2;P = T2?;ST1_low_6;1;Same;low;154;96;154;f;v;1;j;v;1761.3530999997238
r!3wy58;99;False;2;P = T2?;ST2_high_4;2;Same;high;96;70;70;f;v;1;f;b;4411.535999999614
r!3wy58;100;False;2;P = T1?;STb_5;0;Same;None;112;112;112;f;v;1;f;v;315.35319999966305
r!3wy58;101;False;2;P = T1?;ST1_high_6;1;Same;high;132;96;132;f;v;1;f;b;2195.574299999862
r!3wy58;102;False;2;P = T2?;ST2_low_4;2;Same;low;112;70;70;f;v;0;j;v;2954.2494000006627
r!3wy58;103;False;2;P = T1?;ST2_low_4;2;Same;low;112;70;70;f;v;1;j;v;832.2716000002401
r!3wy58;104;False;2;P = T2?;ST1_high_4;1;Same;high;96;70;96;f;v;1;j;v;1911.5722000005917
r!3wy58;105;False;2;P = T2?;ST2_low_4;2;Same;low;112;70;70;f;v;0;j;v;1359.5303000001877
r!3wy58;106;False;2;P = T1?;ST2_low_5;2;Same;low;96;154;154;f;v;1;j;v;1934.9873000001026
r!3wy58;107;False;2;P = T1?;ST2_low_3;2;Same;low;70;112;112;f;v;1;j;b;1710.8754999999292
r!3wy58;108;False;2;P = T2?;ST1_low_5;1;Same;low;96;154;96;f;v;1;j;v;1221.895300000142
r!3wy58;109;False;2;P = T2?;DT2_high_3;2;Different;high;70;96;112;f;v;0;f;b;1165.558599999713
r!3wy58;110;False;2;P = T2?;ST1_high_4;1;Same;high;96;70;96;f;v;1;j;v;1268.4503000000404
r!3wy58;111;False;2;P = T1?;ST1_low_1;1;Same;low;82;132;82;f;v;0;j;b;5398.966300000211
r!3wy58;112;False;2;P = T2?;ST1_high_5;1;Same;high;96;132;96;f;v;1;j;v;1396.7210000000705
r!3wy58;113;False;2;P = T1?;STb_7;0;Same;None;154;154;154;f;v;1;f;v;1137.7569999995103
r!3wy58;114;False;2;P = T1?;ST1_low_6;1;Same;low;154;96;154;f;v;1;f;v;904.3105000000651
r!3wy58;115;False;2;P = T2?;ST1_high_2;1;Same;high;112;82;112;f;v;1;j;v;1241.3326000005327
r!3wy58;116;False;2;P = T2?;ST1_high_3;1;Same;high;70;96;70;f;v;1;j;b;876.6206999998758
r!3wy58;117;False;2;P = T1?;DT1_high_1;1;Different;high;82;112;70;f;v;1;j;v;1932.9544000001988
r!3wy58;118;False;2;P = T2?;ST1_low_1;1;Same;low;82;132;82;f;v;1;j;v;2486.6894999995566
r!3wy58;119;False;2;P = T2?;ST2_low_4;2;Same;low;112;70;70;f;v;0;j;v;2317.375499999798
r!3wy58;120;False;2;P = T1?;ST2_high_5;2;Same;high;96;132;132;f;v;0;f;b;3183.3890999996584
r!3wy58;121;False;2;P = T1?;ST2_low_2;2;Same;low;132;82;82;f;v;1;j;v;2545.056800000566
r!3wy58;122;False;2;P = T2?;ST1_high_6;1;Same;high;132;96;132;f;v;1;j;v;954.5621999996001
r!3wy58;123;False;2;P = T2?;ST2_high_3;2;Same;high;70;96;96;f;v;0;j;v;781.2321999999767
r!3wy58;124;False;2;P = T1?;ST1_high_4;1;Same;high;96;70;96;f;v;1;f;b;1994.778000000224
r!3wy58;125;False;2;P = T2?;ST2_low_6;2;Same;low;154;96;96;f;v;0;j;b;1315.8295999992333
r!3wy58;126;False;2;P = T1?;ST1_low_5;1;Same;low;96;154;96;f;v;0;j;b;1187.275999999656
r!3wy58;127;False;2;P = T2?;ST2_high_1;2;Same;high;82;112;112;f;v;0;j;v;2031.6524999998364
r!3wy58;128;False;2;P = T1?;DT2_low_3;2;Different;low;70;112;132;f;v;0;f;b;1373.8777999997183
r!3wy58;129;False;2;P = T1?;DT1_low_1;1;Different;low;82;132;70;f;v;1;j;v;1021.3156999998318
r!3wy58;130;False;2;P = T2?;ST2_low_6;2;Same;low;154;96;96;f;v;0;j;v;962.6392000000124
r!3wy58;131;False;2;P = T2?;ST2_high_5;2;Same;high;96;132;132;f;v;0;j;v;1117.9052999996202
r!3wy58;132;False;2;P = T2?;ST2_low_3;2;Same;low;70;112;112;f;v;0;j;v;2255.988900000375
r!3wy58;133;False;2;P = T2?;ST2_low_1;2;Same;low;82;132;132;f;v;0;j;v;983.923899999354
r!3wy58;134;False;2;P = T2?;STb_8;0;Same;None;180;180;180;f;v;0;j;v;990.8186000002388
r!3wy58;135;False;2;P = T1?;ST1_high_6;1;Same;high;132;96;132;f;v;1;f;b;4376.181800000268
r!3wy58;136;False;2;P = T1?;STb_2;0;Same;None;70;70;70;f;v;1;f;b;1759.12900000003
r!3wy58;137;False;2;P = T1?;ST2_high_3;2;Same;high;70;96;96;f;v;0;f;b;988.225500000226
r!3wy58;138;False;2;P = T1?;ST2_high_1;2;Same;high;82;112;112;f;v;0;f;v;912.3755000000529
r!3wy58;139;False;2;P = T2?;ST1_high_6;1;Same;high;132;96;132;f;v;1;j;v;901.1037999998734
r!3wy58;140;False;2;P = T1?;ST1_high_2;1;Same;high;112;82;112;f;v;1;f;v;992.3784000002343
r!3wy58;141;False;2;P = T2?;DT2_high_6;2;Different;high;132;96;82;f;v;1;j;v;1418.4721999999965
r!3wy58;142;False;2;P = T2?;ST1_low_6;1;Same;low;154;96;154;f;v;1;j;v;1374.5701999996527
r!3wy58;143;False;2;P = T2?;ST1_low_5;1;Same;low;96;154;96;f;v;1;j;v;1097.783100000015
r!3wy58;144;False;2;P = T1?;ST2_low_4;2;Same;low;112;70;70;f;v;1;j;v;1592.567599999711
r!3wy58;145;False;2;P = T1?;ST2_high_4;2;Same;high;96;70;70;f;v;1;j;v;1209.4712999996773
r!3wy58;146;False;2;P = T1?;ST1_low_3;1;Same;low;70;112;70;f;v;1;f;b;946.7405000004874
r!3wy58;147;False;2;P = T1?;ST1_high_2;1;Same;high;112;82;112;f;v;1;f;b;2116.3093000004665
r!3wy58;148;False;2;P = T1?;ST2_low_3;2;Same;low;70;112;112;f;v;0;f;v;783.4668000004967
r!3wy58;149;False;2;P = T1?;ST2_high_2;2;Same;high;112;82;82;f;v;0;f;b;1256.6680999998425
r!3wy58;150;False;2;P = T2?;STb_7;0;Same;None;154;154;154;f;v;1;f;v;2027.2715000000971
r!3wy58;151;False;2;P = T1?;ST2_low_5;2;Same;low;96;154;154;f;v;1;j;v;1101.2144999995144
r!3wy58;152;False;2;P = T2?;DT1_low_6;1;Different;low;154;96;180;f;v;1;j;v;1071.4686000001166
r!3wy58;153;False;2;P = T2?;DT1_high_4;1;Different;high;96;70;112;f;v;1;j;v;1100.7853999999497
r!3wy58;154;False;2;P = T2?;ST1_low_2;1;Same;low;132;82;132;f;v;1;j;v;4437.486100000569
r!3wy58;155;False;2;P = T1?;ST1_high_1;1;Same;high;82;112;82;f;v;1;f;v;442.67499999932625
r!3wy58;156;False;2;P = T1?;ST2_high_4;2;Same;high;96;70;70;f;v;1;j;n;1640.5838000000585
r!3wy58;157;False;2;P = T1?;ST1_low_3;1;Same;low;70;112;70;f;v;0;j;v;1637.8796999997576
r!3wy58;158;False;2;P = T1?;ST2_high_3;2;Same;high;70;96;96;f;v;0;f;b;2874.0271999995457
r!3wy58;159;False;2;P = T1?;DT2_low_2;2;Different;low;132;82;70;f;v;1;j;v;1244.6485999998913
r!3wy58;160;False;2;P = T1?;ST1_low_6;1;Same;low;154;96;154;f;v;0;j;n;2056.3398999993296
r!3wy58;161;False;2;P = T2?;ST1_high_5;1;Same;high;96;132;96;f;v;1;j;v;1416.4356999999654
r!3wy58;162;False;2;P = T1?;ST1_high_1;1;Same;high;82;112;82;f;v;0;j;v;934.3777000003683
r!3wy58;163;False;2;P = T1?;ST2_low_5;2;Same;low;96;154;154;f;v;0;f;n;1525.9233999995558
r!3wy58;164;False;2;P = T2?;ST2_low_3;2;Same;low;70;112;112;f;v;1;f;b;1780.2284999997937
r!3wy58;165;False;2;P = T1?;ST2_low_1;2;Same;low;82;132;132;f;v;0;f;b;1434.5523000001776
r!3wy58;166;False;2;P = T2?;ST1_low_2;1;Same;low;132;82;132;f;v;1;j;b;1321.4746000003288
r!3wy58;167;False;2;P = T2?;ST2_high_4;2;Same;high;96;70;70;f;v;0;j;b;1466.7935000006764
r!3wy58;168;False;2;P = T2?;ST1_high_3;1;Same;high;70;96;70;f;v;1;j;v;1607.2113000000172
r!3wy58;169;False;2;P = T2?;ST1_high_5;1;Same;high;96;132;96;f;v;1;j;v;1037.3639999997977
r!3wy58;170;False;2;P = T2?;ST2_low_5;2;Same;low;96;154;154;f;v;0;j;b;1999.4077999999718
r!3wy58;171;False;2;P = T2?;ST1_high_4;1;Same;high;96;70;96;f;v;1;j;b;984.5572999993237
r!3wy58;172;False;2;P = T2?;DT2_low_2;2;Different;low;132;82;70;f;v;1;j;v;1479.3830999997226
r!3wy58;173;False;2;P = T2?;ST1_low_3;1;Same;low;70;112;70;f;v;1;j;n;2398.441399999683
r!3wy58;174;False;2;P = T2?;ST2_high_2;2;Same;high;112;82;82;f;v;0;j;v;1077.7693999998519
r!3wy58;175;False;2;P = T2?;ST1_high_1;1;Same;high;82;112;82;f;v;0;f;n;2335.8327000005374
r!3wy58;176;False;2;P = T2?;ST2_low_5;2;Same;low;96;154;154;f;v;1;f;n;1493.8437999999223
