p_code;trial_nr;practice;block;question;condition;seqPos;Same_or_Diff;ITS;T1_hz;T2_hz;P_hz;yes_key;sure_key;correct;yes_no;rating;resp_time
15deq3!;1;True;1;P = T2?;ST2_low_1;2;Same;low;82;132;132;f;n;1;f;v;92711.61819999997
15deq3!;2;True;1;P = T1?;STb_1;0;Same;None;60;60;60;f;n;1;f;v;35258.076099999926
15deq3!;3;True;1;P = T2?;DT1_low_5;1;Different;low;96;154;82;f;n;1;j;v;9167.29129999976
15deq3!;4;True;1;P = T2?;ST1_low_1;1;Same;low;82;132;82;f;n;1;j;n;2131.7057000001114
15deq3!;5;True;1;P = T1?;ST1_low_1;1;Same;low;82;132;82;f;n;1;f;n;1415.3945999996722
15deq3!;6;True;1;P = T2?;DT2_high_6;2;Different;high;132;96;82;f;n;0;f;b;1610.0268999998661
15deq3!;7;True;1;P = T1?;ST2_low_6;2;Same;low;154;96;96;f;n;0;f;b;3383.13670000025
15deq3!;8;True;1;P = T1?;ST1_low_2;1;Same;low;132;82;132;f;n;1;f;v;1870.32599999975
15deq3!;9;True;1;P = T1?;ST2_low_3;2;Same;low;70;112;112;f;n;1;j;v;3458.32560000008
15deq3!;10;True;1;P = T1?;STb_8;0;Same;None;180;180;180;f;n;0;j;b;1740.831000000071
15deq3!;11;True;1;P = T2?;ST2_low_3;2;Same;low;70;112;112;f;n;1;f;n;1369.6740000000318
15deq3!;12;True;1;P = T2?;STb_8;0;Same;None;180;180;180;f;n;1;f;n;1193.2530999997653
15deq3!;13;True;1;P = T2?;STb_6;0;Same;None;132;132;132;f;n;1;f;n;854.0627000002132
15deq3!;14;True;1;P = T1?;DT2_high_1;2;Different;high;82;112;132;f;n;1;j;n;1113.745999999992
15deq3!;15;True;1;P = T2?;ST1_low_1;1;Same;low;82;132;82;f;n;1;j;n;1192.0959000003677
15deq3!;16;True;1;P = T1?;DT2_low_5;2;Different;low;96;154;180;f;n;0;f;n;1281.0537999998814
p_code;trial_nr;practice;block;question;condition;seqPos;Same_or_Diff;ITS;T1_hz;T2_hz;P_hz;yes_key;sure_key;correct;yes_no;rating;resp_time
15deq3!;1;False;1;P = T1?;ST1_high_1;1;Same;high;82;112;82;f;n;0;j;n;970.3561000001173
15deq3!;2;False;1;P = T1?;ST1_low_5;1;Same;low;96;154;96;f;n;1;f;n;889.9904999998398
15deq3!;3;False;1;P = T2?;ST1_high_1;1;Same;high;82;112;82;f;n;1;j;n;1118.428700000095
15deq3!;4;False;1;P = T2?;ST1_high_5;1;Same;high;96;132;96;f;n;1;j;b;4355.392300000403
15deq3!;5;False;1;P = T2?;ST2_high_4;2;Same;high;96;70;70;f;n;1;f;n;939.9975000001177
15deq3!;6;False;1;P = T1?;ST1_high_3;1;Same;high;70;96;70;f;n;1;f;n;1021.5620999997554
15deq3!;7;False;1;P = T1?;STb_2;0;Same;None;70;70;70;f;n;1;f;v;1894.666799999868
15deq3!;8;False;1;P = T2?;ST2_low_2;2;Same;low;132;82;82;f;n;1;f;b;1002.1596000001409
15deq3!;9;False;1;P = T2?;ST2_high_5;2;Same;high;96;132;132;f;n;1;f;b;1445.9932999998273
15deq3!;10;False;1;P = T1?;ST1_low_1;1;Same;low;82;132;82;f;n;0;j;v;5445.595199999843
15deq3!;11;False;1;P = T2?;STb_3;0;Same;None;82;82;82;f;n;1;f;b;1995.2598999998372
15deq3!;12;False;1;P = T1?;ST1_high_3;1;Same;high;70;96;70;f;n;1;f;b;903.8088000002062
15deq3!;13;False;1;P = T2?;ST2_high_5;2;Same;high;96;132;132;f;n;0;j;b;6026.158700000451
15deq3!;14;False;1;P = T1?;DT1_high_2;1;Different;high;112;82;132;f;n;0;f;n;993.2523999996192
15deq3!;15;False;1;P = T2?;ST2_low_6;2;Same;low;154;96;96;f;n;1;f;n;1875.071299999945
15deq3!;16;False;1;P = T2?;ST1_high_5;1;Same;high;96;132;96;f;n;1;j;n;923.4716999999364
15deq3!;17;False;1;P = T1?;ST2_low_4;2;Same;low;112;70;70;f;n;0;f;n;1359.1806000003999
15deq3!;18;False;1;P = T1?;ST1_low_4;1;Same;low;112;70;112;f;n;1;f;n;923.1758999999329
15deq3!;19;False;1;P = T2?;ST1_high_4;1;Same;high;96;70;96;f;n;1;j;n;1546.752600000218
15deq3!;20;False;1;P = T2?;ST1_high_4;1;Same;high;96;70;96;f;n;1;j;n;1179.9056999998356
15deq3!;21;False;1;P = T2?;ST2_high_4;2;Same;high;96;70;70;f;n;0;j;b;2116.8782999998257
15deq3!;22;False;1;P = T2?;STb_2;0;Same;None;70;70;70;f;n;1;f;n;1290.3317000000243
15deq3!;23;False;1;P = T2?;ST2_high_6;2;Same;high;132;96;96;f;n;0;j;b;3924.9518000001444
15deq3!;24;False;1;P = T1?;ST1_low_1;1;Same;low;82;132;82;f;n;1;f;n;1087.4893000000156
15deq3!;25;False;1;P = T1?;ST2_high_1;2;Same;high;82;112;112;f;n;1;j;n;1297.5083999999697
15deq3!;26;False;1;P = T1?;ST2_high_4;2;Same;high;96;70;70;f;n;1;j;v;8658.823100000063
15deq3!;27;False;1;P = T1?;ST2_high_3;2;Same;high;70;96;96;f;n;1;j;n;963.8060000002042
15deq3!;28;False;1;P = T2?;ST2_low_1;2;Same;low;82;132;132;f;n;1;f;n;1290.1876000000811
15deq3!;29;False;1;P = T2?;ST1_low_1;1;Same;low;82;132;82;f;n;1;j;b;2050.484100000176
15deq3!;30;False;1;P = T2?;DT1_high_3;1;Different;high;70;96;60;f;n;1;j;n;965.5038999999306
15deq3!;31;False;1;P = T1?;DT1_high_6;1;Different;high;132;96;154;f;n;1;j;b;1097.7895999999419
15deq3!;32;False;1;P = T2?;ST1_high_6;1;Same;high;132;96;132;f;n;1;j;b;5112.187899999753
15deq3!;33;False;1;P = T2?;ST2_low_2;2;Same;low;132;82;82;f;n;1;f;n;1047.560599999997
15deq3!;34;False;1;P = T1?;ST1_high_4;1;Same;high;96;70;96;f;n;1;f;n;801.7414999999346
15deq3!;35;False;1;P = T1?;ST2_high_5;2;Same;high;96;132;132;f;n;1;j;b;3195.8933999999317
15deq3!;36;False;1;P = T2?;STb_1;0;Same;None;60;60;60;f;n;1;f;b;3002.444900000228
15deq3!;37;False;1;P = T2?;ST1_low_2;1;Same;low;132;82;132;f;n;1;j;n;1007.327499999974
15deq3!;38;False;1;P = T1?;ST2_low_5;2;Same;low;96;154;154;f;n;1;j;n;1046.9570999998723
15deq3!;39;False;1;P = T1?;ST1_low_1;1;Same;low;82;132;82;f;n;1;f;n;961.2741000000824
15deq3!;40;False;1;P = T1?;ST1_high_2;1;Same;high;112;82;112;f;n;1;f;b;1898.24950000002
15deq3!;41;False;1;P = T1?;ST1_low_5;1;Same;low;96;154;96;f;n;1;f;n;985.7640000000174
15deq3!;42;False;1;P = T1?;ST1_low_6;1;Same;low;154;96;154;f;n;1;f;n;842.397500000061
15deq3!;43;False;1;P = T2?;ST1_low_5;1;Same;low;96;154;96;f;n;1;j;n;3241.6917000000467
15deq3!;44;False;1;P = T1?;ST1_high_2;1;Same;high;112;82;112;f;n;1;f;v;5171.886799999811
15deq3!;45;False;1;P = T1?;ST1_low_2;1;Same;low;132;82;132;f;n;1;f;n;816.2234999999782
15deq3!;46;False;1;P = T2?;ST1_low_4;1;Same;low;112;70;112;f;n;1;j;b;1859.2834000000948
15deq3!;47;False;1;P = T2?;ST1_low_2;1;Same;low;132;82;132;f;n;1;j;n;1034.1150999997808
15deq3!;48;False;1;P = T2?;ST2_high_3;2;Same;high;70;96;96;f;n;0;j;n;940.5396999995901
15deq3!;49;False;1;P = T1?;ST2_low_1;2;Same;low;82;132;132;f;n;1;j;n;2847.2388999998657
15deq3!;50;False;1;P = T1?;ST1_low_3;1;Same;low;70;112;70;f;n;1;f;n;797.142200000053
15deq3!;51;False;1;P = T1?;ST1_high_3;1;Same;high;70;96;70;f;n;1;f;n;1255.3342999999586
15deq3!;52;False;1;P = T2?;ST1_low_6;1;Same;low;154;96;154;f;n;1;j;v;1894.695899999988
15deq3!;53;False;1;P = T1?;ST2_low_1;2;Same;low;82;132;132;f;n;0;f;b;962.9823000000215
15deq3!;54;False;1;P = T1?;ST2_low_6;2;Same;low;154;96;96;f;n;1;j;n;1083.2605999999032
15deq3!;55;False;1;P = T1?;STb_7;0;Same;None;154;154;154;f;n;1;f;b;3085.645800000293
15deq3!;56;False;1;P = T2?;ST2_high_2;2;Same;high;112;82;82;f;n;1;f;n;1687.0168999998896
15deq3!;57;False;1;P = T1?;ST1_high_5;1;Same;high;96;132;96;f;n;1;f;n;6160.382599999593
15deq3!;58;False;1;P = T1?;DT1_low_3;1;Different;low;70;112;60;f;n;0;f;n;1177.6954000001751
15deq3!;59;False;1;P = T1?;ST2_low_4;2;Same;low;112;70;70;f;n;1;j;n;1077.7372000002288
15deq3!;60;False;1;P = T2?;ST1_low_6;1;Same;low;154;96;154;f;n;1;j;n;1349.2974000000686
15deq3!;61;False;1;P = T1?;ST1_high_1;1;Same;high;82;112;82;f;n;1;f;v;2599.4691999999304
15deq3!;62;False;1;P = T2?;ST2_low_6;2;Same;low;154;96;96;f;n;0;j;n;873.3972999998514
15deq3!;63;False;1;P = T1?;ST2_low_6;2;Same;low;154;96;96;f;n;0;f;n;1170.4148000003443
15deq3!;64;False;1;P = T2?;ST1_high_2;1;Same;high;112;82;112;f;n;1;j;v;4956.6775999996935
15deq3!;65;False;1;P = T2?;ST2_low_3;2;Same;low;70;112;112;f;n;0;j;n;1250.053299999763
15deq3!;66;False;1;P = T1?;ST1_low_2;1;Same;low;132;82;132;f;n;1;f;b;2509.72690000026
15deq3!;67;False;1;P = T2?;ST1_high_6;1;Same;high;132;96;132;f;n;1;j;n;1183.6561999998594
15deq3!;68;False;1;P = T1?;ST2_high_6;2;Same;high;132;96;96;f;n;0;f;n;1806.8653000000268
15deq3!;69;False;1;P = T1?;ST2_high_2;2;Same;high;112;82;82;f;n;0;f;n;1870.8679000001212
15deq3!;70;False;1;P = T2?;ST2_high_2;2;Same;high;112;82;82;f;n;1;f;n;1794.9217999998837
15deq3!;71;False;1;P = T1?;ST2_high_6;2;Same;high;132;96;96;f;n;0;f;n;945.8453999995982
15deq3!;72;False;1;P = T2?;ST1_low_1;1;Same;low;82;132;82;f;n;0;f;n;1019.3159000000378
15deq3!;73;False;1;P = T2?;DT1_high_5;1;Different;high;96;132;82;f;n;0;f;b;1434.3477000002167
15deq3!;74;False;1;P = T1?;STb_3;0;Same;None;82;82;82;f;n;1;f;n;1661.4998000000014
15deq3!;75;False;1;P = T2?;ST2_high_1;2;Same;high;82;112;112;f;n;1;f;b;1532.76169999981
15deq3!;76;False;1;P = T2?;DT1_high_2;1;Different;high;112;82;132;f;n;1;j;b;5718.74119999984
15deq3!;77;False;1;P = T2?;ST2_low_4;2;Same;low;112;70;70;f;n;1;f;n;1265.115700000024
15deq3!;78;False;1;P = T2?;ST2_low_4;2;Same;low;112;70;70;f;n;1;f;n;1218.0299999999988
15deq3!;79;False;1;P = T2?;ST2_low_5;2;Same;low;96;154;154;f;n;1;f;n;1277.1921999997176
15deq3!;80;False;1;P = T2?;ST1_high_2;1;Same;high;112;82;112;f;n;1;j;n;2324.6554000002106
15deq3!;81;False;1;P = T1?;ST1_low_4;1;Same;low;112;70;112;f;n;1;f;n;1185.2804000000106
15deq3!;82;False;1;P = T2?;ST1_low_3;1;Same;low;70;112;70;f;n;1;j;n;2176.7714000002343
15deq3!;83;False;1;P = T1?;ST2_high_4;2;Same;high;96;70;70;f;n;1;j;n;974.2363000000296
15deq3!;84;False;1;P = T1?;STb_8;0;Same;None;180;180;180;f;n;1;f;n;1133.5053000002517
15deq3!;85;False;1;P = T2?;ST1_low_3;1;Same;low;70;112;70;f;n;1;j;n;2865.0111000001743
15deq3!;86;False;1;P = T1?;ST2_high_2;2;Same;high;112;82;82;f;n;0;f;n;2107.363400000395
15deq3!;87;False;1;P = T2?;ST1_high_6;1;Same;high;132;96;132;f;n;1;j;n;906.115299999783
15deq3!;88;False;1;P = T1?;ST2_high_2;2;Same;high;112;82;82;f;n;1;j;n;2869.5143999998436
15deq3!;89;False;1;P = T2?;DT2_high_3;2;Different;high;70;96;112;f;n;0;f;n;904.8624000001837
15deq3!;90;False;1;P = T1?;DT1_high_5;1;Different;high;96;132;82;f;n;0;f;n;3807.080600000063
15deq3!;91;False;1;P = T1?;ST1_high_4;1;Same;high;96;70;96;f;n;1;f;n;775.5784999999378
15deq3!;92;False;1;P = T1?;ST1_high_6;1;Same;high;132;96;132;f;n;1;f;n;961.0047000001032
15deq3!;93;False;1;P = T1?;DT1_high_1;1;Different;high;82;112;70;f;n;1;j;b;2236.5286999997807
15deq3!;94;False;1;P = T2?;ST2_high_6;2;Same;high;132;96;96;f;n;1;f;n;949.875300000258
15deq3!;95;False;1;P = T2?;ST2_low_1;2;Same;low;82;132;132;f;n;1;f;n;1274.754699999903
15deq3!;96;False;1;P = T2?;ST2_low_5;2;Same;low;96;154;154;f;n;1;f;n;948.6960999997791
15deq3!;97;False;1;P = T2?;STb_5;0;Same;None;112;112;112;f;n;0;j;b;2378.9323000000877
15deq3!;98;False;1;P = T2?;ST1_low_6;1;Same;low;154;96;154;f;n;1;j;b;2364.8505999999543
15deq3!;99;False;1;P = T1?;ST2_high_4;2;Same;high;96;70;70;f;n;1;j;n;1010.5761999998322
15deq3!;100;False;1;P = T1?;DT1_low_2;1;Different;low;132;82;154;f;n;0;f;n;878.0421999999817
15deq3!;101;False;1;P = T1?;ST2_high_5;2;Same;high;96;132;132;f;n;0;f;n;1505.955200000244
15deq3!;102;False;1;P = T2?;ST1_high_3;1;Same;high;70;96;70;f;n;0;f;n;1270.4643000001852
15deq3!;103;False;1;P = T1?;ST1_high_2;1;Same;high;112;82;112;f;n;0;j;n;948.4219999999368
15deq3!;104;False;1;P = T2?;ST1_low_4;1;Same;low;112;70;112;f;n;1;j;b;8148.216600000069
15deq3!;105;False;1;P = T1?;ST2_high_1;2;Same;high;82;112;112;f;n;1;j;b;2081.7870000000767
15deq3!;106;False;1;P = T1?;ST2_low_6;2;Same;low;154;96;96;f;n;0;f;n;1134.5542999997633
15deq3!;107;False;1;P = T2?;ST1_high_2;1;Same;high;112;82;112;f;n;1;j;b;1632.6070000000072
15deq3!;108;False;1;P = T1?;ST2_high_5;2;Same;high;96;132;132;f;n;0;f;v;1426.4517000001433
15deq3!;109;False;1;P = T2?;DT1_high_4;1;Different;high;96;70;112;f;n;0;f;b;3026.3388999997005
15deq3!;110;False;1;P = T2?;ST1_high_3;1;Same;high;70;96;70;f;n;0;f;b;1052.3017000000436
15deq3!;111;False;1;P = T2?;ST1_high_3;1;Same;high;70;96;70;f;n;0;f;b;4316.460600000028
15deq3!;112;False;1;P = T1?;STb_5;0;Same;None;112;112;112;f;n;1;f;b;2047.8854000002684
15deq3!;113;False;1;P = T1?;ST1_low_5;1;Same;low;96;154;96;f;n;1;f;b;2269.980399999895
15deq3!;114;False;1;P = T2?;ST2_high_2;2;Same;high;112;82;82;f;n;1;f;b;3303.799799999979
15deq3!;115;False;1;P = T1?;ST2_low_2;2;Same;low;132;82;82;f;n;1;j;b;954.0964000002532
15deq3!;116;False;1;P = T2?;ST1_low_4;1;Same;low;112;70;112;f;n;1;j;n;870.0097999999343
15deq3!;117;False;1;P = T1?;ST2_high_3;2;Same;high;70;96;96;f;n;1;j;n;1003.7793999999849
15deq3!;118;False;1;P = T2?;ST2_low_6;2;Same;low;154;96;96;f;n;1;f;n;797.0655000003717
15deq3!;119;False;1;P = T1?;ST1_high_6;1;Same;high;132;96;132;f;n;0;j;n;995.5153000000792
15deq3!;120;False;1;P = T1?;DT2_low_4;2;Different;low;112;70;60;f;n;1;j;n;1002.5923000002877
15deq3!;121;False;1;P = T1?;ST1_low_4;1;Same;low;112;70;112;f;n;1;f;n;693.1547999997747
15deq3!;122;False;1;P = T2?;ST2_high_6;2;Same;high;132;96;96;f;n;1;f;n;1827.2067000002608
15deq3!;123;False;1;P = T2?;ST2_high_3;2;Same;high;70;96;96;f;n;1;f;n;1636.0884000000624
15deq3!;124;False;1;P = T2?;ST2_low_3;2;Same;low;70;112;112;f;n;1;f;v;5337.711200000285
15deq3!;125;False;1;P = T2?;ST1_low_1;1;Same;low;82;132;82;f;n;1;j;n;972.0116999997117
15deq3!;126;False;1;P = T2?;DT2_low_3;2;Different;low;70;112;132;f;n;0;f;b;1080.2198000001226
15deq3!;127;False;1;P = T1?;ST1_low_3;1;Same;low;70;112;70;f;n;1;f;n;804.7029999997903
15deq3!;128;False;1;P = T1?;ST1_high_5;1;Same;high;96;132;96;f;n;0;j;b;4278.035799999998
15deq3!;129;False;1;P = T2?;STb_6;0;Same;None;132;132;132;f;n;1;f;b;1670.2293999996982
15deq3!;130;False;1;P = T1?;ST2_low_3;2;Same;low;70;112;112;f;n;0;f;b;1019.9963999998545
15deq3!;131;False;1;P = T1?;ST2_low_3;2;Same;low;70;112;112;f;n;0;f;n;823.2918000003338
15deq3!;132;False;1;P = T1?;STb_6;0;Same;None;132;132;132;f;n;1;f;v;2699.6023000001514
15deq3!;133;False;1;P = T1?;ST1_low_3;1;Same;low;70;112;70;f;n;1;f;n;853.1361999998808
15deq3!;134;False;1;P = T1?;STb_4;0;Same;None;96;96;96;f;n;1;f;b;3594.9367000002894
15deq3!;135;False;1;P = T2?;ST2_low_4;2;Same;low;112;70;70;f;n;1;f;n;779.1019999999662
15deq3!;136;False;1;P = T1?;ST2_low_1;2;Same;low;82;132;132;f;n;1;j;n;1914.576500000294
15deq3!;137;False;1;P = T2?;DT2_high_1;2;Different;high;82;112;132;f;n;1;j;n;890.4342999999244
15deq3!;138;False;1;P = T2?;STb_7;0;Same;None;154;154;154;f;n;0;j;b;5102.393199999824
15deq3!;139;False;1;P = T1?;ST1_low_6;1;Same;low;154;96;154;f;n;1;f;n;818.5285999998086
15deq3!;140;False;1;P = T1?;DT2_low_6;2;Different;low;154;96;82;f;n;1;j;v;3423.8909999999123
15deq3!;141;False;1;P = T2?;ST2_low_1;2;Same;low;82;132;132;f;n;1;f;n;1047.2946999998385
15deq3!;142;False;1;P = T2?;ST2_high_4;2;Same;high;96;70;70;f;n;1;f;n;928.2035000001088
15deq3!;143;False;1;P = T1?;ST2_low_5;2;Same;low;96;154;154;f;n;1;j;n;974.7530999998162
15deq3!;144;False;1;P = T2?;ST1_low_5;1;Same;low;96;154;96;f;n;1;j;n;784.0946000001168
15deq3!;145;False;1;P = T2?;ST2_low_5;2;Same;low;96;154;154;f;n;1;f;v;5949.997299999723
15deq3!;146;False;1;P = T1?;ST1_high_1;1;Same;high;82;112;82;f;n;1;f;b;1341.975000000275
15deq3!;147;False;1;P = T1?;ST2_low_2;2;Same;low;132;82;82;f;n;1;j;n;1465.638200000285
15deq3!;148;False;1;P = T2?;ST1_high_1;1;Same;high;82;112;82;f;n;1;j;b;1383.5299000002124
15deq3!;149;False;1;P = T2?;ST2_low_2;2;Same;low;132;82;82;f;n;1;f;n;2176.7932000002475
15deq3!;150;False;1;P = T1?;ST2_low_5;2;Same;low;96;154;154;f;n;1;j;n;1738.9013000001796
15deq3!;151;False;1;P = T2?;STb_4;0;Same;None;96;96;96;f;n;0;j;n;1145.8585999998832
15deq3!;152;False;1;P = T2?;ST1_high_1;1;Same;high;82;112;82;f;n;1;j;n;846.8708000000333
15deq3!;153;False;1;P = T2?;ST2_high_5;2;Same;high;96;132;132;f;n;0;j;v;3240.747200000442
15deq3!;154;False;1;P = T2?;ST2_high_1;2;Same;high;82;112;112;f;n;1;f;n;1173.3154000003196
15deq3!;155;False;1;P = T1?;STb_1;0;Same;None;60;60;60;f;n;0;j;v;2637.4092000005476
15deq3!;156;False;1;P = T2?;ST1_low_5;1;Same;low;96;154;96;f;n;1;j;n;850.2185999996072
15deq3!;157;False;1;P = T2?;DT2_low_1;2;Different;low;82;132;154;f;n;0;f;n;894.9549999997544
15deq3!;158;False;1;P = T2?;ST1_low_3;1;Same;low;70;112;70;f;n;1;j;n;773.4250000003158
15deq3!;159;False;1;P = T1?;ST2_high_3;2;Same;high;70;96;96;f;n;1;j;b;1602.9083000003084
15deq3!;160;False;1;P = T1?;ST1_high_5;1;Same;high;96;132;96;f;n;1;f;b;4004.449299999578
15deq3!;161;False;1;P = T2?;STb_8;0;Same;None;180;180;180;f;n;0;j;n;883.1209999998464
15deq3!;162;False;1;P = T2?;ST2_high_3;2;Same;high;70;96;96;f;n;0;j;b;1750.9515000001556
15deq3!;163;False;1;P = T1?;ST2_low_4;2;Same;low;112;70;70;f;n;0;f;n;806.1619000000064
15deq3!;164;False;1;P = T1?;ST1_high_6;1;Same;high;132;96;132;f;n;1;f;b;824.5410999998057
15deq3!;165;False;1;P = T2?;ST2_low_3;2;Same;low;70;112;112;f;n;0;j;n;1283.5496999996394
15deq3!;166;False;1;P = T2?;ST1_high_4;1;Same;high;96;70;96;f;n;1;j;n;966.6720999994141
15deq3!;167;False;1;P = T1?;ST2_low_3;2;Same;low;70;112;112;f;n;1;j;n;953.5612999998193
15deq3!;168;False;1;P = T2?;ST1_low_2;1;Same;low;132;82;132;f;n;1;j;n;763.7456000002203
15deq3!;169;False;1;P = T1?;ST2_high_6;2;Same;high;132;96;96;f;n;0;f;n;1094.2827999997462
15deq3!;170;False;1;P = T1?;ST1_low_6;1;Same;low;154;96;154;f;n;0;j;n;893.213399999695
15deq3!;171;False;1;P = T1?;ST1_high_4;1;Same;high;96;70;96;f;n;1;f;b;955.323899999712
15deq3!;172;False;1;P = T1?;ST1_low_2;1;Same;low;132;82;132;f;n;1;f;b;1317.735200000243
15deq3!;173;False;1;P = T1?;ST2_high_1;2;Same;high;82;112;112;f;n;0;f;b;5661.480099999608
15deq3!;174;False;1;P = T2?;ST1_high_5;1;Same;high;96;132;96;f;n;1;j;n;785.0141999997504
15deq3!;175;False;1;P = T1?;ST2_low_2;2;Same;low;132;82;82;f;n;1;j;n;840.3022000002238
15deq3!;176;False;1;P = T2?;ST2_high_1;2;Same;high;82;112;112;f;n;1;f;b;6297.1151000001555
15deq3!;1;True;2;P != T1?;ST2_low_2;2;Same;low;132;82;82;f;n;1;f;b;7315.132200000335
15deq3!;2;True;2;P != T1?;STb_8;0;Same;None;180;180;180;f;n;0;f;n;5809.768900000563
15deq3!;3;True;2;P != T2?;STb_1;0;Same;None;60;60;60;f;n;0;f;b;1451.859400000103
15deq3!;4;True;2;P != T2?;ST2_high_4;2;Same;high;96;70;70;f;n;0;f;b;2399.515500000234
15deq3!;5;True;2;P != T1?;ST1_low_2;1;Same;low;132;82;132;f;n;0;f;b;1865.0055999996766
15deq3!;6;True;2;P != T1?;STb_1;0;Same;None;60;60;60;f;n;0;f;b;3653.4388999998555
15deq3!;7;True;2;P != T1?;ST1_low_3;1;Same;low;70;112;70;f;n;0;f;b;1779.0993999997227
15deq3!;8;True;2;P != T2?;DT2_low_4;2;Different;low;112;70;60;f;n;1;f;b;1031.2502000006134
15deq3!;9;True;2;P != T1?;DT1_low_6;1;Different;low;154;96;180;f;n;1;f;b;1090.973700000177
15deq3!;10;True;2;P != T2?;DT1_low_2;1;Different;low;132;82;154;f;n;0;j;b;1176.6056000005847
15deq3!;11;True;2;P != T2?;ST1_high_1;1;Same;high;82;112;82;f;n;1;f;b;1694.5525999999518
15deq3!;12;True;2;P != T1?;ST2_high_4;2;Same;high;96;70;70;f;n;0;j;v;4263.18640000045
15deq3!;13;True;2;P != T2?;ST1_low_5;1;Same;low;96;154;96;f;n;0;j;n;1023.2347000001027
15deq3!;14;True;2;P != T2?;ST2_low_3;2;Same;low;70;112;112;f;n;0;f;n;1032.2844000002078
15deq3!;15;True;2;P != T1?;DT1_low_2;1;Different;low;132;82;154;f;n;0;j;v;3499.510399999963
15deq3!;16;True;2;P != T2?;STb_2;0;Same;None;70;70;70;f;n;1;j;b;1177.1677000006093
15deq3!;1;False;2;P != T1?;ST2_low_6;2;Same;low;154;96;96;f;n;1;f;n;861.3667999998142
15deq3!;2;False;2;P != T1?;ST1_low_2;1;Same;low;132;82;132;f;n;1;j;n;1110.8425000002171
15deq3!;3;False;2;P != T1?;ST2_low_3;2;Same;low;70;112;112;f;n;0;j;n;1138.3216000003813
15deq3!;4;False;2;P != T1?;ST1_high_3;1;Same;high;70;96;70;f;n;0;f;n;847.6867999997921
15deq3!;5;False;2;P != T2?;ST1_low_6;1;Same;low;154;96;154;f;n;1;f;v;2595.2690000003713
15deq3!;6;False;2;P != T1?;ST1_high_1;1;Same;high;82;112;82;f;n;0;f;b;3095.58990000005
15deq3!;7;False;2;P != T1?;ST2_high_4;2;Same;high;96;70;70;f;n;0;j;n;1057.084500000201
15deq3!;8;False;2;P != T1?;ST2_high_5;2;Same;high;96;132;132;f;n;1;f;b;902.0474999997532
15deq3!;9;False;2;P != T1?;STb_6;0;Same;None;132;132;132;f;n;1;j;b;1092.6602999998067
15deq3!;10;False;2;P != T2?;STb_6;0;Same;None;132;132;132;f;n;1;j;b;2305.7155999995302
15deq3!;11;False;2;P != T2?;ST1_low_2;1;Same;low;132;82;132;f;n;1;f;n;931.4091000005646
15deq3!;12;False;2;P != T1?;ST1_high_5;1;Same;high;96;132;96;f;n;0;f;b;4454.212200000256
15deq3!;13;False;2;P != T2?;ST1_high_4;1;Same;high;96;70;96;f;n;1;f;n;1060.787700000219
15deq3!;14;False;2;P != T1?;ST2_low_2;2;Same;low;132;82;82;f;n;0;j;n;2715.809199999967
15deq3!;15;False;2;P != T2?;ST2_high_2;2;Same;high;112;82;82;f;n;0;f;n;787.796999999955
15deq3!;16;False;2;P != T2?;ST1_low_5;1;Same;low;96;154;96;f;n;1;f;b;1733.443599999191
15deq3!;17;False;2;P != T2?;ST1_low_4;1;Same;low;112;70;112;f;n;0;j;n;960.4910999996719
15deq3!;18;False;2;P != T1?;ST1_high_2;1;Same;high;112;82;112;f;n;0;f;n;1126.160400000117
15deq3!;19;False;2;P != T1?;ST1_high_6;1;Same;high;132;96;132;f;n;0;f;n;869.0172000005987
15deq3!;20;False;2;P != T1?;ST1_high_6;1;Same;high;132;96;132;f;n;0;f;b;932.3678000000655
15deq3!;21;False;2;P != T1?;ST2_low_2;2;Same;low;132;82;82;f;n;0;j;n;1044.1610999996556
15deq3!;22;False;2;P != T2?;ST1_high_2;1;Same;high;112;82;112;f;n;1;f;n;5798.487399999431
15deq3!;23;False;2;P != T1?;STb_5;0;Same;None;112;112;112;f;n;0;f;b;1812.0050999996238
15deq3!;24;False;2;P != T1?;ST2_high_1;2;Same;high;82;112;112;f;n;0;j;b;1074.7989000001326
15deq3!;25;False;2;P != T1?;ST2_low_5;2;Same;low;96;154;154;f;n;0;j;v;2383.162899999661
15deq3!;26;False;2;P != T1?;ST2_high_1;2;Same;high;82;112;112;f;n;1;f;b;970.2531000002637
15deq3!;27;False;2;P != T1?;ST2_low_3;2;Same;low;70;112;112;f;n;0;j;b;1986.2057999998797
15deq3!;28;False;2;P != T1?;ST1_low_5;1;Same;low;96;154;96;f;n;0;f;n;809.3609999996261
15deq3!;29;False;2;P != T2?;DT1_high_2;1;Different;high;112;82;132;f;n;0;j;n;792.6705999998376
15deq3!;30;False;2;P != T2?;ST1_high_5;1;Same;high;96;132;96;f;n;0;j;n;1888.4096000001591
15deq3!;31;False;2;P != T1?;ST2_low_3;2;Same;low;70;112;112;f;n;1;f;n;840.2046000001064
15deq3!;32;False;2;P != T2?;ST1_low_5;1;Same;low;96;154;96;f;n;1;f;n;3526.056200000312
15deq3!;33;False;2;P != T2?;ST2_high_5;2;Same;high;96;132;132;f;n;0;f;b;2837.4824000002263
15deq3!;34;False;2;P != T2?;DT2_low_1;2;Different;low;82;132;154;f;n;1;f;b;2012.3743999993167
15deq3!;35;False;2;P != T2?;ST1_high_2;1;Same;high;112;82;112;f;n;0;j;n;1859.0334999998959
15deq3!;36;False;2;P != T1?;ST2_low_6;2;Same;low;154;96;96;f;n;1;f;n;1474.5339000000968
15deq3!;37;False;2;P != T1?;DT1_low_5;1;Different;low;96;154;82;f;n;1;f;n;968.8929000003554
15deq3!;38;False;2;P != T2?;ST2_low_4;2;Same;low;112;70;70;f;n;0;f;n;901.3386999995419
15deq3!;39;False;2;P != T2?;ST1_low_1;1;Same;low;82;132;82;f;n;0;j;n;1589.595299999928
15deq3!;40;False;2;P != T2?;ST2_low_4;2;Same;low;112;70;70;f;n;0;f;n;880.9643000004144
15deq3!;41;False;2;P != T2?;ST2_low_1;2;Same;low;82;132;132;f;n;1;j;b;2407.2324999997363
15deq3!;42;False;2;P != T2?;ST2_low_1;2;Same;low;82;132;132;f;n;0;f;n;881.2449999995806
15deq3!;43;False;2;P != T2?;ST1_high_1;1;Same;high;82;112;82;f;n;0;j;v;2924.6953000001668
15deq3!;44;False;2;P != T2?;ST1_low_3;1;Same;low;70;112;70;f;n;0;j;n;1034.5014000004085
15deq3!;45;False;2;P != T2?;ST1_high_6;1;Same;high;132;96;132;f;n;1;f;b;1788.8824000001478
15deq3!;46;False;2;P != T1?;ST2_high_5;2;Same;high;96;132;132;f;n;0;j;b;931.9684000001871
15deq3!;47;False;2;P != T1?;ST1_high_2;1;Same;high;112;82;112;f;n;0;f;n;795.1394000001528
15deq3!;48;False;2;P != T2?;STb_4;0;Same;None;96;96;96;f;n;0;f;n;648.5794999998689
15deq3!;49;False;2;P != T1?;ST2_low_5;2;Same;low;96;154;154;f;n;0;j;b;1671.9016999995802
15deq3!;50;False;2;P != T2?;ST2_high_4;2;Same;high;96;70;70;f;n;0;f;n;774.0914999994857
15deq3!;51;False;2;P != T1?;STb_2;0;Same;None;70;70;70;f;n;1;j;b;3068.5612000006586
15deq3!;52;False;2;P != T2?;ST2_high_2;2;Same;high;112;82;82;f;n;1;j;b;998.7357999998494
15deq3!;53;False;2;P != T1?;ST1_low_6;1;Same;low;154;96;154;f;n;0;f;n;847.6404000002731
15deq3!;54;False;2;P != T2?;DT2_low_3;2;Different;low;70;112;132;f;n;0;j;v;3561.510499999713
15deq3!;55;False;2;P != T2?;ST2_low_4;2;Same;low;112;70;70;f;n;0;f;n;1070.7213999994565
15deq3!;56;False;2;P != T2?;DT2_low_2;2;Different;low;132;82;70;f;n;1;f;b;1948.9800999999716
15deq3!;57;False;2;P != T2?;ST1_high_6;1;Same;high;132;96;132;f;n;0;j;b;1426.0574999998425
15deq3!;58;False;2;P != T2?;ST2_high_2;2;Same;high;112;82;82;f;n;1;j;v;5739.292100000057
15deq3!;59;False;2;P != T2?;ST2_high_3;2;Same;high;70;96;96;f;n;0;f;v;1476.002100000187
15deq3!;60;False;2;P != T2?;ST2_low_3;2;Same;low;70;112;112;f;n;1;j;b;5432.707700000719
15deq3!;61;False;2;P != T2?;ST2_high_1;2;Same;high;82;112;112;f;n;0;f;b;2040.1695999998992
15deq3!;62;False;2;P != T1?;STb_8;0;Same;None;180;180;180;f;n;0;f;b;1518.9477000003535
15deq3!;63;False;2;P != T2?;ST1_low_4;1;Same;low;112;70;112;f;n;0;j;v;1418.9083999999639
15deq3!;64;False;2;P != T2?;ST2_high_5;2;Same;high;96;132;132;f;n;1;j;v;1238.7365000004138
15deq3!;65;False;2;P != T2?;DT1_high_1;1;Different;high;82;112;70;f;n;1;f;b;5880.780899999991
15deq3!;66;False;2;P != T1?;ST2_high_6;2;Same;high;132;96;96;f;n;1;f;b;1114.1735000001063
15deq3!;67;False;2;P != T2?;ST2_high_4;2;Same;high;96;70;70;f;n;0;f;n;732.9553999998097
15deq3!;68;False;2;P != T2?;DT1_high_4;1;Different;high;96;70;112;f;n;0;j;n;861.8943999999829
15deq3!;69;False;2;P != T2?;ST2_low_6;2;Same;low;154;96;96;f;n;0;f;n;974.7686000000613
15deq3!;70;False;2;P != T1?;ST2_low_6;2;Same;low;154;96;96;f;n;1;f;n;1674.018700000488
15deq3!;71;False;2;P != T2?;ST2_high_4;2;Same;high;96;70;70;f;n;1;j;v;2187.5098000000435
15deq3!;72;False;2;P != T1?;ST1_low_3;1;Same;low;70;112;70;f;n;0;f;n;715.0990000000093
15deq3!;73;False;2;P != T1?;ST2_low_1;2;Same;low;82;132;132;f;n;1;f;b;2255.7980999999927
15deq3!;74;False;2;P != T1?;ST1_high_5;1;Same;high;96;132;96;f;n;1;j;v;2329.3157999996765
15deq3!;75;False;2;P != T2?;STb_1;0;Same;None;60;60;60;f;n;0;f;v;1531.499800000347
15deq3!;76;False;2;P != T2?;ST1_low_6;1;Same;low;154;96;154;f;n;0;j;v;1799.9141000000236
15deq3!;77;False;2;P != T2?;ST1_high_5;1;Same;high;96;132;96;f;n;1;f;v;2180.390299999999
15deq3!;78;False;2;P != T1?;ST1_low_1;1;Same;low;82;132;82;f;n;0;f;b;1293.345899999622
15deq3!;79;False;2;P != T1?;ST1_low_5;1;Same;low;96;154;96;f;n;0;f;n;839.8790999999619
15deq3!;80;False;2;P != T2?;STb_2;0;Same;None;70;70;70;f;n;0;f;b;970.2158000000054
15deq3!;81;False;2;P != T1?;ST1_high_1;1;Same;high;82;112;82;f;n;0;f;b;809.5675000004121
15deq3!;82;False;2;P != T2?;ST2_high_1;2;Same;high;82;112;112;f;n;1;j;b;2014.3417999997837
15deq3!;83;False;2;P != T1?;ST1_high_3;1;Same;high;70;96;70;f;n;0;f;n;875.3504000005705
15deq3!;84;False;2;P != T2?;ST1_low_1;1;Same;low;82;132;82;f;n;0;j;b;980.8789999997316
15deq3!;85;False;2;P != T2?;DT1_low_4;1;Different;low;112;70;132;f;n;0;j;b;3195.142699999451
15deq3!;86;False;2;P != T1?;ST1_low_2;1;Same;low;132;82;132;f;n;0;f;n;872.8704000004655
15deq3!;87;False;2;P != T1?;ST1_low_2;1;Same;low;132;82;132;f;n;0;f;n;1469.6733000000677
15deq3!;88;False;2;P != T1?;ST1_low_6;1;Same;low;154;96;154;f;n;0;f;n;867.124800000056
15deq3!;89;False;2;P != T1?;ST2_high_4;2;Same;high;96;70;70;f;n;0;j;n;1908.6481999993339
15deq3!;90;False;2;P != T1?;ST1_low_4;1;Same;low;112;70;112;f;n;0;f;n;2076.7198999992615
15deq3!;91;False;2;P != T1?;STb_7;0;Same;None;154;154;154;f;n;1;j;b;1303.2861000001503
15deq3!;92;False;2;P != T1?;ST1_low_3;1;Same;low;70;112;70;f;n;1;j;b;1719.0218999994613
15deq3!;93;False;2;P != T1?;ST2_high_3;2;Same;high;70;96;96;f;n;0;j;v;5541.016500000296
15deq3!;94;False;2;P != T2?;ST2_low_5;2;Same;low;96;154;154;f;n;0;f;n;986.5093999997043
15deq3!;95;False;2;P != T2?;ST1_low_4;1;Same;low;112;70;112;f;n;1;f;b;949.8223999999027
15deq3!;96;False;2;P != T2?;ST2_low_3;2;Same;low;70;112;112;f;n;0;f;n;895.538800000395
15deq3!;97;False;2;P != T1?;ST1_low_4;1;Same;low;112;70;112;f;n;0;f;n;1119.3819999998595
15deq3!;98;False;2;P != T2?;ST1_high_2;1;Same;high;112;82;112;f;n;0;j;v;1338.658900000155
15deq3!;99;False;2;P != T2?;ST2_high_3;2;Same;high;70;96;96;f;n;0;f;b;1021.2648999995508
15deq3!;100;False;2;P != T2?;ST1_low_6;1;Same;low;154;96;154;f;n;0;j;n;980.0230999999258
15deq3!;101;False;2;P != T2?;STb_8;0;Same;None;180;180;180;f;n;1;j;n;1279.736899999989
15deq3!;102;False;2;P != T2?;ST2_low_6;2;Same;low;154;96;96;f;n;0;f;b;2331.9679000005635
15deq3!;103;False;2;P != T1?;ST1_high_5;1;Same;high;96;132;96;f;n;0;f;v;3071.145400000205
15deq3!;104;False;2;P != T2?;ST2_low_2;2;Same;low;132;82;82;f;n;0;f;n;1043.2628999997178
15deq3!;105;False;2;P != T1?;ST2_low_1;2;Same;low;82;132;132;f;n;1;f;n;1199.0765999998985
15deq3!;106;False;2;P != T1?;ST1_low_5;1;Same;low;96;154;96;f;n;1;j;v;8316.460099999858
15deq3!;107;False;2;P != T2?;ST2_low_5;2;Same;low;96;154;154;f;n;0;f;b;1085.20850000059
15deq3!;108;False;2;P != T2?;ST1_low_5;1;Same;low;96;154;96;f;n;1;f;b;1785.2319000003263
15deq3!;109;False;2;P != T1?;ST2_high_5;2;Same;high;96;132;132;f;n;0;j;b;4377.72109999969
15deq3!;110;False;2;P != T1?;DT2_high_6;2;Different;high;132;96;82;f;n;0;j;b;1147.6965000001655
15deq3!;111;False;2;P != T2?;ST1_high_1;1;Same;high;82;112;82;f;n;1;f;b;1130.8951999999408
15deq3!;112;False;2;P != T1?;DT1_low_3;1;Different;low;70;112;60;f;n;0;j;b;2389.7320999994918
15deq3!;113;False;2;P != T1?;DT1_low_2;1;Different;low;132;82;154;f;n;1;f;n;791.2218999999823
15deq3!;114;False;2;P != T1?;ST2_high_1;2;Same;high;82;112;112;f;n;0;j;b;1105.7379999992918
15deq3!;115;False;2;P != T2?;ST1_low_2;1;Same;low;132;82;132;f;n;0;j;n;960.031099999469
15deq3!;116;False;2;P != T2?;ST2_low_6;2;Same;low;154;96;96;f;n;0;f;n;952.552900000228
15deq3!;117;False;2;P != T1?;ST1_high_2;1;Same;high;112;82;112;f;n;0;f;n;873.7221999999747
15deq3!;118;False;2;P != T1?;DT2_high_4;2;Different;high;96;70;60;f;n;0;j;n;3635.301000000254
15deq3!;119;False;2;P != T1?;ST2_low_4;2;Same;low;112;70;70;f;n;0;j;b;934.66829999943
15deq3!;120;False;2;P != T2?;ST2_low_2;2;Same;low;132;82;82;f;n;0;f;b;724.5057000000088
15deq3!;121;False;2;P != T1?;ST1_low_1;1;Same;low;82;132;82;f;n;0;f;n;756.7355999999563
15deq3!;122;False;2;P != T2?;STb_5;0;Same;None;112;112;112;f;n;1;j;b;849.5728000007148
15deq3!;123;False;2;P != T1?;DT1_low_1;1;Different;low;82;132;70;f;n;1;f;n;773.4870999993291
15deq3!;124;False;2;P != T2?;ST1_high_3;1;Same;high;70;96;70;f;n;0;j;v;2651.867599999605
15deq3!;125;False;2;P != T2?;ST2_high_5;2;Same;high;96;132;132;f;n;0;f;b;1557.132900000397
15deq3!;126;False;2;P != T2?;ST1_high_1;1;Same;high;82;112;82;f;n;0;j;b;1008.0416000000696
15deq3!;127;False;2;P != T2?;ST1_low_3;1;Same;low;70;112;70;f;n;0;j;n;912.0924999997442
15deq3!;128;False;2;P != T1?;ST2_low_1;2;Same;low;82;132;132;f;n;0;j;n;986.2533999994412
15deq3!;129;False;2;P != T2?;ST1_high_6;1;Same;high;132;96;132;f;n;0;j;b;1486.4459000000352
15deq3!;130;False;2;P != T1?;ST1_high_4;1;Same;high;96;70;96;f;n;1;j;v;6564.862700000049
15deq3!;131;False;2;P != T1?;ST2_low_4;2;Same;low;112;70;70;f;n;0;j;n;1290.7645999994202
15deq3!;132;False;2;P != T2?;ST1_high_3;1;Same;high;70;96;70;f;n;1;f;b;1671.3424999998097
15deq3!;133;False;2;P != T1?;ST2_high_2;2;Same;high;112;82;82;f;n;0;j;n;773.1861000002027
15deq3!;134;False;2;P != T1?;ST2_high_3;2;Same;high;70;96;96;f;n;0;j;n;774.589399999968
15deq3!;135;False;2;P != T1?;ST2_low_5;2;Same;low;96;154;154;f;n;0;j;n;883.9105000006384
15deq3!;136;False;2;P != T2?;ST1_high_4;1;Same;high;96;70;96;f;n;1;f;n;1933.3348000000115
15deq3!;137;False;2;P != T2?;ST1_high_4;1;Same;high;96;70;96;f;n;0;j;b;2961.268299999574
15deq3!;138;False;2;P != T2?;DT2_high_5;2;Different;high;96;132;154;f;n;0;j;n;957.2538000002169
15deq3!;139;False;2;P != T1?;DT2_low_5;2;Different;low;96;154;180;f;n;0;j;n;884.4907000002422
15deq3!;140;False;2;P != T1?;STb_1;0;Same;None;60;60;60;f;n;0;f;n;770.1183999997738
15deq3!;141;False;2;P != T2?;ST1_low_1;1;Same;low;82;132;82;f;n;1;f;n;5383.716800000002
15deq3!;142;False;2;P != T1?;ST1_low_1;1;Same;low;82;132;82;f;n;0;f;b;1325.3255999998146
15deq3!;143;False;2;P != T1?;ST1_high_6;1;Same;high;132;96;132;f;n;0;f;b;1513.7917000001835
15deq3!;144;False;2;P != T1?;ST1_low_6;1;Same;low;154;96;154;f;n;0;f;n;937.5539000002391
15deq3!;145;False;2;P != T1?;ST2_low_2;2;Same;low;132;82;82;f;n;0;j;v;1237.557999999808
15deq3!;146;False;2;P != T1?;ST2_high_4;2;Same;high;96;70;70;f;n;0;j;b;1281.1007999998765
15deq3!;147;False;2;P != T1?;ST1_high_4;1;Same;high;96;70;96;f;n;0;f;b;1114.2315999995844
15deq3!;148;False;2;P != T1?;ST2_low_4;2;Same;low;112;70;70;f;n;0;j;b;870.0074000007589
15deq3!;149;False;2;P != T2?;ST2_low_2;2;Same;low;132;82;82;f;n;0;f;n;750.4774999997608
15deq3!;150;False;2;P != T2?;ST1_high_5;1;Same;high;96;132;96;f;n;1;f;b;1095.1457000001028
15deq3!;151;False;2;P != T2?;STb_3;0;Same;None;82;82;82;f;n;0;f;b;915.8053999999538
15deq3!;152;False;2;P != T1?;ST2_high_6;2;Same;high;132;96;96;f;n;0;j;b;920.4103000001851
15deq3!;153;False;2;P != T2?;ST2_high_1;2;Same;high;82;112;112;f;n;1;j;v;1034.3679999996311
15deq3!;154;False;2;P != T1?;DT2_low_3;2;Different;low;70;112;132;f;n;0;j;b;1741.3900999999896
15deq3!;155;False;2;P != T1?;ST1_low_4;1;Same;low;112;70;112;f;n;1;j;b;4954.286799999863
15deq3!;156;False;2;P != T1?;ST2_high_2;2;Same;high;112;82;82;f;n;0;j;b;1303.802600000381
15deq3!;157;False;2;P != T2?;ST2_high_3;2;Same;high;70;96;96;f;n;0;f;b;1905.5375999996613
15deq3!;158;False;2;P != T2?;ST2_high_6;2;Same;high;132;96;96;f;n;0;f;b;1426.8541000001278
15deq3!;159;False;2;P != T2?;ST2_low_1;2;Same;low;82;132;132;f;n;0;f;b;1059.3136999996204
15deq3!;160;False;2;P != T2?;ST2_low_5;2;Same;low;96;154;154;f;n;0;f;v;7148.226400000567
15deq3!;161;False;2;P != T1?;ST1_high_1;1;Same;high;82;112;82;f;n;0;f;n;757.1373999999196
15deq3!;162;False;2;P != T2?;ST2_low_3;2;Same;low;70;112;112;f;n;0;f;v;4989.721699999791
15deq3!;163;False;2;P != T1?;ST1_low_3;1;Same;low;70;112;70;f;n;0;f;n;806.772799999635
15deq3!;164;False;2;P != T1?;ST2_high_3;2;Same;high;70;96;96;f;n;1;f;v;1899.2487000004985
15deq3!;165;False;2;P != T2?;ST1_low_2;1;Same;low;132;82;132;f;n;0;j;n;908.5136000003331
15deq3!;166;False;2;P != T1?;STb_3;0;Same;None;82;82;82;f;n;0;f;n;975.6814999991548
15deq3!;167;False;2;P != T2?;STb_7;0;Same;None;154;154;154;f;n;1;j;n;867.1758999998929
15deq3!;168;False;2;P != T2?;ST2_high_6;2;Same;high;132;96;96;f;n;0;f;v;1081.7330999998376
15deq3!;169;False;2;P != T2?;ST2_high_6;2;Same;high;132;96;96;f;n;1;j;b;3779.6966999994766
15deq3!;170;False;2;P != T1?;ST1_high_3;1;Same;high;70;96;70;f;n;0;f;n;784.3935000000783
15deq3!;171;False;2;P != T1?;STb_4;0;Same;None;96;96;96;f;n;0;f;v;3755.7113000002573
15deq3!;172;False;2;P != T1?;ST2_high_6;2;Same;high;132;96;96;f;n;1;f;b;857.4255000003177
15deq3!;173;False;2;P != T1?;ST2_high_2;2;Same;high;112;82;82;f;n;1;f;b;959.0471999999863
15deq3!;174;False;2;P != T1?;ST1_high_4;1;Same;high;96;70;96;f;n;0;f;b;5653.628799999751
15deq3!;175;False;2;P != T2?;ST1_high_3;1;Same;high;70;96;70;f;n;0;j;n;1101.2393999999404
15deq3!;176;False;2;P != T2?;ST1_low_3;1;Same;low;70;112;70;f;n;0;j;n;859.4788999998855
