p_code;trial_nr;practice;block;question;condition;seqPos;Same_or_Diff;ITS;T1_hz;T2_hz;P_hz;yes_key;sure_key;correct;yes_no;rating;resp_time
907uda#;1;True;1;P != T2?;ST1_low_2;1;Same;low;132;82;132;f;v;0;j;v;1065.597999999909
907uda#;2;True;1;P != T1?;STb_7;0;Same;None;154;154;154;f;v;1;j;v;1459.1616000000158
907uda#;3;True;1;P != T1?;ST1_low_1;1;Same;low;82;132;82;f;v;0;f;b;2640.2314000000615
907uda#;4;True;1;P != T2?;ST1_high_6;1;Same;high;132;96;132;f;v;0;j;v;1337.3105000000578
907uda#;5;True;1;P != T1?;ST2_high_4;2;Same;high;96;70;70;f;v;0;j;b;2238.225600000078
907uda#;6;True;1;P != T1?;ST1_high_5;1;Same;high;96;132;96;f;v;1;j;b;8874.827500000038
907uda#;7;True;1;P != T1?;STb_4;0;Same;None;96;96;96;f;v;1;j;n;1400.7096000000274
907uda#;8;True;1;P != T2?;STb_7;0;Same;None;154;154;154;f;v;1;j;b;2918.6606000000666
907uda#;9;True;1;P != T2?;DT2_low_2;2;Different;low;132;82;70;f;v;0;j;b;1074.6528999999327
907uda#;10;True;1;P != T2?;ST2_high_3;2;Same;high;70;96;96;f;v;1;j;n;2672.9245999999875
907uda#;11;True;1;P != T1?;DT1_high_2;1;Different;high;112;82;132;f;v;1;f;n;2010.8624000000646
907uda#;12;True;1;P != T1?;DT2_low_2;2;Different;low;132;82;70;f;v;1;f;b;1033.016900000007
907uda#;13;True;1;P != T2?;ST2_low_5;2;Same;low;96;154;154;f;v;0;f;v;696.3379999999688
907uda#;14;True;1;P != T2?;DT2_high_5;2;Different;high;96;132;154;f;v;1;f;n;1838.2316999999375
907uda#;15;True;1;P != T2?;STb_1;0;Same;None;60;60;60;f;v;1;j;n;1197.7312999999867
907uda#;16;True;1;P != T1?;ST2_low_2;2;Same;low;132;82;82;f;v;1;f;n;2185.7290000000376
p_code;trial_nr;practice;block;question;condition;seqPos;Same_or_Diff;ITS;T1_hz;T2_hz;P_hz;yes_key;sure_key;correct;yes_no;rating;resp_time
907uda#;1;False;1;P != T1?;ST2_low_6;2;Same;low;154;96;96;f;v;1;f;v;813.4248999999727
907uda#;2;False;1;P != T1?;ST2_low_3;2;Same;low;70;112;112;f;v;1;f;v;943.4188999999833
907uda#;3;False;1;P != T1?;ST2_high_3;2;Same;high;70;96;96;f;v;0;j;n;2903.6714000000075
907uda#;4;False;1;P != T2?;ST1_low_6;1;Same;low;154;96;154;f;v;1;f;b;1035.8992999999828
907uda#;5;False;1;P != T2?;DT2_high_3;2;Different;high;70;96;112;f;v;1;f;b;748.7371000000849
907uda#;6;False;1;P != T1?;ST1_low_1;1;Same;low;82;132;82;f;v;0;f;v;1653.0543999999736
907uda#;7;False;1;P != T1?;STb_6;0;Same;None;132;132;132;f;v;0;f;n;2269.752799999992
907uda#;8;False;1;P != T1?;ST2_low_1;2;Same;low;82;132;132;f;v;1;f;v;750.6160000000364
907uda#;9;False;1;P != T2?;ST1_low_4;1;Same;low;112;70;112;f;v;1;f;n;914.8760999999013
907uda#;10;False;1;P != T1?;ST2_high_6;2;Same;high;132;96;96;f;v;1;f;n;1232.5508000000127
907uda#;11;False;1;P != T1?;ST2_high_5;2;Same;high;96;132;132;f;v;1;f;b;2109.514200000035
907uda#;12;False;1;P != T1?;ST1_high_6;1;Same;high;132;96;132;f;v;0;f;b;2163.766799999962
907uda#;13;False;1;P != T1?;DT1_high_6;1;Different;high;132;96;154;f;v;0;j;n;2846.1915000000317
907uda#;14;False;1;P != T1?;ST1_low_6;1;Same;low;154;96;154;f;v;1;j;n;1837.0473000001084
907uda#;15;False;1;P != T1?;ST1_low_2;1;Same;low;132;82;132;f;v;0;f;n;2525.2934000000096
907uda#;16;False;1;P != T1?;ST2_high_3;2;Same;high;70;96;96;f;v;1;f;b;1868.3619999999337
907uda#;17;False;1;P != T2?;ST1_low_2;1;Same;low;132;82;132;f;v;1;f;n;2841.03319999997
907uda#;18;False;1;P != T1?;ST1_low_3;1;Same;low;70;112;70;f;v;1;j;v;954.4687999999724
907uda#;19;False;1;P != T2?;DT2_low_6;2;Different;low;154;96;82;f;v;1;f;b;1162.474300000099
907uda#;20;False;1;P != T2?;ST2_high_4;2;Same;high;96;70;70;f;v;1;j;b;1382.0452999999588
907uda#;21;False;1;P != T2?;ST1_high_6;1;Same;high;132;96;132;f;v;1;f;b;2090.442400000029
907uda#;22;False;1;P != T1?;ST1_low_5;1;Same;low;96;154;96;f;v;1;j;n;1464.9573000000373
907uda#;23;False;1;P != T1?;ST1_high_2;1;Same;high;112;82;112;f;v;1;j;b;1462.4903999999788
907uda#;24;False;1;P != T1?;DT1_high_5;1;Different;high;96;132;82;f;v;1;f;b;520.0205999999525
907uda#;25;False;1;P != T1?;ST1_low_6;1;Same;low;154;96;154;f;v;0;f;b;1026.2559000000238
907uda#;26;False;1;P != T2?;ST1_high_4;1;Same;high;96;70;96;f;v;1;f;v;741.7388000000074
907uda#;27;False;1;P != T2?;ST1_low_5;1;Same;low;96;154;96;f;v;1;f;v;2101.0304000000133
907uda#;28;False;1;P != T1?;ST1_low_2;1;Same;low;132;82;132;f;v;1;j;b;1526.7625999999836
907uda#;29;False;1;P != T1?;STb_2;0;Same;None;70;70;70;f;v;0;f;v;1077.855999999997
907uda#;30;False;1;P != T1?;ST1_high_3;1;Same;high;70;96;70;f;v;1;j;b;935.34939999995
907uda#;31;False;1;P != T2?;STb_5;0;Same;None;112;112;112;f;v;1;j;b;1005.5800999999747
907uda#;32;False;1;P != T2?;ST2_low_6;2;Same;low;154;96;96;f;v;1;j;b;1734.190099999978
907uda#;33;False;1;P != T2?;ST2_low_6;2;Same;low;154;96;96;f;v;0;f;n;1973.1626000000233
907uda#;34;False;1;P != T2?;ST1_high_1;1;Same;high;82;112;82;f;v;1;f;b;1214.919200000054
907uda#;35;False;1;P != T1?;ST2_low_4;2;Same;low;112;70;70;f;v;1;f;v;1035.4849999999942
907uda#;36;False;1;P != T2?;ST2_high_4;2;Same;high;96;70;70;f;v;1;j;b;1042.1534999999267
907uda#;37;False;1;P != T1?;ST2_high_2;2;Same;high;112;82;82;f;v;1;f;v;1084.966599999916
907uda#;38;False;1;P != T1?;ST2_low_3;2;Same;low;70;112;112;f;v;1;f;v;1026.399999999967
907uda#;39;False;1;P != T2?;ST2_low_5;2;Same;low;96;154;154;f;v;1;j;v;916.6462999999112
907uda#;40;False;1;P != T2?;ST1_low_1;1;Same;low;82;132;82;f;v;1;f;v;1340.8261999998103
907uda#;41;False;1;P != T1?;ST1_high_3;1;Same;high;70;96;70;f;v;1;j;b;1616.0787999999684
907uda#;42;False;1;P != T2?;ST2_high_2;2;Same;high;112;82;82;f;v;1;j;b;1042.4682000000303
907uda#;43;False;1;P != T2?;STb_6;0;Same;None;132;132;132;f;v;1;j;b;810.2542999999969
907uda#;44;False;1;P != T1?;ST1_high_5;1;Same;high;96;132;96;f;v;0;f;n;2615.9490000000005
907uda#;45;False;1;P != T1?;ST1_high_6;1;Same;high;132;96;132;f;v;0;f;n;2534.5058999998855
907uda#;46;False;1;P != T2?;ST2_high_5;2;Same;high;96;132;132;f;v;1;j;n;1125.1052000000072
907uda#;47;False;1;P != T1?;STb_3;0;Same;None;82;82;82;f;v;1;j;b;1070.8245000000716
907uda#;48;False;1;P != T2?;ST2_low_2;2;Same;low;132;82;82;f;v;1;j;b;1228.309599999875
907uda#;49;False;1;P != T2?;ST2_low_6;2;Same;low;154;96;96;f;v;1;j;b;949.2580000000999
907uda#;50;False;1;P != T1?;ST2_high_5;2;Same;high;96;132;132;f;v;1;f;b;1279.628399999865
907uda#;51;False;1;P != T2?;ST2_low_2;2;Same;low;132;82;82;f;v;1;j;b;1069.508199999973
907uda#;52;False;1;P != T1?;STb_5;0;Same;None;112;112;112;f;v;1;j;b;1058.6955999999645
907uda#;53;False;1;P != T1?;DT2_high_5;2;Different;high;96;132;154;f;v;1;f;b;2228.755000000092
907uda#;54;False;1;P != T2?;ST1_low_2;1;Same;low;132;82;132;f;v;1;f;v;1180.1474000001235
907uda#;55;False;1;P != T2?;STb_1;0;Same;None;60;60;60;f;v;1;j;v;1132.5655999999071
907uda#;56;False;1;P != T1?;ST2_high_6;2;Same;high;132;96;96;f;v;0;j;b;3618.1031999999504
907uda#;57;False;1;P != T1?;ST2_low_6;2;Same;low;154;96;96;f;v;1;f;v;967.7157000000989
907uda#;58;False;1;P != T1?;ST2_low_6;2;Same;low;154;96;96;f;v;1;f;v;1621.091799999931
907uda#;59;False;1;P != T1?;ST1_high_1;1;Same;high;82;112;82;f;v;1;j;b;1961.0129000000143
907uda#;60;False;1;P != T2?;ST2_high_4;2;Same;high;96;70;70;f;v;1;j;b;1937.2602000000825
907uda#;61;False;1;P != T1?;STb_1;0;Same;None;60;60;60;f;v;1;j;v;974.2016000000149
907uda#;62;False;1;P != T2?;ST1_high_5;1;Same;high;96;132;96;f;v;0;j;v;1191.9123000000127
907uda#;63;False;1;P != T2?;STb_7;0;Same;None;154;154;154;f;v;1;j;v;691.4604999999483
907uda#;64;False;1;P != T2?;ST2_high_3;2;Same;high;70;96;96;f;v;1;j;v;1374.8372000000018
907uda#;65;False;1;P != T2?;ST1_high_3;1;Same;high;70;96;70;f;v;1;f;v;1098.5694999999396
907uda#;66;False;1;P != T2?;ST1_high_2;1;Same;high;112;82;112;f;v;1;f;v;1191.2568000000192
907uda#;67;False;1;P != T2?;ST1_high_3;1;Same;high;70;96;70;f;v;1;f;v;1246.43930000002
907uda#;68;False;1;P != T2?;ST1_high_2;1;Same;high;112;82;112;f;v;0;j;v;1253.1406000000516
907uda#;69;False;1;P != T1?;ST2_high_5;2;Same;high;96;132;132;f;v;1;f;v;596.2576000001718
907uda#;70;False;1;P != T2?;ST2_high_2;2;Same;high;112;82;82;f;v;1;j;v;2602.532099999962
907uda#;71;False;1;P != T2?;ST1_low_6;1;Same;low;154;96;154;f;v;1;f;v;1287.4371000000338
907uda#;72;False;1;P != T2?;ST1_low_2;1;Same;low;132;82;132;f;v;1;f;v;3026.1736999998448
907uda#;73;False;1;P != T2?;ST1_low_1;1;Same;low;82;132;82;f;v;1;f;v;1753.4749999999804
907uda#;74;False;1;P != T1?;ST2_high_1;2;Same;high;82;112;112;f;v;1;f;v;852.8943000001163
907uda#;75;False;1;P != T2?;ST2_low_1;2;Same;low;82;132;132;f;v;1;j;b;2221.1999000001015
907uda#;76;False;1;P != T2?;ST1_low_1;1;Same;low;82;132;82;f;v;1;f;v;991.8012000000545
907uda#;77;False;1;P != T1?;ST1_low_3;1;Same;low;70;112;70;f;v;1;j;b;3522.5395999998454
907uda#;78;False;1;P != T1?;ST2_high_4;2;Same;high;96;70;70;f;v;1;f;v;1444.5248000001811
907uda#;79;False;1;P != T2?;ST2_high_6;2;Same;high;132;96;96;f;v;1;j;v;650.6830999999238
907uda#;80;False;1;P != T2?;DT2_low_1;2;Different;low;82;132;154;f;v;0;j;v;926.806200000101
907uda#;81;False;1;P != T2?;ST2_high_2;2;Same;high;112;82;82;f;v;1;j;v;1048.9442000000508
907uda#;82;False;1;P != T2?;DT1_low_1;1;Different;low;82;132;70;f;v;1;f;v;1270.4498999999032
907uda#;83;False;1;P != T1?;ST2_low_4;2;Same;low;112;70;70;f;v;1;f;v;871.7275000001337
907uda#;84;False;1;P != T1?;ST1_high_4;1;Same;high;96;70;96;f;v;1;j;v;1928.6928999999873
907uda#;85;False;1;P != T2?;ST2_high_1;2;Same;high;82;112;112;f;v;0;f;v;1062.9378999999517
907uda#;86;False;1;P != T1?;ST1_low_5;1;Same;low;96;154;96;f;v;0;f;n;1706.3286999998581
907uda#;87;False;1;P != T2?;ST2_low_5;2;Same;low;96;154;154;f;v;1;j;b;1791.645600000038
907uda#;88;False;1;P != T1?;ST1_high_5;1;Same;high;96;132;96;f;v;1;j;n;3008.7610000000495
907uda#;89;False;1;P != T2?;ST2_low_3;2;Same;low;70;112;112;f;v;0;f;b;1111.7392000001018
907uda#;90;False;1;P != T1?;ST1_low_2;1;Same;low;132;82;132;f;v;1;j;b;1589.0477000000374
907uda#;91;False;1;P != T1?;ST2_low_1;2;Same;low;82;132;132;f;v;1;f;v;1577.5762000000668
907uda#;92;False;1;P != T2?;ST2_high_3;2;Same;high;70;96;96;f;v;0;f;n;1948.9039000000048
907uda#;93;False;1;P != T1?;ST2_low_2;2;Same;low;132;82;82;f;v;1;f;v;1121.9499000001179
907uda#;94;False;1;P != T2?;ST2_low_3;2;Same;low;70;112;112;f;v;0;f;n;1080.329600000141
907uda#;95;False;1;P != T2?;DT1_high_2;1;Different;high;112;82;132;f;v;1;f;v;1286.3978999998835
907uda#;96;False;1;P != T2?;STb_4;0;Same;None;96;96;96;f;v;1;j;v;388.2437000002028
907uda#;97;False;1;P != T2?;ST2_low_1;2;Same;low;82;132;132;f;v;0;f;n;2998.756100000037
907uda#;98;False;1;P != T1?;STb_8;0;Same;None;180;180;180;f;v;1;j;b;748.3741999999438
907uda#;99;False;1;P != T2?;DT2_low_2;2;Different;low;132;82;70;f;v;1;f;n;3061.7428000000473
907uda#;100;False;1;P != T2?;STb_3;0;Same;None;82;82;82;f;v;1;j;b;1609.110899999905
907uda#;101;False;1;P != T1?;ST1_low_4;1;Same;low;112;70;112;f;v;1;j;n;1547.0236999999543
907uda#;102;False;1;P != T2?;DT2_high_1;2;Different;high;82;112;132;f;v;0;j;b;1053.0579999999645
907uda#;103;False;1;P != T2?;ST2_high_6;2;Same;high;132;96;96;f;v;1;j;b;1904.0219000000889
907uda#;104;False;1;P != T1?;ST2_high_4;2;Same;high;96;70;70;f;v;0;j;b;2631.666600000017
907uda#;105;False;1;P != T2?;ST2_low_4;2;Same;low;112;70;70;f;v;1;j;b;958.2344000000376
907uda#;106;False;1;P != T2?;ST1_high_5;1;Same;high;96;132;96;f;v;1;f;v;808.7828999998692
907uda#;107;False;1;P != T2?;ST2_high_6;2;Same;high;132;96;96;f;v;0;f;n;2050.4903000000922
907uda#;108;False;1;P != T2?;STb_8;0;Same;None;180;180;180;f;v;1;j;v;491.24189999997725
907uda#;109;False;1;P != T1?;DT2_low_5;2;Different;low;96;154;180;f;v;1;f;v;2062.5385999999253
907uda#;110;False;1;P != T1?;DT2_low_6;2;Different;low;154;96;82;f;v;1;f;n;613.8896999998451
907uda#;111;False;1;P != T1?;ST1_low_1;1;Same;low;82;132;82;f;v;1;j;n;902.6338000001033
907uda#;112;False;1;P != T1?;ST2_low_4;2;Same;low;112;70;70;f;v;1;f;v;1000.2377999999226
907uda#;113;False;1;P != T2?;ST1_high_4;1;Same;high;96;70;96;f;v;1;f;b;1246.6391999998905
907uda#;114;False;1;P != T1?;ST1_high_1;1;Same;high;82;112;82;f;v;1;j;b;775.494000000208
907uda#;115;False;1;P != T2?;ST2_low_5;2;Same;low;96;154;154;f;v;1;j;b;2011.6911999998592
907uda#;116;False;1;P != T1?;ST2_low_2;2;Same;low;132;82;82;f;v;1;f;b;1198.8301999999749
907uda#;117;False;1;P != T2?;ST1_high_6;1;Same;high;132;96;132;f;v;1;f;b;945.9570999999869
907uda#;118;False;1;P != T2?;ST1_low_6;1;Same;low;154;96;154;f;v;1;f;b;714.2418000000816
907uda#;119;False;1;P != T1?;ST2_low_2;2;Same;low;132;82;82;f;v;0;j;b;1936.7868000001636
907uda#;120;False;1;P != T2?;ST1_low_4;1;Same;low;112;70;112;f;v;1;f;b;1671.7873000000054
907uda#;121;False;1;P != T1?;ST2_high_2;2;Same;high;112;82;82;f;v;1;f;b;945.5493000000388
907uda#;122;False;1;P != T1?;ST2_low_5;2;Same;low;96;154;154;f;v;1;f;b;1828.9812000000438
907uda#;123;False;1;P != T2?;ST1_high_1;1;Same;high;82;112;82;f;v;1;f;b;977.8983999999582
907uda#;124;False;1;P != T1?;ST2_high_1;2;Same;high;82;112;112;f;v;1;f;b;814.7159999998621
907uda#;125;False;1;P != T2?;ST1_high_6;1;Same;high;132;96;132;f;v;1;f;b;2173.01620000012
907uda#;126;False;1;P != T2?;ST2_high_5;2;Same;high;96;132;132;f;v;1;j;b;2092.2725999998875
907uda#;127;False;1;P != T2?;ST2_high_1;2;Same;high;82;112;112;f;v;1;j;b;249.71879999998237
907uda#;128;False;1;P != T1?;ST1_low_4;1;Same;low;112;70;112;f;v;1;j;b;877.2965999999087
907uda#;129;False;1;P != T1?;ST2_high_2;2;Same;high;112;82;82;f;v;1;f;b;849.3591999999808
907uda#;130;False;1;P != T1?;STb_4;0;Same;None;96;96;96;f;v;1;j;b;701.9494000001032
907uda#;131;False;1;P != T1?;ST1_low_6;1;Same;low;154;96;154;f;v;1;j;b;1003.6141999999018
907uda#;132;False;1;P != T2?;ST1_high_2;1;Same;high;112;82;112;f;v;0;j;b;962.0966000002227
907uda#;133;False;1;P != T1?;ST1_high_5;1;Same;high;96;132;96;f;v;0;f;b;2248.722799999996
907uda#;134;False;1;P != T2?;ST2_high_1;2;Same;high;82;112;112;f;v;1;j;n;716.7872999998508
907uda#;135;False;1;P != T2?;ST2_low_1;2;Same;low;82;132;132;f;v;1;j;n;335.16039999994973
907uda#;136;False;1;P != T2?;ST1_low_3;1;Same;low;70;112;70;f;v;1;f;b;818.7635999997838
907uda#;137;False;1;P != T1?;ST1_high_4;1;Same;high;96;70;96;f;v;0;f;n;1173.445299999912
907uda#;138;False;1;P != T2?;ST2_high_5;2;Same;high;96;132;132;f;v;1;j;n;980.2229000001716
907uda#;139;False;1;P != T2?;ST1_high_1;1;Same;high;82;112;82;f;v;1;f;b;670.6162999998924
907uda#;140;False;1;P != T1?;ST2_low_5;2;Same;low;96;154;154;f;v;1;f;b;679.226700000072
907uda#;141;False;1;P != T2?;ST2_low_3;2;Same;low;70;112;112;f;v;1;j;b;937.8817000001618
907uda#;142;False;1;P != T2?;ST1_low_3;1;Same;low;70;112;70;f;v;1;f;b;850.0284999995529
907uda#;143;False;1;P != T1?;ST2_high_3;2;Same;high;70;96;96;f;v;1;f;n;470.8679000000302
907uda#;144;False;1;P != T1?;DT2_low_2;2;Different;low;132;82;70;f;v;1;f;n;876.6466999995828
907uda#;145;False;1;P != T2?;ST1_high_3;1;Same;high;70;96;70;f;v;0;j;n;562.7963000001728
907uda#;146;False;1;P != T1?;ST1_high_2;1;Same;high;112;82;112;f;v;1;j;n;264.47890000008556
907uda#;147;False;1;P != T2?;ST2_low_4;2;Same;low;112;70;70;f;v;1;j;n;335.03449999989243
907uda#;148;False;1;P != T1?;ST1_low_5;1;Same;low;96;154;96;f;v;1;j;n;1385.9796000001552
907uda#;149;False;1;P != T1?;ST2_low_5;2;Same;low;96;154;154;f;v;1;f;b;1341.2923999999293
907uda#;150;False;1;P != T1?;ST1_low_4;1;Same;low;112;70;112;f;v;1;j;n;1619.615000000067
907uda#;151;False;1;P != T1?;ST1_high_6;1;Same;high;132;96;132;f;v;1;j;b;1188.5173000000577
907uda#;152;False;1;P != T2?;ST1_low_5;1;Same;low;96;154;96;f;v;0;j;b;1156.0371000000487
907uda#;153;False;1;P != T1?;ST2_low_3;2;Same;low;70;112;112;f;v;0;j;n;1724.0317000000687
907uda#;154;False;1;P != T1?;DT2_high_6;2;Different;high;132;96;82;f;v;1;f;n;1989.6910000002208
907uda#;155;False;1;P != T1?;ST1_high_1;1;Same;high;82;112;82;f;v;1;j;n;860.9050000000025
907uda#;156;False;1;P != T1?;STb_7;0;Same;None;154;154;154;f;v;1;j;n;1056.91379999962
907uda#;157;False;1;P != T2?;ST2_high_3;2;Same;high;70;96;96;f;v;1;j;n;242.49730000019554
907uda#;158;False;1;P != T1?;ST2_high_6;2;Same;high;132;96;96;f;v;1;f;b;806.8740999997317
907uda#;159;False;1;P != T2?;ST1_low_4;1;Same;low;112;70;112;f;v;0;j;n;447.2679000000426
907uda#;160;False;1;P != T1?;DT2_low_3;2;Different;low;70;112;132;f;v;1;f;b;713.5542000000896
907uda#;161;False;1;P != T2?;ST2_low_2;2;Same;low;132;82;82;f;v;1;j;n;1923.0219000000943
907uda#;162;False;1;P != T2?;DT1_low_3;1;Different;low;70;112;60;f;v;1;f;b;866.5439999999762
907uda#;163;False;1;P != T1?;ST1_low_1;1;Same;low;82;132;82;f;v;1;j;n;1407.8403999997136
907uda#;164;False;1;P != T2?;ST1_low_5;1;Same;low;96;154;96;f;v;0;j;n;976.1924000004001
907uda#;165;False;1;P != T1?;ST2_low_1;2;Same;low;82;132;132;f;v;1;f;b;520.7533000002513
907uda#;166;False;1;P != T1?;ST2_high_1;2;Same;high;82;112;112;f;v;1;f;n;814.3638999999894
907uda#;167;False;1;P != T1?;ST1_high_4;1;Same;high;96;70;96;f;v;0;f;b;711.3988000000973
907uda#;168;False;1;P != T2?;ST1_high_5;1;Same;high;96;132;96;f;v;1;f;b;683.2457999998951
907uda#;169;False;1;P != T1?;ST1_high_3;1;Same;high;70;96;70;f;v;1;j;b;1096.417400000064
907uda#;170;False;1;P != T1?;ST1_low_3;1;Same;low;70;112;70;f;v;1;j;n;1144.741300000078
907uda#;171;False;1;P != T2?;STb_2;0;Same;None;70;70;70;f;v;1;j;n;831.7827000000761
907uda#;172;False;1;P != T1?;ST1_high_2;1;Same;high;112;82;112;f;v;1;j;n;1041.682800000217
907uda#;173;False;1;P != T2?;ST1_high_4;1;Same;high;96;70;96;f;v;1;f;n;1736.6281000004165
907uda#;174;False;1;P != T2?;ST1_low_3;1;Same;low;70;112;70;f;v;1;f;b;774.4658000001436
907uda#;175;False;1;P != T1?;ST2_high_4;2;Same;high;96;70;70;f;v;1;f;b;898.0470999999852
907uda#;176;False;1;P != T2?;ST2_low_4;2;Same;low;112;70;70;f;v;1;j;b;939.7862999999234
907uda#;1;True;2;P = T1?;DT2_high_5;2;Different;high;96;132;154;f;v;1;j;n;1121.6527999999926
907uda#;2;True;2;P = T2?;DT1_low_6;1;Different;low;154;96;180;f;v;1;j;n;671.6198999997687
907uda#;3;True;2;P = T1?;STb_8;0;Same;None;180;180;180;f;v;1;f;v;506.46310000001904
907uda#;4;True;2;P = T2?;STb_5;0;Same;None;112;112;112;f;v;1;f;b;398.10510000006616
907uda#;5;True;2;P = T1?;STb_5;0;Same;None;112;112;112;f;v;1;f;b;834.7439999997732
907uda#;6;True;2;P = T2?;ST1_low_1;1;Same;low;82;132;82;f;v;1;j;n;915.2038000001994
907uda#;7;True;2;P = T2?;STb_6;0;Same;None;132;132;132;f;v;1;f;b;605.735900000127
907uda#;8;True;2;P = T1?;ST1_high_5;1;Same;high;96;132;96;f;v;1;f;b;657.9532000000654
907uda#;9;True;2;P = T2?;ST1_low_3;1;Same;low;70;112;70;f;v;1;j;b;1629.4515999998112
907uda#;10;True;2;P = T1?;ST2_low_6;2;Same;low;154;96;96;f;v;1;j;b;1296.34840000017
907uda#;11;True;2;P = T2?;ST2_high_1;2;Same;high;82;112;112;f;v;0;j;b;2035.8280999998897
907uda#;12;True;2;P = T2?;DT1_high_2;1;Different;high;112;82;132;f;v;1;j;n;1299.1342000000259
907uda#;13;True;2;P = T2?;ST2_high_4;2;Same;high;96;70;70;f;v;1;f;b;841.092000000117
907uda#;14;True;2;P = T1?;DT2_low_6;2;Different;low;154;96;82;f;v;1;j;b;1612.2118000002956
907uda#;15;True;2;P = T1?;ST1_high_2;1;Same;high;112;82;112;f;v;0;j;b;886.9653000001563
907uda#;16;True;2;P = T1?;ST2_high_6;2;Same;high;132;96;96;f;v;0;f;b;1192.5997000003008
907uda#;1;False;2;P = T1?;ST1_high_2;1;Same;high;112;82;112;f;v;1;f;b;887.0116000002781
907uda#;2;False;2;P = T1?;ST2_low_5;2;Same;low;96;154;154;f;v;1;j;b;669.8441999997158
907uda#;3;False;2;P = T2?;ST1_low_5;1;Same;low;96;154;96;f;v;1;j;b;1069.676999999956
907uda#;4;False;2;P = T2?;ST2_low_2;2;Same;low;132;82;82;f;v;1;f;b;391.0737999999583
907uda#;5;False;2;P = T2?;ST1_low_2;1;Same;low;132;82;132;f;v;1;j;b;790.7214000001659
907uda#;6;False;2;P = T2?;STb_2;0;Same;None;70;70;70;f;v;1;f;b;437.91650000002846
907uda#;7;False;2;P = T1?;ST1_low_3;1;Same;low;70;112;70;f;v;1;f;b;772.9546999999002
907uda#;8;False;2;P = T1?;ST1_high_1;1;Same;high;82;112;82;f;v;1;f;b;576.2792999998965
907uda#;9;False;2;P = T2?;DT1_low_5;1;Different;low;96;154;82;f;v;1;j;b;577.8917000002366
907uda#;10;False;2;P = T2?;ST2_low_4;2;Same;low;112;70;70;f;v;1;f;b;501.0588000000098
907uda#;11;False;2;P = T1?;STb_6;0;Same;None;132;132;132;f;v;1;f;b;254.11220000023604
907uda#;12;False;2;P = T1?;ST2_low_3;2;Same;low;70;112;112;f;v;1;j;b;806.5396000001783
907uda#;13;False;2;P = T2?;ST1_high_4;1;Same;high;96;70;96;f;v;0;f;b;439.15400000014415
907uda#;14;False;2;P = T1?;DT1_high_1;1;Different;high;82;112;70;f;v;0;f;b;704.9048000003495
907uda#;15;False;2;P = T1?;ST1_high_5;1;Same;high;96;132;96;f;v;1;f;b;720.6213999997999
907uda#;16;False;2;P = T1?;ST2_high_6;2;Same;high;132;96;96;f;v;1;j;b;920.0869000001148
907uda#;17;False;2;P = T2?;ST2_low_6;2;Same;low;154;96;96;f;v;1;f;b;895.7595000001675
907uda#;18;False;2;P = T1?;ST2_low_1;2;Same;low;82;132;132;f;v;1;j;b;905.5152000000817
907uda#;19;False;2;P = T1?;ST2_low_6;2;Same;low;154;96;96;f;v;1;j;b;868.9790000003086
907uda#;20;False;2;P = T2?;STb_6;0;Same;None;132;132;132;f;v;1;f;b;332.4200000001838
907uda#;21;False;2;P = T2?;ST1_high_3;1;Same;high;70;96;70;f;v;0;f;n;306.92530000033
907uda#;22;False;2;P = T1?;ST1_low_2;1;Same;low;132;82;132;f;v;0;j;b;745.7173000002513
907uda#;23;False;2;P = T1?;ST2_high_5;2;Same;high;96;132;132;f;v;0;f;b;599.4958000001134
907uda#;24;False;2;P = T1?;ST1_high_2;1;Same;high;112;82;112;f;v;1;f;b;727.0821000001888
907uda#;25;False;2;P = T1?;ST1_low_5;1;Same;low;96;154;96;f;v;1;f;b;742.9525000002286
907uda#;26;False;2;P = T2?;ST2_high_6;2;Same;high;132;96;96;f;v;1;f;b;1297.1549000003506
907uda#;27;False;2;P = T2?;STb_1;0;Same;None;60;60;60;f;v;1;f;b;1476.7789000002267
907uda#;28;False;2;P = T1?;DT2_high_2;2;Different;high;112;82;70;f;v;1;j;b;1508.8642999999138
907uda#;29;False;2;P = T2?;ST2_low_4;2;Same;low;112;70;70;f;v;1;f;v;1902.2908000001735
907uda#;30;False;2;P = T1?;ST2_high_3;2;Same;high;70;96;96;f;v;0;f;b;672.1381999996083
907uda#;31;False;2;P = T1?;ST1_low_6;1;Same;low;154;96;154;f;v;0;j;b;443.84820000004765
907uda#;32;False;2;P = T1?;STb_1;0;Same;None;60;60;60;f;v;1;f;b;305.5893999999171
907uda#;33;False;2;P = T1?;ST2_low_1;2;Same;low;82;132;132;f;v;1;j;n;604.4996999999057
907uda#;34;False;2;P = T1?;ST2_low_4;2;Same;low;112;70;70;f;v;1;j;b;683.6574999997538
907uda#;35;False;2;P = T2?;ST1_high_5;1;Same;high;96;132;96;f;v;0;f;b;467.83860000005006
907uda#;36;False;2;P = T1?;ST2_high_1;2;Same;high;82;112;112;f;v;1;j;b;590.1568999997835
907uda#;37;False;2;P = T1?;DT1_high_5;1;Different;high;96;132;82;f;v;0;f;b;856.154599999627
907uda#;38;False;2;P = T1?;ST2_low_3;2;Same;low;70;112;112;f;v;1;j;b;1227.4339999999029
907uda#;39;False;2;P = T2?;DT1_high_5;1;Different;high;96;132;82;f;v;1;j;b;857.1535999999469
907uda#;40;False;2;P = T2?;ST1_high_1;1;Same;high;82;112;82;f;v;0;f;b;1189.233499999773
907uda#;41;False;2;P = T2?;ST1_low_4;1;Same;low;112;70;112;f;v;0;f;b;272.71479999990333
907uda#;42;False;2;P = T2?;ST2_low_5;2;Same;low;96;154;154;f;v;1;f;b;672.0771000000241
907uda#;43;False;2;P = T2?;ST2_high_2;2;Same;high;112;82;82;f;v;1;f;b;869.1969000001336
907uda#;44;False;2;P = T1?;ST1_high_3;1;Same;high;70;96;70;f;v;1;f;b;659.8268999996435
907uda#;45;False;2;P = T2?;ST2_low_4;2;Same;low;112;70;70;f;v;1;f;b;555.6520000000091
907uda#;46;False;2;P = T2?;STb_3;0;Same;None;82;82;82;f;v;1;f;b;335.3867999999238
907uda#;47;False;2;P = T1?;ST2_high_5;2;Same;high;96;132;132;f;v;0;f;b;1081.9320000000516
907uda#;48;False;2;P = T1?;ST1_high_1;1;Same;high;82;112;82;f;v;1;f;b;796.5998999998192
907uda#;49;False;2;P = T2?;ST2_low_1;2;Same;low;82;132;132;f;v;1;f;b;699.433400000089
907uda#;50;False;2;P = T2?;ST2_low_5;2;Same;low;96;154;154;f;v;1;f;b;366.4829999997892
907uda#;51;False;2;P = T2?;ST2_high_6;2;Same;high;132;96;96;f;v;1;f;b;551.515599999675
907uda#;52;False;2;P = T1?;ST2_high_6;2;Same;high;132;96;96;f;v;0;f;b;295.49090000000433
907uda#;53;False;2;P = T2?;ST1_low_2;1;Same;low;132;82;132;f;v;1;j;b;793.4070000001157
907uda#;54;False;2;P = T2?;ST2_high_1;2;Same;high;82;112;112;f;v;1;f;b;439.1688000000613
907uda#;55;False;2;P = T1?;ST2_high_4;2;Same;high;96;70;70;f;v;0;f;b;873.5012000001916
907uda#;56;False;2;P = T1?;ST2_high_4;2;Same;high;96;70;70;f;v;1;j;b;808.1794999998237
907uda#;57;False;2;P = T2?;STb_5;0;Same;None;112;112;112;f;v;1;f;b;260.980600000039
907uda#;58;False;2;P = T2?;ST2_low_6;2;Same;low;154;96;96;f;v;1;f;b;522.502500000428
907uda#;59;False;2;P = T1?;ST2_high_4;2;Same;high;96;70;70;f;v;1;j;b;718.977100000302
907uda#;60;False;2;P = T2?;ST1_low_3;1;Same;low;70;112;70;f;v;1;j;b;638.3921999999984
907uda#;61;False;2;P = T1?;DT2_high_5;2;Different;high;96;132;154;f;v;1;j;b;637.4307999999473
907uda#;62;False;2;P = T1?;ST1_high_6;1;Same;high;132;96;132;f;v;1;f;b;1294.6022999999514
907uda#;63;False;2;P = T1?;ST1_low_3;1;Same;low;70;112;70;f;v;1;f;b;696.8777999995837
907uda#;64;False;2;P = T2?;STb_4;0;Same;None;96;96;96;f;v;1;f;b;786.8843999999626
907uda#;65;False;2;P = T1?;ST2_high_5;2;Same;high;96;132;132;f;v;1;j;b;467.17990000024656
907uda#;66;False;2;P = T2?;DT1_low_6;1;Different;low;154;96;180;f;v;1;j;b;844.3997999997919
907uda#;67;False;2;P = T1?;ST1_low_2;1;Same;low;132;82;132;f;v;1;f;b;416.9836999999461
907uda#;68;False;2;P = T1?;ST2_high_3;2;Same;high;70;96;96;f;v;0;f;b;674.7725000000173
907uda#;69;False;2;P = T2?;DT2_low_1;2;Different;low;82;132;154;f;v;0;f;b;674.1710000001149
907uda#;70;False;2;P = T2?;ST1_low_6;1;Same;low;154;96;154;f;v;1;j;b;736.4514999999301
907uda#;71;False;2;P = T2?;DT1_high_2;1;Different;high;112;82;132;f;v;1;j;b;689.5171999999548
907uda#;72;False;2;P = T1?;ST2_low_2;2;Same;low;132;82;82;f;v;1;j;b;618.2330999999976
907uda#;73;False;2;P = T2?;ST1_low_4;1;Same;low;112;70;112;f;v;1;j;b;239.74479999969844
907uda#;74;False;2;P = T1?;DT1_low_3;1;Different;low;70;112;60;f;v;0;f;b;605.7031999998799
907uda#;75;False;2;P = T1?;ST1_high_3;1;Same;high;70;96;70;f;v;1;f;b;347.5388000001658
907uda#;76;False;2;P = T2?;ST2_low_1;2;Same;low;82;132;132;f;v;1;f;b;459.97129999977915
907uda#;77;False;2;P = T1?;ST1_high_6;1;Same;high;132;96;132;f;v;1;f;b;385.3532000002815
907uda#;78;False;2;P = T1?;ST1_low_6;1;Same;low;154;96;154;f;v;1;f;b;524.2655999995804
907uda#;79;False;2;P = T1?;ST2_low_1;2;Same;low;82;132;132;f;v;1;j;b;681.7808999999215
907uda#;80;False;2;P = T1?;STb_3;0;Same;None;82;82;82;f;v;1;f;b;299.866700000166
907uda#;81;False;2;P = T2?;ST2_high_6;2;Same;high;132;96;96;f;v;1;f;b;637.7125999997588
907uda#;82;False;2;P = T2?;ST2_low_3;2;Same;low;70;112;112;f;v;1;f;b;622.9256999999961
907uda#;83;False;2;P = T2?;ST2_low_1;2;Same;low;82;132;132;f;v;0;j;b;599.7603999999228
907uda#;84;False;2;P = T2?;ST2_high_1;2;Same;high;82;112;112;f;v;1;f;b;489.41649999960646
907uda#;85;False;2;P = T2?;ST2_low_3;2;Same;low;70;112;112;f;v;1;f;b;541.7408000002979
907uda#;86;False;2;P = T2?;STb_7;0;Same;None;154;154;154;f;v;1;f;b;265.0010000002112
907uda#;87;False;2;P = T2?;ST2_high_4;2;Same;high;96;70;70;f;v;1;f;b;588.9318999998068
907uda#;88;False;2;P = T1?;ST2_low_2;2;Same;low;132;82;82;f;v;1;j;b;475.75000000006185
907uda#;89;False;2;P = T1?;ST2_high_2;2;Same;high;112;82;82;f;v;0;f;b;1509.1147999996792
907uda#;90;False;2;P = T2?;ST1_high_2;1;Same;high;112;82;112;f;v;0;f;v;1307.3552999999265
907uda#;91;False;2;P = T1?;ST2_low_6;2;Same;low;154;96;96;f;v;1;j;b;758.1046000000242
907uda#;92;False;2;P = T1?;ST1_high_5;1;Same;high;96;132;96;f;v;0;j;b;770.6932999999481
907uda#;93;False;2;P = T1?;ST1_high_5;1;Same;high;96;132;96;f;v;1;f;b;1039.5822000000408
907uda#;94;False;2;P = T1?;ST2_low_3;2;Same;low;70;112;112;f;v;0;f;b;828.0746000000363
907uda#;95;False;2;P = T2?;ST1_low_3;1;Same;low;70;112;70;f;v;1;j;b;950.8296000003611
907uda#;96;False;2;P = T2?;ST2_high_3;2;Same;high;70;96;96;f;v;1;f;b;842.2500000001492
907uda#;97;False;2;P = T2?;DT1_high_3;1;Different;high;70;96;60;f;v;1;j;b;761.1363000000892
907uda#;98;False;2;P = T2?;DT2_high_4;2;Different;high;96;70;60;f;v;0;f;b;595.0190999997176
907uda#;99;False;2;P = T2?;ST1_high_6;1;Same;high;132;96;132;f;v;1;j;b;649.3044999997437
907uda#;100;False;2;P = T2?;DT1_high_1;1;Different;high;82;112;70;f;v;1;j;b;730.456399999639
907uda#;101;False;2;P = T1?;ST2_low_6;2;Same;low;154;96;96;f;v;0;f;b;902.4086999997962
907uda#;102;False;2;P = T1?;DT1_high_6;1;Different;high;132;96;154;f;v;0;f;b;856.7302000001291
907uda#;103;False;2;P = T1?;ST1_low_4;1;Same;low;112;70;112;f;v;1;f;b;617.7035999999134
907uda#;104;False;2;P = T2?;ST2_low_2;2;Same;low;132;82;82;f;v;1;f;b;915.306899999905
907uda#;105;False;2;P = T1?;ST1_low_5;1;Same;low;96;154;96;f;v;1;f;b;569.9730999999701
907uda#;106;False;2;P = T2?;ST1_low_6;1;Same;low;154;96;154;f;v;1;j;b;680.5861999996523
907uda#;107;False;2;P = T1?;ST2_high_6;2;Same;high;132;96;96;f;v;0;f;b;773.0787999998938
907uda#;108;False;2;P = T2?;ST1_low_1;1;Same;low;82;132;82;f;v;1;j;b;1060.0659000001542
907uda#;109;False;2;P = T1?;ST1_high_2;1;Same;high;112;82;112;f;v;1;f;b;604.9247999999352
907uda#;110;False;2;P = T1?;ST1_high_4;1;Same;high;96;70;96;f;v;1;f;b;636.5387999999257
907uda#;111;False;2;P = T1?;ST1_high_4;1;Same;high;96;70;96;f;v;1;f;b;824.4773999999779
907uda#;112;False;2;P = T1?;ST1_high_4;1;Same;high;96;70;96;f;v;1;f;b;413.34020000022065
907uda#;113;False;2;P = T2?;ST1_low_5;1;Same;low;96;154;96;f;v;0;f;b;591.8888000001061
907uda#;114;False;2;P = T1?;STb_8;0;Same;None;180;180;180;f;v;1;f;b;318.7631999999212
907uda#;115;False;2;P = T2?;ST1_low_6;1;Same;low;154;96;154;f;v;0;f;b;282.72759999981645
907uda#;116;False;2;P = T2?;ST1_high_6;1;Same;high;132;96;132;f;v;1;j;b;557.448800000202
907uda#;117;False;2;P = T1?;ST2_high_2;2;Same;high;112;82;82;f;v;0;f;b;261.2485999998171
907uda#;118;False;2;P = T2?;ST1_low_1;1;Same;low;82;132;82;f;v;1;j;b;442.83550000000105
907uda#;119;False;2;P = T2?;ST1_high_5;1;Same;high;96;132;96;f;v;0;f;b;434.4065000000228
907uda#;120;False;2;P = T1?;ST2_low_5;2;Same;low;96;154;154;f;v;0;f;n;594.4500999999036
907uda#;121;False;2;P = T1?;STb_4;0;Same;None;96;96;96;f;v;1;f;b;346.823399999721
907uda#;122;False;2;P = T1?;STb_7;0;Same;None;154;154;154;f;v;0;j;n;640.791100000115
907uda#;123;False;2;P = T2?;ST2_high_5;2;Same;high;96;132;132;f;v;1;f;b;527.5086999999985
907uda#;124;False;2;P = T1?;ST2_low_5;2;Same;low;96;154;154;f;v;1;j;b;1053.6935999998605
907uda#;125;False;2;P = T1?;ST1_low_3;1;Same;low;70;112;70;f;v;1;f;b;495.32019999969634
907uda#;126;False;2;P = T2?;ST1_high_6;1;Same;high;132;96;132;f;v;0;f;b;448.1535999998414
907uda#;127;False;2;P = T2?;ST1_low_1;1;Same;low;82;132;82;f;v;1;j;b;694.1839999999502
907uda#;128;False;2;P = T2?;ST2_high_2;2;Same;high;112;82;82;f;v;1;f;b;634.1603999999279
907uda#;129;False;2;P = T1?;ST1_high_3;1;Same;high;70;96;70;f;v;1;f;b;509.819399999742
907uda#;130;False;2;P = T1?;ST2_high_1;2;Same;high;82;112;112;f;v;1;j;b;1215.2196000001823
907uda#;131;False;2;P = T1?;ST1_low_4;1;Same;low;112;70;112;f;v;1;f;b;373.5305000000153
907uda#;132;False;2;P = T1?;ST2_high_3;2;Same;high;70;96;96;f;v;1;j;b;593.7091999999211
907uda#;133;False;2;P = T2?;ST1_high_2;1;Same;high;112;82;112;f;v;0;f;b;584.5906999998078
907uda#;134;False;2;P = T2?;ST2_high_1;2;Same;high;82;112;112;f;v;1;f;b;470.32190000027185
907uda#;135;False;2;P = T1?;STb_5;0;Same;None;112;112;112;f;v;1;f;b;255.07390000029773
907uda#;136;False;2;P = T1?;DT1_low_2;1;Different;low;132;82;154;f;v;0;f;b;459.8688000000948
907uda#;137;False;2;P = T1?;STb_2;0;Same;None;70;70;70;f;v;0;j;b;532.495000000381
907uda#;138;False;2;P = T1?;ST1_low_2;1;Same;low;132;82;132;f;v;1;f;b;446.9894000003478
907uda#;139;False;2;P = T2?;ST1_high_4;1;Same;high;96;70;96;f;v;1;j;b;803.3471999997346
907uda#;140;False;2;P = T2?;ST2_high_2;2;Same;high;112;82;82;f;v;1;f;b;1370.4571999996915
907uda#;141;False;2;P = T2?;ST1_high_3;1;Same;high;70;96;70;f;v;1;j;b;801.3530000007449
907uda#;142;False;2;P = T2?;ST2_low_5;2;Same;low;96;154;154;f;v;1;f;b;441.42379999993864
907uda#;143;False;2;P = T1?;ST2_low_4;2;Same;low;112;70;70;f;v;1;j;b;644.1439000000173
907uda#;144;False;2;P = T1?;DT2_low_5;2;Different;low;96;154;180;f;v;1;j;b;1657.4805000000197
907uda#;145;False;2;P = T1?;ST2_low_4;2;Same;low;112;70;70;f;v;0;f;v;687.749900000199
907uda#;146;False;2;P = T2?;ST1_low_2;1;Same;low;132;82;132;f;v;1;j;b;727.3992000000362
907uda#;147;False;2;P = T2?;ST1_high_5;1;Same;high;96;132;96;f;v;1;j;b;265.67469999918103
907uda#;148;False;2;P = T2?;ST1_high_3;1;Same;high;70;96;70;f;v;0;f;b;303.5760000002483
907uda#;149;False;2;P = T2?;STb_8;0;Same;None;180;180;180;f;v;1;f;b;331.37299999998504
907uda#;150;False;2;P = T1?;ST1_low_1;1;Same;low;82;132;82;f;v;1;f;b;452.11789999939356
907uda#;151;False;2;P = T1?;ST2_low_2;2;Same;low;132;82;82;f;v;1;j;b;772.999400000117
907uda#;152;False;2;P = T2?;ST1_high_2;1;Same;high;112;82;112;f;v;1;j;b;575.5191999996896
907uda#;153;False;2;P = T2?;ST1_high_4;1;Same;high;96;70;96;f;v;0;f;b;382.25749999946856
907uda#;154;False;2;P = T2?;ST1_high_1;1;Same;high;82;112;82;f;v;1;j;b;732.3753999999099
907uda#;155;False;2;P = T2?;ST1_high_1;1;Same;high;82;112;82;f;v;1;j;b;680.5616000001464
907uda#;156;False;2;P = T1?;ST1_low_1;1;Same;low;82;132;82;f;v;1;f;v;925.111300000026
907uda#;157;False;2;P = T2?;ST1_low_3;1;Same;low;70;112;70;f;v;1;j;b;807.0252999996228
907uda#;158;False;2;P = T2?;ST1_low_5;1;Same;low;96;154;96;f;v;0;f;n;954.8049000004539
907uda#;159;False;2;P = T2?;ST2_high_5;2;Same;high;96;132;132;f;v;1;f;b;478.8204999995287
907uda#;160;False;2;P = T1?;ST2_high_2;2;Same;high;112;82;82;f;v;1;j;b;782.865899999706
907uda#;161;False;2;P = T2?;ST2_high_3;2;Same;high;70;96;96;f;v;1;f;b;639.4509000001563
907uda#;162;False;2;P = T1?;ST1_low_6;1;Same;low;154;96;154;f;v;0;j;b;433.1569000005402
907uda#;163;False;2;P = T2?;ST2_high_4;2;Same;high;96;70;70;f;v;1;f;b;629.4471000001067
907uda#;164;False;2;P = T2?;ST2_high_4;2;Same;high;96;70;70;f;v;1;f;b;718.2268000005934
907uda#;165;False;2;P = T1?;ST1_low_1;1;Same;low;82;132;82;f;v;0;j;b;880.9006000001318
907uda#;166;False;2;P = T2?;ST2_low_6;2;Same;low;154;96;96;f;v;1;f;n;526.8910000004325
907uda#;167;False;2;P = T2?;ST2_high_5;2;Same;high;96;132;132;f;v;1;f;b;464.73880000030476
907uda#;168;False;2;P = T1?;ST2_high_1;2;Same;high;82;112;112;f;v;0;f;b;427.86470000010013
907uda#;169;False;2;P = T2?;ST1_low_4;1;Same;low;112;70;112;f;v;1;j;b;611.8459999997867
907uda#;170;False;2;P = T2?;ST2_low_3;2;Same;low;70;112;112;f;v;1;f;b;1189.8898999997982
907uda#;171;False;2;P = T2?;ST2_high_3;2;Same;high;70;96;96;f;v;1;f;b;378.4107000001313
907uda#;172;False;2;P = T2?;ST2_low_2;2;Same;low;132;82;82;f;v;1;f;n;326.28459999978077
907uda#;173;False;2;P = T1?;ST1_low_5;1;Same;low;96;154;96;f;v;1;f;b;654.4426999998905
907uda#;174;False;2;P = T1?;ST1_high_6;1;Same;high;132;96;132;f;v;0;j;b;320.631599999615
907uda#;175;False;2;P = T1?;ST1_high_1;1;Same;high;82;112;82;f;v;1;f;b;346.474599999965
907uda#;176;False;2;P = T1?;ST1_low_4;1;Same;low;112;70;112;f;v;1;f;b;560.7778000003236
