p_code;trial_nr;practice;block;question;condition;seqPos;Same_or_Diff;ITS;T1_hz;T2_hz;P_hz;yes_key;sure_key;correct;yes_no;rating;resp_time
2wht38!;1;True;1;P != T1?;STb_6;0;Same;None;132;132;132;j;v;1;f;v;37359.29819999728
2wht38!;2;True;1;P != T2?;STb_5;0;Same;None;112;112;112;j;v;1;f;v;2981.8003000000317
2wht38!;3;True;1;P != T1?;ST1_high_3;1;Same;high;70;96;70;j;v;1;f;b;2347.556299999269
2wht38!;4;True;1;P != T2?;ST2_high_4;2;Same;high;96;70;70;j;v;1;f;b;1823.6801000020932
2wht38!;5;True;1;P != T2?;ST1_low_1;1;Same;low;82;132;82;j;v;0;f;n;17437.462800000503
2wht38!;6;True;1;P != T1?;STb_3;0;Same;None;82;82;82;j;v;1;f;v;3210.044799998286
2wht38!;7;True;1;P != T1?;DT1_high_6;1;Different;high;132;96;154;j;v;0;f;b;1638.7536999973236
2wht38!;8;True;1;P != T2?;ST1_low_6;1;Same;low;154;96;154;j;v;0;f;b;3661.9255999976303
2wht38!;9;True;1;P != T2?;STb_2;0;Same;None;70;70;70;j;v;1;f;b;1907.651599998644
2wht38!;10;True;1;P != T1?;ST2_low_5;2;Same;low;96;154;154;j;v;1;j;b;7283.823400000983
2wht38!;11;True;1;P != T1?;ST1_low_4;1;Same;low;112;70;112;j;v;1;f;v;5563.773199999559
2wht38!;12;True;1;P != T2?;DT1_low_3;1;Different;low;70;112;60;j;v;1;j;b;1690.0401999992027
2wht38!;13;True;1;P != T1?;ST2_high_6;2;Same;high;132;96;96;j;v;0;f;v;763.477000000421
2wht38!;14;True;1;P != T1?;DT1_low_6;1;Different;low;154;96;180;j;v;1;j;v;2665.6143000000156
2wht38!;15;True;1;P != T2?;ST2_low_5;2;Same;low;96;154;154;j;v;0;j;b;2405.477399999654
2wht38!;16;True;1;P != T2?;DT2_high_1;2;Different;high;82;112;132;j;v;0;f;v;2208.8042000032146
p_code;trial_nr;practice;block;question;condition;seqPos;Same_or_Diff;ITS;T1_hz;T2_hz;P_hz;yes_key;sure_key;correct;yes_no;rating;resp_time
2wht38!;1;False;1;P != T1?;ST1_low_3;1;Same;low;70;112;70;j;v;1;f;b;2988.6971000014455
2wht38!;2;False;1;P != T1?;ST1_low_1;1;Same;low;82;132;82;j;v;1;f;v;2624.431400003232
2wht38!;3;False;1;P != T2?;ST2_high_3;2;Same;high;70;96;96;j;v;1;f;b;2215.0172000001476
2wht38!;4;False;1;P != T1?;ST2_high_2;2;Same;high;112;82;82;j;v;1;j;b;3774.0059999996447
2wht38!;5;False;1;P != T2?;ST2_low_5;2;Same;low;96;154;154;j;v;1;f;b;3033.475100000942
2wht38!;6;False;1;P != T1?;ST1_low_4;1;Same;low;112;70;112;j;v;0;j;b;2068.529199998011
2wht38!;7;False;1;P != T1?;ST2_low_1;2;Same;low;82;132;132;j;v;1;j;b;4701.697899999999
2wht38!;8;False;1;P != T1?;DT1_low_1;1;Different;low;82;132;70;j;v;1;j;b;4120.191599999089
2wht38!;9;False;1;P != T1?;ST2_low_2;2;Same;low;132;82;82;j;v;0;f;b;3634.2017999995733
2wht38!;10;False;1;P != T1?;ST1_low_3;1;Same;low;70;112;70;j;v;1;f;b;1410.4105999977037
2wht38!;11;False;1;P != T2?;ST2_low_6;2;Same;low;154;96;96;j;v;0;j;b;2261.797299997852
2wht38!;12;False;1;P != T1?;ST2_low_1;2;Same;low;82;132;132;j;v;0;f;b;1562.2012999992876
2wht38!;13;False;1;P != T1?;ST1_high_5;1;Same;high;96;132;96;j;v;1;f;b;844.3431000014243
2wht38!;14;False;1;P != T1?;ST1_high_3;1;Same;high;70;96;70;j;v;1;f;b;2307.8300999986823
2wht38!;15;False;1;P != T2?;ST2_high_4;2;Same;high;96;70;70;j;v;0;j;b;4444.64169999992
2wht38!;16;False;1;P != T1?;ST2_high_1;2;Same;high;82;112;112;j;v;0;f;b;5218.835800002125
2wht38!;17;False;1;P != T2?;ST2_high_1;2;Same;high;82;112;112;j;v;0;j;b;2516.921000002185
2wht38!;18;False;1;P != T2?;ST1_low_4;1;Same;low;112;70;112;j;v;1;j;b;2865.21250000078
2wht38!;19;False;1;P != T1?;ST1_low_2;1;Same;low;132;82;132;j;v;1;f;b;4533.619199999521
2wht38!;20;False;1;P != T2?;ST1_high_1;1;Same;high;82;112;82;j;v;1;j;b;1328.0836000012641
2wht38!;21;False;1;P != T1?;ST2_low_5;2;Same;low;96;154;154;j;v;1;j;b;1187.9763999968418
2wht38!;22;False;1;P != T1?;STb_7;0;Same;None;154;154;154;j;v;1;f;v;1999.519599998166
2wht38!;23;False;1;P != T1?;ST2_low_6;2;Same;low;154;96;96;j;v;0;f;v;4304.65120000008
2wht38!;24;False;1;P != T2?;ST2_high_3;2;Same;high;70;96;96;j;v;1;f;b;2446.385300001566
2wht38!;25;False;1;P != T1?;ST2_high_4;2;Same;high;96;70;70;j;v;0;f;b;5003.596700000344
2wht38!;26;False;1;P != T2?;ST2_low_1;2;Same;low;82;132;132;j;v;1;f;b;3013.5650000011083
2wht38!;27;False;1;P != T1?;ST2_high_3;2;Same;high;70;96;96;j;v;1;j;b;1497.7624999992258
2wht38!;28;False;1;P != T2?;ST2_high_2;2;Same;high;112;82;82;j;v;0;j;b;3893.0708000007144
2wht38!;29;False;1;P != T2?;ST1_low_3;1;Same;low;70;112;70;j;v;0;f;v;2087.951899997279
2wht38!;30;False;1;P != T1?;ST1_low_5;1;Same;low;96;154;96;j;v;1;f;b;2772.083699997893
2wht38!;31;False;1;P != T2?;DT2_high_1;2;Different;high;82;112;132;j;v;1;j;b;3176.682299999811
2wht38!;32;False;1;P != T1?;ST2_low_2;2;Same;low;132;82;82;j;v;1;j;b;3993.124999997235
2wht38!;33;False;1;P != T2?;ST2_low_3;2;Same;low;70;112;112;j;v;1;f;b;2049.6535999991465
2wht38!;34;False;1;P != T1?;ST2_high_4;2;Same;high;96;70;70;j;v;1;j;b;2112.1947999999975
2wht38!;35;False;1;P != T2?;ST2_high_2;2;Same;high;112;82;82;j;v;0;j;v;2886.450000001787
2wht38!;36;False;1;P != T1?;ST2_high_1;2;Same;high;82;112;112;j;v;0;f;b;1890.1782000029925
2wht38!;37;False;1;P != T1?;DT1_high_1;1;Different;high;82;112;70;j;v;0;f;v;4359.6324999998615
2wht38!;38;False;1;P != T2?;ST1_low_6;1;Same;low;154;96;154;j;v;0;f;b;1858.306400001311
2wht38!;39;False;1;P != T2?;STb_3;0;Same;None;82;82;82;j;v;1;f;v;1560.0062000012258
2wht38!;40;False;1;P != T2?;STb_1;0;Same;None;60;60;60;j;v;1;f;b;1504.7021999998833
2wht38!;41;False;1;P != T2?;ST1_low_2;1;Same;low;132;82;132;j;v;1;j;b;1135.085000001709
2wht38!;42;False;1;P != T1?;ST2_high_3;2;Same;high;70;96;96;j;v;0;f;v;2868.9970000014
2wht38!;43;False;1;P != T2?;ST1_low_3;1;Same;low;70;112;70;j;v;0;f;b;5109.840199998871
2wht38!;44;False;1;P != T2?;ST2_high_1;2;Same;high;82;112;112;j;v;0;j;b;3642.2377999988385
2wht38!;45;False;1;P != T2?;ST1_high_2;1;Same;high;112;82;112;j;v;0;f;v;2088.0803000000014
2wht38!;46;False;1;P != T2?;ST1_high_6;1;Same;high;132;96;132;j;v;1;j;v;5230.239799999254
2wht38!;47;False;1;P != T1?;ST1_high_2;1;Same;high;112;82;112;j;v;1;f;n;2758.1797999991977
2wht38!;48;False;1;P != T2?;DT1_low_2;1;Different;low;132;82;154;j;v;1;j;b;5046.025899999222
2wht38!;49;False;1;P != T2?;STb_2;0;Same;None;70;70;70;j;v;0;j;b;3057.7316000017163
2wht38!;50;False;1;P != T2?;ST1_high_4;1;Same;high;96;70;96;j;v;0;f;n;3126.4626999982283
2wht38!;51;False;1;P != T2?;ST1_high_5;1;Same;high;96;132;96;j;v;1;j;b;4100.642599998537
2wht38!;52;False;1;P != T1?;ST2_low_3;2;Same;low;70;112;112;j;v;1;j;v;1866.2890000014158
2wht38!;53;False;1;P != T1?;ST1_low_1;1;Same;low;82;132;82;j;v;0;j;b;5518.747000001895
2wht38!;54;False;1;P != T2?;ST1_high_6;1;Same;high;132;96;132;j;v;1;j;b;2129.630499999621
2wht38!;55;False;1;P != T2?;ST1_high_4;1;Same;high;96;70;96;j;v;1;j;n;4570.134000001417
2wht38!;56;False;1;P != T1?;ST1_low_4;1;Same;low;112;70;112;j;v;1;f;b;2199.903799999447
2wht38!;57;False;1;P != T1?;STb_6;0;Same;None;132;132;132;j;v;0;j;b;2658.60210000028
2wht38!;58;False;1;P != T1?;ST2_low_1;2;Same;low;82;132;132;j;v;1;j;b;1898.5356999983196
2wht38!;59;False;1;P != T1?;ST1_low_2;1;Same;low;132;82;132;j;v;0;j;b;2149.726899999223
2wht38!;60;False;1;P != T2?;ST2_high_2;2;Same;high;112;82;82;j;v;0;j;b;4240.958999998838
2wht38!;61;False;1;P != T2?;ST2_low_3;2;Same;low;70;112;112;j;v;1;f;b;6401.04440000141
2wht38!;62;False;1;P != T2?;ST2_low_5;2;Same;low;96;154;154;j;v;1;f;b;1451.3328000030015
2wht38!;63;False;1;P != T2?;ST1_low_5;1;Same;low;96;154;96;j;v;1;j;v;1629.1669999991427
2wht38!;64;False;1;P != T2?;ST2_low_5;2;Same;low;96;154;154;j;v;1;f;v;1303.598399998009
2wht38!;65;False;1;P != T1?;ST2_low_6;2;Same;low;154;96;96;j;v;1;j;n;8147.45000000039
2wht38!;66;False;1;P != T1?;ST1_high_5;1;Same;high;96;132;96;j;v;1;f;b;3392.525700000988
2wht38!;67;False;1;P != T1?;ST2_high_3;2;Same;high;70;96;96;j;v;1;j;b;1493.919399999868
2wht38!;68;False;1;P != T1?;ST2_low_3;2;Same;low;70;112;112;j;v;1;j;n;2860.6985000005807
2wht38!;69;False;1;P != T1?;ST1_low_6;1;Same;low;154;96;154;j;v;1;f;b;15016.17719999922
2wht38!;70;False;1;P != T2?;ST2_low_2;2;Same;low;132;82;82;j;v;0;j;n;6666.125799998554
2wht38!;71;False;1;P != T2?;ST1_high_2;1;Same;high;112;82;112;j;v;1;j;b;3622.0193000008294
2wht38!;72;False;1;P != T2?;ST2_high_6;2;Same;high;132;96;96;j;v;1;f;b;2375.043899999582
2wht38!;73;False;1;P != T2?;ST2_high_4;2;Same;high;96;70;70;j;v;1;f;b;1761.5848999994341
2wht38!;74;False;1;P != T1?;DT1_low_6;1;Different;low;154;96;180;j;v;0;f;n;2569.3321999970067
2wht38!;75;False;1;P != T2?;STb_4;0;Same;None;96;96;96;j;v;1;f;b;1231.0176999999385
2wht38!;76;False;1;P != T1?;ST1_high_1;1;Same;high;82;112;82;j;v;1;f;b;950.1517999997304
2wht38!;77;False;1;P != T1?;ST1_low_6;1;Same;low;154;96;154;j;v;1;f;b;1525.35429999989
2wht38!;78;False;1;P != T2?;ST1_high_2;1;Same;high;112;82;112;j;v;1;j;n;3631.642300002568
2wht38!;79;False;1;P != T2?;ST1_low_2;1;Same;low;132;82;132;j;v;0;f;b;1978.0279000005976
2wht38!;80;False;1;P != T1?;STb_1;0;Same;None;60;60;60;j;v;1;f;v;979.5094000000972
2wht38!;81;False;1;P != T2?;DT2_low_3;2;Different;low;70;112;132;j;v;0;f;b;1163.9996000012616
2wht38!;82;False;1;P != T1?;ST1_low_1;1;Same;low;82;132;82;j;v;1;f;b;719.9077000004763
2wht38!;83;False;1;P != T1?;ST2_low_4;2;Same;low;112;70;70;j;v;0;f;b;2289.7292999987258
2wht38!;84;False;1;P != T2?;STb_7;0;Same;None;154;154;154;j;v;0;j;n;4745.926300001884
2wht38!;85;False;1;P != T1?;ST2_high_2;2;Same;high;112;82;82;j;v;1;j;b;2810.4875999997603
2wht38!;86;False;1;P != T2?;ST2_high_4;2;Same;high;96;70;70;j;v;1;f;b;5337.352799997461
2wht38!;87;False;1;P != T2?;DT1_high_4;1;Different;high;96;70;112;j;v;1;j;b;3349.589000001288
2wht38!;88;False;1;P != T1?;ST2_low_2;2;Same;low;132;82;82;j;v;1;j;v;1529.9717000016244
2wht38!;89;False;1;P != T1?;STb_8;0;Same;None;180;180;180;j;v;1;f;b;923.4595999987505
2wht38!;90;False;1;P != T2?;ST1_low_5;1;Same;low;96;154;96;j;v;0;f;n;2190.2996999997413
2wht38!;91;False;1;P != T1?;STb_5;0;Same;None;112;112;112;j;v;1;f;b;1106.7931999969005
2wht38!;92;False;1;P != T1?;DT1_low_4;1;Different;low;112;70;132;j;v;1;j;n;6388.016299999435
2wht38!;93;False;1;P != T1?;ST1_low_5;1;Same;low;96;154;96;j;v;1;f;b;2943.3095999993384
2wht38!;94;False;1;P != T1?;ST1_high_6;1;Same;high;132;96;132;j;v;1;f;b;2627.980299999763
2wht38!;95;False;1;P != T2?;ST2_low_6;2;Same;low;154;96;96;j;v;1;f;v;1093.4052999982669
2wht38!;96;False;1;P != T2?;ST1_low_1;1;Same;low;82;132;82;j;v;1;j;v;1127.848800002539
2wht38!;97;False;1;P != T2?;ST2_low_3;2;Same;low;70;112;112;j;v;0;j;b;1216.1296999984188
2wht38!;98;False;1;P != T2?;DT1_low_4;1;Different;low;112;70;132;j;v;1;j;n;1527.6740999979666
2wht38!;99;False;1;P != T2?;ST1_high_1;1;Same;high;82;112;82;j;v;1;j;v;4966.12720000121
2wht38!;100;False;1;P != T1?;DT2_high_5;2;Different;high;96;132;154;j;v;1;j;v;2303.806700001587
2wht38!;101;False;1;P != T2?;ST1_low_6;1;Same;low;154;96;154;j;v;1;j;b;6926.920599998994
2wht38!;102;False;1;P != T1?;STb_2;0;Same;None;70;70;70;j;v;1;f;b;2426.9691000008606
2wht38!;103;False;1;P != T2?;ST1_low_4;1;Same;low;112;70;112;j;v;1;j;b;1887.516399998276
2wht38!;104;False;1;P != T2?;ST2_low_1;2;Same;low;82;132;132;j;v;1;f;n;2109.0860000003886
2wht38!;105;False;1;P != T2?;ST2_low_2;2;Same;low;132;82;82;j;v;0;j;b;2833.330699999351
2wht38!;106;False;1;P != T1?;STb_3;0;Same;None;82;82;82;j;v;1;f;b;2126.579899999342
2wht38!;107;False;1;P != T1?;ST1_high_3;1;Same;high;70;96;70;j;v;1;f;b;1255.4436000027636
2wht38!;108;False;1;P != T1?;ST2_low_4;2;Same;low;112;70;70;j;v;1;j;n;1998.4865999977046
2wht38!;109;False;1;P != T2?;ST2_high_5;2;Same;high;96;132;132;j;v;1;f;b;3548.3162999989872
2wht38!;110;False;1;P != T1?;ST2_high_6;2;Same;high;132;96;96;j;v;0;f;b;1339.678600001207
2wht38!;111;False;1;P != T1?;ST2_high_5;2;Same;high;96;132;132;j;v;0;f;b;1310.909100000572
2wht38!;112;False;1;P != T2?;ST1_low_1;1;Same;low;82;132;82;j;v;1;j;n;2039.4429000007221
2wht38!;113;False;1;P != T1?;ST2_high_1;2;Same;high;82;112;112;j;v;1;j;v;1306.1869999983173
2wht38!;114;False;1;P != T1?;ST2_low_6;2;Same;low;154;96;96;j;v;1;j;b;1381.7478999990271
2wht38!;115;False;1;P != T2?;ST2_low_4;2;Same;low;112;70;70;j;v;1;f;b;2598.5001000008197
2wht38!;116;False;1;P != T2?;ST1_high_5;1;Same;high;96;132;96;j;v;1;j;v;2744.7570000003907
2wht38!;117;False;1;P != T2?;STb_5;0;Same;None;112;112;112;j;v;1;f;b;2078.099700000166
2wht38!;118;False;1;P != T2?;ST1_high_3;1;Same;high;70;96;70;j;v;0;f;b;2304.4741000012436
2wht38!;119;False;1;P != T1?;ST2_low_3;2;Same;low;70;112;112;j;v;1;j;b;6361.903400000301
2wht38!;120;False;1;P != T1?;ST1_high_1;1;Same;high;82;112;82;j;v;1;f;b;3482.820900000661
2wht38!;121;False;1;P != T2?;STb_8;0;Same;None;180;180;180;j;v;1;f;v;2470.13700000025
2wht38!;122;False;1;P != T1?;ST1_low_2;1;Same;low;132;82;132;j;v;1;f;v;5683.517599998595
2wht38!;123;False;1;P != T1?;ST1_high_6;1;Same;high;132;96;132;j;v;1;f;v;379.09189999845694
2wht38!;124;False;1;P != T2?;DT1_high_3;1;Different;high;70;96;60;j;v;0;f;n;2987.4583999990136
2wht38!;125;False;1;P != T1?;DT2_low_5;2;Different;low;96;154;180;j;v;1;j;v;1402.998599998682
2wht38!;126;False;1;P != T1?;ST1_high_2;1;Same;high;112;82;112;j;v;1;f;v;3939.9267000007967
2wht38!;127;False;1;P != T2?;ST1_low_6;1;Same;low;154;96;154;j;v;1;j;b;6168.585400002485
2wht38!;128;False;1;P != T1?;ST1_low_5;1;Same;low;96;154;96;j;v;1;f;v;2130.6120000008377
2wht38!;129;False;1;P != T2?;ST1_high_3;1;Same;high;70;96;70;j;v;1;j;n;2221.434800001589
2wht38!;130;False;1;P != T1?;ST1_low_3;1;Same;low;70;112;70;j;v;1;f;v;1433.2262000025366
2wht38!;131;False;1;P != T2?;STb_6;0;Same;None;132;132;132;j;v;0;j;b;2289.755599998898
2wht38!;132;False;1;P != T2?;ST2_low_4;2;Same;low;112;70;70;j;v;1;f;v;7120.5351000025985
2wht38!;133;False;1;P != T2?;ST2_high_5;2;Same;high;96;132;132;j;v;1;f;b;1096.891200002574
2wht38!;134;False;1;P != T1?;ST2_high_6;2;Same;high;132;96;96;j;v;0;f;n;3687.1642000005522
2wht38!;135;False;1;P != T1?;DT2_high_3;2;Different;high;70;96;112;j;v;1;j;n;841.5984999992361
2wht38!;136;False;1;P != T2?;ST1_low_2;1;Same;low;132;82;132;j;v;1;j;n;3985.0956999980554
2wht38!;137;False;1;P != T1?;ST2_high_4;2;Same;high;96;70;70;j;v;1;j;v;3794.598500000575
2wht38!;138;False;1;P != T2?;ST2_high_6;2;Same;high;132;96;96;j;v;1;f;n;7134.479600001214
2wht38!;139;False;1;P != T1?;ST1_low_4;1;Same;low;112;70;112;j;v;1;f;n;4326.4105999987805
2wht38!;140;False;1;P != T2?;ST1_low_4;1;Same;low;112;70;112;j;v;1;j;v;1541.9834999993327
2wht38!;141;False;1;P != T1?;ST2_low_5;2;Same;low;96;154;154;j;v;1;j;v;4474.187399999209
2wht38!;142;False;1;P != T2?;ST2_low_4;2;Same;low;112;70;70;j;v;1;f;v;2061.7500000007567
2wht38!;143;False;1;P != T1?;ST2_low_5;2;Same;low;96;154;154;j;v;1;j;v;1826.0516000009375
2wht38!;144;False;1;P != T2?;DT1_low_3;1;Different;low;70;112;60;j;v;1;j;v;1452.439200002118
2wht38!;145;False;1;P != T1?;ST1_high_1;1;Same;high;82;112;82;j;v;1;f;n;4024.51690000089
2wht38!;146;False;1;P != T1?;ST1_high_2;1;Same;high;112;82;112;j;v;1;f;v;4819.6212999973795
2wht38!;147;False;1;P != T2?;ST2_low_1;2;Same;low;82;132;132;j;v;1;f;v;2784.297300000617
2wht38!;148;False;1;P != T2?;ST1_high_3;1;Same;high;70;96;70;j;v;1;j;n;10883.971900002507
2wht38!;149;False;1;P != T1?;ST2_high_6;2;Same;high;132;96;96;j;v;0;f;n;2962.118899999041
2wht38!;150;False;1;P != T2?;ST2_high_6;2;Same;high;132;96;96;j;v;1;f;b;2842.2308999979577
2wht38!;151;False;1;P != T1?;ST1_high_4;1;Same;high;96;70;96;j;v;1;f;b;2049.0854999989097
2wht38!;152;False;1;P != T2?;ST1_high_5;1;Same;high;96;132;96;j;v;1;j;v;3534.1360999991593
2wht38!;153;False;1;P != T1?;ST2_high_5;2;Same;high;96;132;132;j;v;1;j;v;5051.408999999694
2wht38!;154;False;1;P != T1?;DT1_high_6;1;Different;high;132;96;154;j;v;1;j;n;4368.017299999337
2wht38!;155;False;1;P != T1?;STb_4;0;Same;None;96;96;96;j;v;1;f;v;1162.4575999994704
2wht38!;156;False;1;P != T2?;ST1_high_4;1;Same;high;96;70;96;j;v;0;f;b;3305.781399998523
2wht38!;157;False;1;P != T2?;ST1_low_1;1;Same;low;82;132;82;j;v;1;j;v;1336.57569999923
2wht38!;158;False;1;P != T2?;ST2_high_3;2;Same;high;70;96;96;j;v;1;f;b;1824.2202999972505
2wht38!;159;False;1;P != T2?;DT2_low_1;2;Different;low;82;132;154;j;v;0;f;n;2360.0697000001674
2wht38!;160;False;1;P != T1?;ST2_high_2;2;Same;high;112;82;82;j;v;1;j;n;745.4032999994524
2wht38!;161;False;1;P != T2?;ST2_high_1;2;Same;high;82;112;112;j;v;1;f;b;960.5444000007992
2wht38!;162;False;1;P != T1?;ST2_high_5;2;Same;high;96;132;132;j;v;1;j;n;2848.9687999972375
2wht38!;163;False;1;P != T2?;ST1_high_6;1;Same;high;132;96;132;j;v;0;f;n;3579.9167999975907
2wht38!;164;False;1;P != T1?;ST1_high_6;1;Same;high;132;96;132;j;v;1;f;b;2356.678300002386
2wht38!;165;False;1;P != T1?;ST1_high_3;1;Same;high;70;96;70;j;v;1;f;b;1878.0804999987595
2wht38!;166;False;1;P != T2?;ST1_low_5;1;Same;low;96;154;96;j;v;1;j;b;7334.439400001429
2wht38!;167;False;1;P != T2?;ST1_high_1;1;Same;high;82;112;82;j;v;1;j;b;3267.9817999996885
2wht38!;168;False;1;P != T1?;ST1_high_4;1;Same;high;96;70;96;j;v;1;f;b;3747.927599997638
2wht38!;169;False;1;P != T1?;ST1_high_4;1;Same;high;96;70;96;j;v;1;f;b;2617.132199997286
2wht38!;170;False;1;P != T1?;ST1_low_6;1;Same;low;154;96;154;j;v;1;f;b;1473.6589999993157
2wht38!;171;False;1;P != T2?;ST2_low_2;2;Same;low;132;82;82;j;v;1;f;b;3327.2004000027664
2wht38!;172;False;1;P != T2?;ST2_high_5;2;Same;high;96;132;132;j;v;1;f;b;2171.575700001995
2wht38!;173;False;1;P != T1?;ST1_high_5;1;Same;high;96;132;96;j;v;1;f;v;2302.7541000010388
2wht38!;174;False;1;P != T2?;ST1_low_3;1;Same;low;70;112;70;j;v;1;j;v;1012.6272000015888
2wht38!;175;False;1;P != T2?;ST2_low_6;2;Same;low;154;96;96;j;v;1;f;v;2640.572299998894
2wht38!;176;False;1;P != T1?;ST2_low_4;2;Same;low;112;70;70;j;v;1;j;v;1308.5051999987627
2wht38!;1;True;2;P = T2?;DT1_high_5;1;Different;high;96;132;82;j;v;1;f;v;1743.857700002991
2wht38!;2;True;2;P = T2?;ST1_low_1;1;Same;low;82;132;82;j;v;0;j;n;2887.0411999996577
2wht38!;3;True;2;P = T1?;ST2_low_4;2;Same;low;112;70;70;j;v;1;f;v;1298.2718999992358
2wht38!;4;True;2;P = T1?;ST2_high_4;2;Same;high;96;70;70;j;v;1;f;v;1137.0515000016894
2wht38!;5;True;2;P = T2?;DT1_low_4;1;Different;low;112;70;132;j;v;1;f;v;1137.1794000006048
2wht38!;6;True;2;P = T1?;DT2_low_1;2;Different;low;82;132;154;j;v;0;j;b;3337.069299999712
2wht38!;7;True;2;P = T2?;ST1_high_5;1;Same;high;96;132;96;j;v;0;j;n;1090.1388000020233
2wht38!;8;True;2;P = T1?;STb_2;0;Same;None;70;70;70;j;v;1;j;n;2432.7685000025667
2wht38!;9;True;2;P = T2?;STb_6;0;Same;None;132;132;132;j;v;1;j;n;1697.2987000008288
2wht38!;10;True;2;P = T1?;STb_5;0;Same;None;112;112;112;j;v;1;j;b;3046.3933999999426
2wht38!;11;True;2;P = T2?;ST2_high_6;2;Same;high;132;96;96;j;v;1;j;n;1673.5216000015498
2wht38!;12;True;2;P = T2?;ST2_low_3;2;Same;low;70;112;112;j;v;1;j;n;3968.075900000258
2wht38!;13;True;2;P = T1?;DT1_high_4;1;Different;high;96;70;112;j;v;0;j;b;2856.339800000569
2wht38!;14;True;2;P = T2?;STb_7;0;Same;None;154;154;154;j;v;0;f;b;2383.5586000022886
2wht38!;15;True;2;P = T1?;ST1_low_5;1;Same;low;96;154;96;j;v;1;j;n;1104.1736000006495
2wht38!;16;True;2;P = T1?;ST1_high_4;1;Same;high;96;70;96;j;v;1;j;n;1634.4390000012936
2wht38!;1;False;2;P = T1?;STb_5;0;Same;None;112;112;112;j;v;1;j;b;1770.3343000030145
2wht38!;2;False;2;P = T1?;ST2_low_5;2;Same;low;96;154;154;j;v;1;f;n;324.43159999820637
2wht38!;3;False;2;P = T2?;ST1_low_3;1;Same;low;70;112;70;j;v;1;f;v;2586.066199997731
2wht38!;4;False;2;P = T1?;ST2_high_5;2;Same;high;96;132;132;j;v;1;f;v;1566.7391999995743
2wht38!;5;False;2;P = T1?;ST1_low_2;1;Same;low;132;82;132;j;v;1;j;n;4770.122099998844
2wht38!;6;False;2;P = T2?;ST2_low_3;2;Same;low;70;112;112;j;v;0;f;n;5307.007700001122
2wht38!;7;False;2;P = T2?;ST2_low_2;2;Same;low;132;82;82;j;v;1;j;b;1803.4355999989202
2wht38!;8;False;2;P = T1?;ST1_high_6;1;Same;high;132;96;132;j;v;1;j;n;896.8774999993911
2wht38!;9;False;2;P = T1?;ST2_high_1;2;Same;high;82;112;112;j;v;1;f;v;3386.724200001481
2wht38!;10;False;2;P = T2?;STb_7;0;Same;None;154;154;154;j;v;1;j;b;1816.6244999993069
2wht38!;11;False;2;P = T1?;ST2_high_6;2;Same;high;132;96;96;j;v;0;j;n;2987.722500001837
2wht38!;12;False;2;P = T2?;ST2_high_4;2;Same;high;96;70;70;j;v;1;j;b;2375.577800001338
2wht38!;13;False;2;P = T1?;ST1_high_4;1;Same;high;96;70;96;j;v;0;f;v;1754.327300001023
2wht38!;14;False;2;P = T1?;ST1_low_5;1;Same;low;96;154;96;j;v;1;j;n;2816.549999999552
2wht38!;15;False;2;P = T1?;ST1_low_6;1;Same;low;154;96;154;j;v;0;f;b;8445.52720000138
2wht38!;16;False;2;P = T1?;ST1_high_3;1;Same;high;70;96;70;j;v;1;j;b;1594.1830000010668
2wht38!;17;False;2;P = T2?;ST2_high_2;2;Same;high;112;82;82;j;v;0;f;b;2017.1607000011136
2wht38!;18;False;2;P = T2?;ST1_high_1;1;Same;high;82;112;82;j;v;0;j;b;1593.1963000002725
2wht38!;19;False;2;P = T2?;ST1_high_1;1;Same;high;82;112;82;j;v;0;j;n;1442.118400002073
2wht38!;20;False;2;P = T2?;ST1_high_4;1;Same;high;96;70;96;j;v;1;f;v;1209.9735000010696
2wht38!;21;False;2;P = T2?;STb_8;0;Same;None;180;180;180;j;v;1;j;v;1294.650099996943
2wht38!;22;False;2;P = T1?;ST1_high_6;1;Same;high;132;96;132;j;v;1;j;b;2390.3788999996323
2wht38!;23;False;2;P = T2?;ST1_high_1;1;Same;high;82;112;82;j;v;0;j;b;1337.762200000725
2wht38!;24;False;2;P = T1?;ST1_low_2;1;Same;low;132;82;132;j;v;1;j;b;4644.742199998291
2wht38!;25;False;2;P = T2?;ST1_low_3;1;Same;low;70;112;70;j;v;0;j;n;137.8214999967895
2wht38!;26;False;2;P = T2?;ST2_low_1;2;Same;low;82;132;132;j;v;1;j;b;3615.1102999974682
2wht38!;27;False;2;P = T1?;STb_4;0;Same;None;96;96;96;j;v;1;j;b;1842.3841999974684
2wht38!;28;False;2;P = T2?;ST1_low_1;1;Same;low;82;132;82;j;v;1;f;v;1323.1720000003406
2wht38!;29;False;2;P = T1?;ST2_low_6;2;Same;low;154;96;96;j;v;1;f;b;10147.51299999989
2wht38!;30;False;2;P = T2?;DT1_high_5;1;Different;high;96;132;82;j;v;0;j;n;134.16770000185352
2wht38!;31;False;2;P = T1?;ST2_low_3;2;Same;low;70;112;112;j;v;1;f;n;9362.64569999912
2wht38!;32;False;2;P = T2?;ST1_low_2;1;Same;low;132;82;132;j;v;1;f;b;4670.190400000138
2wht38!;33;False;2;P = T2?;ST1_high_4;1;Same;high;96;70;96;j;v;1;f;v;3110.776100002113
2wht38!;34;False;2;P = T1?;ST1_high_4;1;Same;high;96;70;96;j;v;1;j;b;3648.1109999986074
2wht38!;35;False;2;P = T1?;ST2_high_4;2;Same;high;96;70;70;j;v;0;j;b;1613.64759999924
2wht38!;36;False;2;P = T2?;ST1_high_6;1;Same;high;132;96;132;j;v;1;f;b;5192.6808999996865
2wht38!;37;False;2;P = T2?;STb_6;0;Same;None;132;132;132;j;v;1;j;b;1585.9351999970386
2wht38!;38;False;2;P = T1?;ST1_high_1;1;Same;high;82;112;82;j;v;1;j;b;3249.1990999988047
2wht38!;39;False;2;P = T1?;ST1_high_5;1;Same;high;96;132;96;j;v;0;f;v;1082.8787999998895
2wht38!;40;False;2;P = T1?;ST2_low_6;2;Same;low;154;96;96;j;v;1;f;b;4038.6042000027373
2wht38!;41;False;2;P = T1?;ST1_low_1;1;Same;low;82;132;82;j;v;1;j;b;2040.5438000016147
2wht38!;42;False;2;P = T1?;STb_7;0;Same;None;154;154;154;j;v;1;j;b;1089.207199998782
2wht38!;43;False;2;P = T1?;ST1_high_1;1;Same;high;82;112;82;j;v;1;j;b;1832.2931999973662
2wht38!;44;False;2;P = T2?;ST1_low_2;1;Same;low;132;82;132;j;v;1;f;v;2256.622900000366
2wht38!;45;False;2;P = T1?;ST1_low_4;1;Same;low;112;70;112;j;v;0;f;n;1880.7154999994964
2wht38!;46;False;2;P = T1?;STb_6;0;Same;None;132;132;132;j;v;1;j;b;971.5800999983912
2wht38!;47;False;2;P = T1?;ST2_high_5;2;Same;high;96;132;132;j;v;1;f;b;2519.2099999985658
2wht38!;48;False;2;P = T1?;ST1_low_3;1;Same;low;70;112;70;j;v;1;j;v;1630.2842000004603
2wht38!;49;False;2;P = T2?;ST2_high_4;2;Same;high;96;70;70;j;v;1;j;b;1524.4146000004548
2wht38!;50;False;2;P = T2?;ST2_high_5;2;Same;high;96;132;132;j;v;1;j;b;1693.1977000022016
2wht38!;51;False;2;P = T2?;ST2_low_5;2;Same;low;96;154;154;j;v;1;j;b;6253.313299999718
2wht38!;52;False;2;P = T2?;ST1_low_1;1;Same;low;82;132;82;j;v;1;f;v;1734.2303000004904
2wht38!;53;False;2;P = T1?;ST2_high_3;2;Same;high;70;96;96;j;v;1;f;v;1787.31450000123
2wht38!;54;False;2;P = T1?;ST2_high_2;2;Same;high;112;82;82;j;v;1;f;v;1600.761899997451
2wht38!;55;False;2;P = T1?;STb_1;0;Same;None;60;60;60;j;v;1;j;n;6274.447300002066
2wht38!;56;False;2;P = T2?;ST1_high_6;1;Same;high;132;96;132;j;v;1;f;v;1615.948099999514
2wht38!;57;False;2;P = T1?;ST1_low_4;1;Same;low;112;70;112;j;v;1;j;v;1413.267399999313
2wht38!;58;False;2;P = T1?;ST2_low_3;2;Same;low;70;112;112;j;v;1;f;v;4975.2460999989125
2wht38!;59;False;2;P = T1?;ST2_high_3;2;Same;high;70;96;96;j;v;0;j;n;1547.6414999975532
2wht38!;60;False;2;P = T1?;ST2_low_6;2;Same;low;154;96;96;j;v;0;j;n;893.0310000032478
2wht38!;61;False;2;P = T2?;ST2_low_6;2;Same;low;154;96;96;j;v;1;j;b;834.1450999978406
2wht38!;62;False;2;P = T1?;STb_2;0;Same;None;70;70;70;j;v;1;j;n;787.4835000002349
2wht38!;63;False;2;P = T1?;ST1_high_4;1;Same;high;96;70;96;j;v;1;j;b;2000.10359999942
2wht38!;64;False;2;P = T1?;DT2_low_4;2;Different;low;112;70;60;j;v;1;f;v;1381.5873999992618
2wht38!;65;False;2;P = T1?;DT2_low_3;2;Different;low;70;112;132;j;v;1;f;v;1679.9823999972432
2wht38!;66;False;2;P = T1?;ST2_low_4;2;Same;low;112;70;70;j;v;0;j;n;742.1098999984679
2wht38!;67;False;2;P = T2?;ST1_low_2;1;Same;low;132;82;132;j;v;1;f;v;1109.3629999995755
2wht38!;68;False;2;P = T2?;STb_3;0;Same;None;82;82;82;j;v;1;j;b;1514.27209999747
2wht38!;69;False;2;P = T1?;DT2_low_5;2;Different;low;96;154;180;j;v;1;f;v;1766.1373000009917
2wht38!;70;False;2;P = T1?;ST1_low_1;1;Same;low;82;132;82;j;v;1;j;b;1300.0336000004609
2wht38!;71;False;2;P = T2?;ST1_low_5;1;Same;low;96;154;96;j;v;0;j;n;4545.249899998453
2wht38!;72;False;2;P = T2?;ST1_low_6;1;Same;low;154;96;154;j;v;1;f;b;5146.222299998044
2wht38!;73;False;2;P = T2?;ST2_high_5;2;Same;high;96;132;132;j;v;1;j;b;1586.3339000025007
2wht38!;74;False;2;P = T2?;ST2_low_6;2;Same;low;154;96;96;j;v;0;f;v;2538.574399997742
2wht38!;75;False;2;P = T1?;DT1_low_6;1;Different;low;154;96;180;j;v;0;j;b;5330.27029999721
2wht38!;76;False;2;P = T1?;ST2_high_4;2;Same;high;96;70;70;j;v;0;j;n;179.111000001285
2wht38!;77;False;2;P = T2?;ST2_low_1;2;Same;low;82;132;132;j;v;1;j;b;1816.1240999979782
2wht38!;78;False;2;P = T2?;ST2_high_1;2;Same;high;82;112;112;j;v;1;j;b;3561.269599998923
2wht38!;79;False;2;P = T1?;ST1_low_6;1;Same;low;154;96;154;j;v;0;f;b;3079.6831000006932
2wht38!;80;False;2;P = T2?;ST1_low_4;1;Same;low;112;70;112;j;v;1;f;b;7817.691800002649
2wht38!;81;False;2;P = T2?;DT2_low_3;2;Different;low;70;112;132;j;v;0;j;v;1147.4589999997988
2wht38!;82;False;2;P = T1?;ST2_high_1;2;Same;high;82;112;112;j;v;1;f;v;2843.7497000013536
2wht38!;83;False;2;P = T1?;ST2_low_2;2;Same;low;132;82;82;j;v;0;j;n;1663.771799998358
2wht38!;84;False;2;P = T2?;DT2_low_6;2;Different;low;154;96;82;j;v;1;f;v;1055.6335999972362
2wht38!;85;False;2;P = T2?;ST2_high_3;2;Same;high;70;96;96;j;v;1;j;n;1244.6844000005512
2wht38!;86;False;2;P = T2?;ST1_low_4;1;Same;low;112;70;112;j;v;1;f;v;1144.1956000016944
2wht38!;87;False;2;P = T2?;DT2_high_3;2;Different;high;70;96;112;j;v;0;j;b;928.3972000012
2wht38!;88;False;2;P = T2?;ST1_high_6;1;Same;high;132;96;132;j;v;1;f;b;1607.048500001838
2wht38!;89;False;2;P = T2?;ST2_high_5;2;Same;high;96;132;132;j;v;1;j;n;2180.3593000004184
2wht38!;90;False;2;P = T1?;ST2_high_3;2;Same;high;70;96;96;j;v;0;j;n;1268.9635999995517
2wht38!;91;False;2;P = T2?;ST2_high_1;2;Same;high;82;112;112;j;v;0;f;n;2142.2633999973186
2wht38!;92;False;2;P = T1?;ST2_low_5;2;Same;low;96;154;154;j;v;1;f;v;2192.4632000009296
2wht38!;93;False;2;P = T2?;ST1_high_5;1;Same;high;96;132;96;j;v;1;f;v;2469.8180000013963
2wht38!;94;False;2;P = T1?;ST1_low_5;1;Same;low;96;154;96;j;v;1;j;n;3200.737200000731
2wht38!;95;False;2;P = T2?;ST1_high_4;1;Same;high;96;70;96;j;v;1;f;b;1584.7874999999476
2wht38!;96;False;2;P = T2?;ST2_high_6;2;Same;high;132;96;96;j;v;1;j;n;1001.2544999990496
2wht38!;97;False;2;P = T2?;ST1_high_3;1;Same;high;70;96;70;j;v;1;f;b;2000.95710000096
2wht38!;98;False;2;P = T2?;ST2_low_4;2;Same;low;112;70;70;j;v;1;j;b;1603.8129999978992
2wht38!;99;False;2;P = T2?;ST2_low_4;2;Same;low;112;70;70;j;v;1;j;b;1253.2498999971722
2wht38!;100;False;2;P = T2?;ST2_low_3;2;Same;low;70;112;112;j;v;0;f;n;1939.148400000704
2wht38!;101;False;2;P = T1?;ST1_high_5;1;Same;high;96;132;96;j;v;1;j;n;3779.924900001788
2wht38!;102;False;2;P = T1?;ST1_low_3;1;Same;low;70;112;70;j;v;0;f;b;1452.4549999987357
2wht38!;103;False;2;P = T1?;ST2_high_6;2;Same;high;132;96;96;j;v;0;j;n;3839.1192000017327
2wht38!;104;False;2;P = T2?;ST2_low_6;2;Same;low;154;96;96;j;v;1;j;n;949.9121999979252
2wht38!;105;False;2;P = T2?;ST2_low_3;2;Same;low;70;112;112;j;v;1;j;n;1833.332900001551
2wht38!;106;False;2;P = T1?;ST2_low_4;2;Same;low;112;70;70;j;v;1;f;v;2508.688300000358
2wht38!;107;False;2;P = T1?;ST2_low_5;2;Same;low;96;154;154;j;v;1;f;b;5337.301399998978
2wht38!;108;False;2;P = T2?;ST1_low_6;1;Same;low;154;96;154;j;v;0;j;n;3990.8424999994168
2wht38!;109;False;2;P = T1?;ST2_low_2;2;Same;low;132;82;82;j;v;1;f;b;1836.952999998175
2wht38!;110;False;2;P = T2?;ST2_low_4;2;Same;low;112;70;70;j;v;1;j;b;1362.8592999993998
2wht38!;111;False;2;P = T2?;DT2_low_2;2;Different;low;132;82;70;j;v;1;f;b;2244.071000000986
2wht38!;112;False;2;P = T1?;DT2_low_6;2;Different;low;154;96;82;j;v;1;f;v;1536.5880999997898
2wht38!;113;False;2;P = T1?;DT2_high_2;2;Different;high;112;82;70;j;v;0;j;n;1900.36709999913
2wht38!;114;False;2;P = T2?;ST1_high_2;1;Same;high;112;82;112;j;v;0;j;n;5919.812099997216
2wht38!;115;False;2;P = T2?;ST1_high_3;1;Same;high;70;96;70;j;v;1;f;v;5796.562300001824
2wht38!;116;False;2;P = T1?;ST2_low_2;2;Same;low;132;82;82;j;v;1;f;v;2332.2299999999814
2wht38!;117;False;2;P = T2?;ST1_low_5;1;Same;low;96;154;96;j;v;0;j;v;2209.1894000004686
2wht38!;118;False;2;P = T1?;ST1_low_6;1;Same;low;154;96;154;j;v;1;j;v;2944.0278000001854
2wht38!;119;False;2;P = T2?;ST2_high_3;2;Same;high;70;96;96;j;v;0;f;v;1617.3410000010335
2wht38!;120;False;2;P = T2?;ST1_low_6;1;Same;low;154;96;154;j;v;1;f;v;2081.292700000631
2wht38!;121;False;2;P = T1?;ST2_low_1;2;Same;low;82;132;132;j;v;0;j;n;809.1077999997651
2wht38!;122;False;2;P = T2?;ST2_high_6;2;Same;high;132;96;96;j;v;0;f;b;5874.308500002371
2wht38!;123;False;2;P = T1?;ST2_low_3;2;Same;low;70;112;112;j;v;0;j;n;1836.109399999259
2wht38!;124;False;2;P = T2?;ST1_low_1;1;Same;low;82;132;82;j;v;0;j;n;1737.0186999978614
2wht38!;125;False;2;P = T1?;ST2_high_6;2;Same;high;132;96;96;j;v;1;f;b;1309.0417999992496
2wht38!;126;False;2;P = T2?;ST2_high_2;2;Same;high;112;82;82;j;v;1;j;b;1089.3666000010853
2wht38!;127;False;2;P = T2?;ST2_high_2;2;Same;high;112;82;82;j;v;0;f;b;1509.2894000008528
2wht38!;128;False;2;P = T2?;ST1_high_5;1;Same;high;96;132;96;j;v;1;f;b;2536.413400001038
2wht38!;129;False;2;P = T2?;ST1_high_5;1;Same;high;96;132;96;j;v;0;j;b;2085.1672000026156
2wht38!;130;False;2;P = T1?;ST2_high_2;2;Same;high;112;82;82;j;v;0;j;n;2416.408400000364
2wht38!;131;False;2;P = T2?;STb_1;0;Same;None;60;60;60;j;v;1;j;v;1690.7575000004726
2wht38!;132;False;2;P = T1?;DT1_low_1;1;Different;low;82;132;70;j;v;0;j;b;2045.3266999975313
2wht38!;133;False;2;P = T1?;ST2_low_1;2;Same;low;82;132;132;j;v;1;f;v;2598.364400000719
2wht38!;134;False;2;P = T2?;STb_5;0;Same;None;112;112;112;j;v;1;j;v;4288.7239000010595
2wht38!;135;False;2;P = T1?;ST2_high_1;2;Same;high;82;112;112;j;v;1;f;v;1643.1049999991956
2wht38!;136;False;2;P = T2?;ST2_high_3;2;Same;high;70;96;96;j;v;1;j;n;1330.6664999981876
2wht38!;137;False;2;P = T2?;ST2_low_5;2;Same;low;96;154;154;j;v;1;j;b;754.5264000000316
2wht38!;138;False;2;P = T2?;ST2_high_4;2;Same;high;96;70;70;j;v;1;j;b;1904.8242999997456
2wht38!;139;False;2;P = T1?;ST2_high_4;2;Same;high;96;70;70;j;v;0;j;b;2519.249900000432
2wht38!;140;False;2;P = T2?;STb_4;0;Same;None;96;96;96;j;v;1;j;b;1774.8234999999113
2wht38!;141;False;2;P = T1?;STb_8;0;Same;None;180;180;180;j;v;1;j;v;1438.5083000015584
2wht38!;142;False;2;P = T1?;ST1_high_6;1;Same;high;132;96;132;j;v;0;f;b;1540.68819999884
2wht38!;143;False;2;P = T1?;ST1_low_5;1;Same;low;96;154;96;j;v;1;j;b;1300.4306999973778
2wht38!;144;False;2;P = T1?;ST2_low_4;2;Same;low;112;70;70;j;v;1;f;v;1290.183299999626
2wht38!;145;False;2;P = T1?;ST1_low_3;1;Same;low;70;112;70;j;v;1;j;b;1653.4047999994073
2wht38!;146;False;2;P = T1?;ST1_high_1;1;Same;high;82;112;82;j;v;0;f;n;2140.2746999992814
2wht38!;147;False;2;P = T1?;ST1_low_1;1;Same;low;82;132;82;j;v;1;j;b;1510.9569000014744
2wht38!;148;False;2;P = T1?;ST1_low_2;1;Same;low;132;82;132;j;v;0;f;b;2104.892100000143
2wht38!;149;False;2;P = T1?;STb_3;0;Same;None;82;82;82;j;v;0;f;b;2456.194200000027
2wht38!;150;False;2;P = T2?;ST1_low_4;1;Same;low;112;70;112;j;v;0;j;b;1739.567900000111
2wht38!;151;False;2;P = T1?;DT1_low_2;1;Different;low;132;82;154;j;v;0;j;n;1043.2620999999926
2wht38!;152;False;2;P = T1?;ST2_high_2;2;Same;high;112;82;82;j;v;1;f;n;221.61870000127237
2wht38!;153;False;2;P = T1?;ST1_low_4;1;Same;low;112;70;112;j;v;1;j;b;2116.131900002074
2wht38!;154;False;2;P = T1?;ST1_high_5;1;Same;high;96;132;96;j;v;1;j;b;2765.045599997393
2wht38!;155;False;2;P = T2?;ST1_high_2;1;Same;high;112;82;112;j;v;1;f;b;2701.0602000009385
2wht38!;156;False;2;P = T2?;ST2_low_2;2;Same;low;132;82;82;j;v;0;f;n;436.04230000346433
2wht38!;157;False;2;P = T2?;DT1_low_4;1;Different;low;112;70;132;j;v;0;j;v;1957.589800000278
2wht38!;158;False;2;P = T2?;ST1_low_3;1;Same;low;70;112;70;j;v;0;j;n;2872.210099998483
2wht38!;159;False;2;P = T2?;DT1_high_3;1;Different;high;70;96;60;j;v;1;f;b;2733.6537999981374
2wht38!;160;False;2;P = T2?;ST1_high_2;1;Same;high;112;82;112;j;v;1;f;b;1921.008899997105
2wht38!;161;False;2;P = T1?;ST2_low_1;2;Same;low;82;132;132;j;v;1;f;b;1615.01109999881
2wht38!;162;False;2;P = T2?;DT1_low_3;1;Different;low;70;112;60;j;v;1;f;b;1817.9715000005672
2wht38!;163;False;2;P = T2?;ST1_high_3;1;Same;high;70;96;70;j;v;1;f;b;1491.5708000007726
2wht38!;164;False;2;P = T1?;ST1_high_3;1;Same;high;70;96;70;j;v;1;j;b;2452.7469000022393
2wht38!;165;False;2;P = T1?;ST1_high_2;1;Same;high;112;82;112;j;v;0;f;v;2127.8917000017827
2wht38!;166;False;2;P = T2?;ST2_low_2;2;Same;low;132;82;82;j;v;0;f;v;1066.9763000005332
2wht38!;167;False;2;P = T2?;ST2_low_1;2;Same;low;82;132;132;j;v;1;j;v;2115.155200001027
2wht38!;168;False;2;P = T2?;ST1_low_5;1;Same;low;96;154;96;j;v;1;f;b;5378.145500002574
2wht38!;169;False;2;P = T2?;ST2_low_5;2;Same;low;96;154;154;j;v;1;j;n;2165.608399998746
2wht38!;170;False;2;P = T2?;ST2_high_6;2;Same;high;132;96;96;j;v;0;f;b;2550.1976999985345
2wht38!;171;False;2;P = T1?;ST1_high_2;1;Same;high;112;82;112;j;v;0;f;b;1832.5181000000157
2wht38!;172;False;2;P = T1?;ST1_high_2;1;Same;high;112;82;112;j;v;1;j;v;897.0049999988987
2wht38!;173;False;2;P = T1?;ST2_high_5;2;Same;high;96;132;132;j;v;0;j;b;949.7206999985792
2wht38!;174;False;2;P = T2?;ST2_high_1;2;Same;high;82;112;112;j;v;1;j;b;1769.6894000000611
2wht38!;175;False;2;P = T2?;STb_2;0;Same;None;70;70;70;j;v;1;j;n;1857.1454000011727
2wht38!;176;False;2;P = T1?;ST1_high_3;1;Same;high;70;96;70;j;v;1;j;n;1575.6593000005523
