p_code;trial_nr;practice;block;question;condition;seqPos;Same_or_Diff;ITS;T1_hz;T2_hz;P_hz;yes_key;sure_key;correct;yes_no;rating;resp_time
041r!ie;1;True;1;P = T2?;ST2_low_2;2;Same;low;132;82;82;j;n;1;j;v;909.0166000000295
041r!ie;2;True;1;P = T2?;ST1_low_4;1;Same;low;112;70;112;j;n;1;f;v;1025.4993000000354
041r!ie;3;True;1;P = T2?;ST1_high_3;1;Same;high;70;96;70;j;n;1;f;v;981.1174999999821
041r!ie;4;True;1;P = T2?;ST2_low_5;2;Same;low;96;154;154;j;n;1;j;v;990.3845999999703
041r!ie;5;True;1;P = T1?;DT1_high_3;1;Different;high;70;96;60;j;n;1;f;v;1340.6211000000212
041r!ie;6;True;1;P = T1?;ST1_low_1;1;Same;low;82;132;82;j;n;1;j;v;1151.533499999971
041r!ie;7;True;1;P = T2?;STb_1;0;Same;None;60;60;60;j;n;1;j;v;353.0736000000161
041r!ie;8;True;1;P = T1?;STb_3;0;Same;None;82;82;82;j;n;1;j;b;1072.4493000000166
041r!ie;9;True;1;P = T2?;STb_4;0;Same;None;96;96;96;j;n;1;j;v;693.4521999999674
041r!ie;10;True;1;P = T1?;ST2_low_6;2;Same;low;154;96;96;j;n;0;j;v;260.21670000000086
041r!ie;11;True;1;P = T2?;DT2_high_4;2;Different;high;96;70;60;j;n;1;f;v;1373.0759000000035
041r!ie;12;True;1;P = T1?;ST1_low_5;1;Same;low;96;154;96;j;n;1;j;v;616.1943999999835
041r!ie;13;True;1;P = T2?;DT2_low_1;2;Different;low;82;132;154;j;n;0;j;v;1624.8760999999945
041r!ie;14;True;1;P = T1?;ST2_low_4;2;Same;low;112;70;70;j;n;1;f;v;715.4682999999977
041r!ie;15;True;1;P = T1?;DT1_high_5;1;Different;high;96;132;82;j;n;0;j;v;697.7116000000478
041r!ie;16;True;1;P = T1?;STb_8;0;Same;None;180;180;180;j;n;1;j;v;1001.6196000000264
p_code;trial_nr;practice;block;question;condition;seqPos;Same_or_Diff;ITS;T1_hz;T2_hz;P_hz;yes_key;sure_key;correct;yes_no;rating;resp_time
041r!ie;1;False;1;P = T1?;ST1_high_1;1;Same;high;82;112;82;j;n;1;j;b;1277.3742999999058
041r!ie;2;False;1;P = T2?;ST1_high_1;1;Same;high;82;112;82;j;n;0;j;b;1339.4535999999562
041r!ie;3;False;1;P = T1?;ST2_high_3;2;Same;high;70;96;96;j;n;0;j;b;1197.9012000000466
041r!ie;4;False;1;P = T2?;ST1_high_3;1;Same;high;70;96;70;j;n;0;j;b;834.7747000000254
041r!ie;5;False;1;P = T2?;ST2_low_6;2;Same;low;154;96;96;j;n;1;j;b;757.7054000000771
041r!ie;6;False;1;P = T2?;ST2_high_2;2;Same;high;112;82;82;j;n;1;j;n;786.770600000068
041r!ie;7;False;1;P = T1?;STb_2;0;Same;None;70;70;70;j;n;1;j;v;2025.2982000000657
041r!ie;8;False;1;P = T2?;ST2_high_2;2;Same;high;112;82;82;j;n;1;j;b;794.4801999999527
041r!ie;9;False;1;P = T2?;ST2_low_4;2;Same;low;112;70;70;j;n;1;j;b;717.0269000000644
041r!ie;10;False;1;P = T2?;ST2_low_1;2;Same;low;82;132;132;j;n;0;f;v;1051.2410999999702
041r!ie;11;False;1;P = T2?;ST1_low_2;1;Same;low;132;82;132;j;n;0;j;v;1208.6235000000443
041r!ie;12;False;1;P = T1?;ST1_high_1;1;Same;high;82;112;82;j;n;1;j;v;1653.2661999999618
041r!ie;13;False;1;P = T1?;ST1_low_6;1;Same;low;154;96;154;j;n;1;j;v;968.228300000078
041r!ie;14;False;1;P = T1?;ST2_high_5;2;Same;high;96;132;132;j;n;0;j;v;330.13900000003105
041r!ie;15;False;1;P = T1?;ST2_high_6;2;Same;high;132;96;96;j;n;0;j;v;1056.329499999947
041r!ie;16;False;1;P = T2?;ST1_low_4;1;Same;low;112;70;112;j;n;1;f;v;507.6743000000761
041r!ie;17;False;1;P = T2?;ST1_low_4;1;Same;low;112;70;112;j;n;1;f;v;749.991199999954
041r!ie;18;False;1;P = T1?;ST2_low_6;2;Same;low;154;96;96;j;n;1;f;b;763.9450000000352
041r!ie;19;False;1;P = T2?;ST1_high_5;1;Same;high;96;132;96;j;n;1;f;b;884.9030999999741
041r!ie;20;False;1;P = T1?;ST2_low_5;2;Same;low;96;154;154;j;n;1;f;v;836.1993999999413
041r!ie;21;False;1;P = T1?;ST1_high_2;1;Same;high;112;82;112;j;n;1;j;b;795.836300000019
041r!ie;22;False;1;P = T2?;ST1_high_4;1;Same;high;96;70;96;j;n;0;j;v;628.553399999987
041r!ie;23;False;1;P = T2?;ST2_high_5;2;Same;high;96;132;132;j;n;0;f;v;2024.690200000009
041r!ie;24;False;1;P = T1?;ST2_high_1;2;Same;high;82;112;112;j;n;1;f;v;951.4411999999766
041r!ie;25;False;1;P = T2?;DT1_high_5;1;Different;high;96;132;82;j;n;1;f;v;760.9168999999838
041r!ie;26;False;1;P = T2?;ST1_low_5;1;Same;low;96;154;96;j;n;0;j;v;1288.5245999999597
041r!ie;27;False;1;P = T2?;ST1_high_4;1;Same;high;96;70;96;j;n;0;j;v;1290.10750000009
041r!ie;28;False;1;P = T1?;ST2_high_5;2;Same;high;96;132;132;j;n;1;f;v;760.3129999999965
041r!ie;29;False;1;P = T2?;ST1_high_3;1;Same;high;70;96;70;j;n;1;f;v;727.351399999975
041r!ie;30;False;1;P = T2?;ST2_low_2;2;Same;low;132;82;82;j;n;1;j;b;812.0406000000457
041r!ie;31;False;1;P = T1?;ST1_low_3;1;Same;low;70;112;70;j;n;0;f;b;866.5776999999935
041r!ie;32;False;1;P = T2?;ST2_high_1;2;Same;high;82;112;112;j;n;1;j;b;886.622999999986
041r!ie;33;False;1;P = T1?;ST2_low_1;2;Same;low;82;132;132;j;n;0;j;v;1023.6591000000317
041r!ie;34;False;1;P = T1?;ST1_low_1;1;Same;low;82;132;82;j;n;1;j;v;869.6615000000065
041r!ie;35;False;1;P = T2?;ST1_high_2;1;Same;high;112;82;112;j;n;0;j;b;929.6358999999939
041r!ie;36;False;1;P = T1?;ST1_high_3;1;Same;high;70;96;70;j;n;1;j;v;1646.073900000033
041r!ie;37;False;1;P = T2?;ST2_high_4;2;Same;high;96;70;70;j;n;1;j;n;631.4300999999887
041r!ie;38;False;1;P = T1?;DT1_high_2;1;Different;high;112;82;132;j;n;1;f;b;1143.2218999999577
041r!ie;39;False;1;P = T1?;ST2_high_4;2;Same;high;96;70;70;j;n;0;j;v;567.6955999999791
041r!ie;40;False;1;P = T1?;ST2_low_5;2;Same;low;96;154;154;j;n;1;f;b;904.0338999999449
041r!ie;41;False;1;P = T1?;ST1_high_2;1;Same;high;112;82;112;j;n;0;f;b;630.4433000000245
041r!ie;42;False;1;P = T2?;ST2_high_5;2;Same;high;96;132;132;j;n;1;j;v;1944.8659000000816
041r!ie;43;False;1;P = T2?;ST1_high_1;1;Same;high;82;112;82;j;n;0;j;v;504.2548999999781
041r!ie;44;False;1;P = T1?;ST1_high_5;1;Same;high;96;132;96;j;n;0;f;v;1210.297399999945
041r!ie;45;False;1;P = T2?;ST1_low_1;1;Same;low;82;132;82;j;n;1;f;v;1402.8138999999555
041r!ie;46;False;1;P = T1?;STb_6;0;Same;None;132;132;132;j;n;1;j;b;533.9223999999376
041r!ie;47;False;1;P = T2?;ST2_high_1;2;Same;high;82;112;112;j;n;1;j;b;384.5170000000735
041r!ie;48;False;1;P = T1?;ST2_high_4;2;Same;high;96;70;70;j;n;1;f;b;930.4779999999937
041r!ie;49;False;1;P = T1?;ST2_high_1;2;Same;high;82;112;112;j;n;1;f;b;964.0208000000712
041r!ie;50;False;1;P = T1?;ST2_low_1;2;Same;low;82;132;132;j;n;1;f;b;1802.6930000000903
041r!ie;51;False;1;P = T1?;ST2_low_5;2;Same;low;96;154;154;j;n;1;f;b;929.769399999941
041r!ie;52;False;1;P = T2?;ST2_low_2;2;Same;low;132;82;82;j;n;1;j;n;636.2133999999742
041r!ie;53;False;1;P = T1?;ST2_high_2;2;Same;high;112;82;82;j;n;0;j;v;1884.559500000023
041r!ie;54;False;1;P = T1?;ST1_high_3;1;Same;high;70;96;70;j;n;0;f;v;623.0511999999635
041r!ie;55;False;1;P = T1?;ST2_high_6;2;Same;high;132;96;96;j;n;0;j;v;337.51010000003134
041r!ie;56;False;1;P = T2?;ST2_low_3;2;Same;low;70;112;112;j;n;1;j;b;1284.644900000103
041r!ie;57;False;1;P = T1?;ST1_high_4;1;Same;high;96;70;96;j;n;0;f;v;1193.9781000000949
041r!ie;58;False;1;P = T1?;ST2_low_4;2;Same;low;112;70;70;j;n;1;f;v;711.7307000000892
041r!ie;59;False;1;P = T2?;ST2_high_3;2;Same;high;70;96;96;j;n;1;j;n;678.8328000000092
041r!ie;60;False;1;P = T1?;ST1_high_4;1;Same;high;96;70;96;j;n;0;f;v;1280.3639999999632
041r!ie;61;False;1;P = T2?;ST1_low_6;1;Same;low;154;96;154;j;n;1;f;b;870.9380999998757
041r!ie;62;False;1;P = T2?;DT2_high_2;2;Different;high;112;82;70;j;n;0;j;b;855.1072000000204
041r!ie;63;False;1;P = T2?;DT2_low_3;2;Different;low;70;112;132;j;n;0;j;v;828.7213000000975
041r!ie;64;False;1;P = T1?;ST2_high_6;2;Same;high;132;96;96;j;n;0;j;v;765.5718999999408
041r!ie;65;False;1;P = T2?;ST1_high_6;1;Same;high;132;96;132;j;n;0;j;v;1564.7123999999621
041r!ie;66;False;1;P = T1?;ST2_high_2;2;Same;high;112;82;82;j;n;0;j;v;1680.5434999998852
041r!ie;67;False;1;P = T1?;ST1_low_4;1;Same;low;112;70;112;j;n;1;j;v;1155.9512000001178
041r!ie;68;False;1;P = T1?;ST1_high_5;1;Same;high;96;132;96;j;n;0;f;v;1554.9484999999095
041r!ie;69;False;1;P = T1?;ST2_low_6;2;Same;low;154;96;96;j;n;1;f;b;968.0337999998301
041r!ie;70;False;1;P = T2?;ST2_low_5;2;Same;low;96;154;154;j;n;1;j;v;893.1242000001021
041r!ie;71;False;1;P = T2?;ST2_high_1;2;Same;high;82;112;112;j;n;1;j;b;956.0238000001391
041r!ie;72;False;1;P = T1?;ST2_low_4;2;Same;low;112;70;70;j;n;1;f;b;700.0103000000308
041r!ie;73;False;1;P = T1?;ST2_low_4;2;Same;low;112;70;70;j;n;0;j;v;1066.3480000000618
041r!ie;74;False;1;P = T2?;ST2_high_6;2;Same;high;132;96;96;j;n;1;j;b;1518.3735999999044
041r!ie;75;False;1;P = T1?;ST1_high_4;1;Same;high;96;70;96;j;n;1;j;v;1454.0764999999283
041r!ie;76;False;1;P = T2?;ST2_high_3;2;Same;high;70;96;96;j;n;1;j;b;612.1458999998595
041r!ie;77;False;1;P = T1?;ST2_low_2;2;Same;low;132;82;82;j;n;1;f;v;1189.3255999998473
041r!ie;78;False;1;P = T2?;ST1_low_6;1;Same;low;154;96;154;j;n;1;f;v;613.2118000000446
041r!ie;79;False;1;P = T1?;ST1_low_3;1;Same;low;70;112;70;j;n;0;f;v;727.2014999998646
041r!ie;80;False;1;P = T2?;STb_8;0;Same;None;180;180;180;j;n;1;j;b;641.9874000000618
041r!ie;81;False;1;P = T2?;STb_3;0;Same;None;82;82;82;j;n;1;j;v;847.0935999998801
041r!ie;82;False;1;P = T1?;STb_7;0;Same;None;154;154;154;j;n;1;j;b;298.3214000000771
041r!ie;83;False;1;P = T2?;ST2_low_5;2;Same;low;96;154;154;j;n;1;j;v;641.1909000000833
041r!ie;84;False;1;P = T2?;ST2_low_4;2;Same;low;112;70;70;j;n;1;j;v;621.6712000000371
041r!ie;85;False;1;P = T1?;ST1_high_6;1;Same;high;132;96;132;j;n;1;j;v;1145.3483999998753
041r!ie;86;False;1;P = T1?;ST2_low_6;2;Same;low;154;96;96;j;n;0;j;v;571.4950000001409
041r!ie;87;False;1;P = T1?;ST1_low_5;1;Same;low;96;154;96;j;n;1;j;v;1157.7187000000322
041r!ie;88;False;1;P = T1?;ST1_low_4;1;Same;low;112;70;112;j;n;1;j;v;1469.89520000011
041r!ie;89;False;1;P = T1?;ST1_high_1;1;Same;high;82;112;82;j;n;1;j;v;1372.1848000000136
041r!ie;90;False;1;P = T1?;ST2_low_3;2;Same;low;70;112;112;j;n;0;j;b;1069.2928999999367
041r!ie;91;False;1;P = T1?;DT1_high_3;1;Different;high;70;96;60;j;n;0;j;b;503.78939999995964
041r!ie;92;False;1;P = T1?;ST1_low_3;1;Same;low;70;112;70;j;n;1;j;b;975.5915000000641
041r!ie;93;False;1;P = T2?;ST2_high_4;2;Same;high;96;70;70;j;n;1;j;b;645.8832000000712
041r!ie;94;False;1;P = T2?;ST2_low_4;2;Same;low;112;70;70;j;n;1;j;b;1503.7112999998499
041r!ie;95;False;1;P = T1?;ST1_low_6;1;Same;low;154;96;154;j;n;0;f;b;1257.3410999998487
041r!ie;96;False;1;P = T1?;DT2_high_6;2;Different;high;132;96;82;j;n;1;f;v;3087.3979999998937
041r!ie;97;False;1;P = T1?;STb_8;0;Same;None;180;180;180;j;n;1;j;b;337.5902000000224
041r!ie;98;False;1;P = T2?;ST1_low_1;1;Same;low;82;132;82;j;n;0;j;b;810.1179000000229
041r!ie;99;False;1;P = T2?;ST1_low_2;1;Same;low;132;82;132;j;n;0;j;b;1215.2290999999877
041r!ie;100;False;1;P = T2?;STb_4;0;Same;None;96;96;96;j;n;1;j;b;601.2112999999317
041r!ie;101;False;1;P = T1?;ST1_low_1;1;Same;low;82;132;82;j;n;1;j;b;814.3821999999545
041r!ie;102;False;1;P = T1?;STb_4;0;Same;None;96;96;96;j;n;1;j;b;760.4239000002053
041r!ie;103;False;1;P = T2?;ST2_low_3;2;Same;low;70;112;112;j;n;1;j;b;653.4432999999353
041r!ie;104;False;1;P = T1?;ST1_high_6;1;Same;high;132;96;132;j;n;0;f;v;744.3860999999288
041r!ie;105;False;1;P = T2?;ST1_low_3;1;Same;low;70;112;70;j;n;0;j;v;1026.3903999998547
041r!ie;106;False;1;P = T2?;ST1_low_1;1;Same;low;82;132;82;j;n;0;j;b;488.8964000001579
041r!ie;107;False;1;P = T2?;STb_2;0;Same;None;70;70;70;j;n;1;j;b;1066.0017999998672
041r!ie;108;False;1;P = T1?;ST2_low_2;2;Same;low;132;82;82;j;n;0;j;v;1547.320199999831
041r!ie;109;False;1;P = T2?;ST1_low_4;1;Same;low;112;70;112;j;n;0;j;v;825.6315999999515
041r!ie;110;False;1;P = T1?;ST2_low_2;2;Same;low;132;82;82;j;n;0;j;v;1355.746199999885
041r!ie;111;False;1;P = T2?;ST2_low_6;2;Same;low;154;96;96;j;n;1;j;v;607.0491000000402
041r!ie;112;False;1;P = T1?;ST2_high_4;2;Same;high;96;70;70;j;n;1;f;n;788.010100000065
041r!ie;113;False;1;P = T1?;ST1_high_3;1;Same;high;70;96;70;j;n;1;j;b;549.1935999998532
041r!ie;114;False;1;P = T1?;ST2_high_5;2;Same;high;96;132;132;j;n;1;f;b;979.1051999998217
041r!ie;115;False;1;P = T2?;DT1_high_4;1;Different;high;96;70;112;j;n;0;j;b;907.7441000001727
041r!ie;116;False;1;P = T2?;STb_6;0;Same;None;132;132;132;j;n;1;j;b;845.3825999999935
041r!ie;117;False;1;P = T1?;DT2_high_3;2;Different;high;70;96;112;j;n;0;j;v;1255.4426000001513
041r!ie;118;False;1;P = T2?;ST1_high_4;1;Same;high;96;70;96;j;n;0;j;b;393.7282000001687
041r!ie;119;False;1;P = T1?;ST2_low_1;2;Same;low;82;132;132;j;n;1;f;v;773.9696000001004
041r!ie;120;False;1;P = T1?;ST1_low_2;1;Same;low;132;82;132;j;n;0;f;b;527.1246999998311
041r!ie;121;False;1;P = T2?;ST1_high_6;1;Same;high;132;96;132;j;n;0;j;v;523.1154999999035
041r!ie;122;False;1;P = T1?;STb_5;0;Same;None;112;112;112;j;n;0;f;v;1429.9676000000545
041r!ie;123;False;1;P = T1?;DT2_low_2;2;Different;low;132;82;70;j;n;0;j;b;1271.0223999999926
041r!ie;124;False;1;P = T1?;ST2_high_3;2;Same;high;70;96;96;j;n;0;j;b;740.403600000036
041r!ie;125;False;1;P = T2?;ST2_high_2;2;Same;high;112;82;82;j;n;1;j;b;1376.5472000000045
041r!ie;126;False;1;P = T1?;ST2_high_2;2;Same;high;112;82;82;j;n;0;j;b;790.0878000000375
041r!ie;127;False;1;P = T2?;ST2_high_6;2;Same;high;132;96;96;j;n;1;j;b;930.9732000001532
041r!ie;128;False;1;P = T2?;DT2_low_1;2;Different;low;82;132;154;j;n;0;j;v;1475.0068999999257
041r!ie;129;False;1;P = T2?;STb_5;0;Same;None;112;112;112;j;n;1;j;b;353.1596999998783
041r!ie;130;False;1;P = T2?;ST1_low_5;1;Same;low;96;154;96;j;n;0;j;b;678.099100000054
041r!ie;131;False;1;P = T1?;ST2_low_3;2;Same;low;70;112;112;j;n;0;j;b;706.025999999838
041r!ie;132;False;1;P = T2?;ST1_low_5;1;Same;low;96;154;96;j;n;1;f;b;639.3906000000698
041r!ie;133;False;1;P = T2?;ST1_low_2;1;Same;low;132;82;132;j;n;1;f;v;494.103799999948
041r!ie;134;False;1;P = T2?;ST1_high_2;1;Same;high;112;82;112;j;n;1;f;v;1019.1918000000442
041r!ie;135;False;1;P = T2?;DT2_low_4;2;Different;low;112;70;60;j;n;0;j;n;600.7609000000684
041r!ie;136;False;1;P = T2?;ST1_high_1;1;Same;high;82;112;82;j;n;1;f;b;2020.7433000000492
041r!ie;137;False;1;P = T1?;DT1_low_2;1;Different;low;132;82;154;j;n;0;j;v;1354.0050999999949
041r!ie;138;False;1;P = T1?;ST1_high_2;1;Same;high;112;82;112;j;n;1;j;b;2043.7646000000314
041r!ie;139;False;1;P = T1?;ST1_low_5;1;Same;low;96;154;96;j;n;0;f;v;1033.16319999999
041r!ie;140;False;1;P = T1?;ST1_low_1;1;Same;low;82;132;82;j;n;1;j;v;808.6964999999964
041r!ie;141;False;1;P = T2?;ST2_low_2;2;Same;low;132;82;82;j;n;1;j;v;1373.1531999999333
041r!ie;142;False;1;P = T1?;ST1_high_6;1;Same;high;132;96;132;j;n;1;j;v;830.1636999999573
041r!ie;143;False;1;P = T2?;ST2_low_1;2;Same;low;82;132;132;j;n;1;j;b;383.23159999981726
041r!ie;144;False;1;P = T2?;ST2_low_6;2;Same;low;154;96;96;j;n;1;j;b;808.9539000000059
041r!ie;145;False;1;P = T1?;STb_1;0;Same;None;60;60;60;j;n;1;j;b;1171.2428999999247
041r!ie;146;False;1;P = T2?;ST1_high_3;1;Same;high;70;96;70;j;n;1;f;v;1888.6886000000231
041r!ie;147;False;1;P = T2?;ST1_high_6;1;Same;high;132;96;132;j;n;1;f;b;780.829600000061
041r!ie;148;False;1;P = T2?;ST1_low_6;1;Same;low;154;96;154;j;n;1;f;v;685.1679000001241
041r!ie;149;False;1;P = T2?;ST2_low_3;2;Same;low;70;112;112;j;n;1;j;b;581.32599999999
041r!ie;150;False;1;P = T2?;ST2_high_3;2;Same;high;70;96;96;j;n;1;j;b;533.3121000001029
041r!ie;151;False;1;P = T2?;ST1_high_5;1;Same;high;96;132;96;j;n;0;j;b;561.596100000088
041r!ie;152;False;1;P = T2?;STb_1;0;Same;None;60;60;60;j;n;1;j;v;798.5670000000482
041r!ie;153;False;1;P = T2?;ST2_high_5;2;Same;high;96;132;132;j;n;1;j;b;695.6015999999181
041r!ie;154;False;1;P = T2?;ST2_high_4;2;Same;high;96;70;70;j;n;1;j;b;1049.9651000000085
041r!ie;155;False;1;P = T2?;DT2_high_5;2;Different;high;96;132;154;j;n;0;j;b;671.9215999999051
041r!ie;156;False;1;P = T2?;ST2_low_1;2;Same;low;82;132;132;j;n;1;j;b;405.16890000003514
041r!ie;157;False;1;P = T1?;ST1_low_2;1;Same;low;132;82;132;j;n;1;j;b;767.2215000000051
041r!ie;158;False;1;P = T2?;STb_7;0;Same;None;154;154;154;j;n;1;j;b;864.8777000000791
041r!ie;159;False;1;P = T1?;DT1_low_4;1;Different;low;112;70;132;j;n;0;j;b;488.1505000000743
041r!ie;160;False;1;P = T1?;ST1_low_2;1;Same;low;132;82;132;j;n;1;j;b;562.8922999999304
041r!ie;161;False;1;P = T1?;ST1_low_5;1;Same;low;96;154;96;j;n;1;j;v;1256.6092000001845
041r!ie;162;False;1;P = T1?;ST1_low_6;1;Same;low;154;96;154;j;n;1;j;b;745.1518999998825
041r!ie;163;False;1;P = T1?;STb_3;0;Same;None;82;82;82;j;n;0;f;v;738.4713999999803
041r!ie;164;False;1;P = T1?;ST1_low_4;1;Same;low;112;70;112;j;n;1;j;b;454.5469999998204
041r!ie;165;False;1;P = T2?;ST1_low_3;1;Same;low;70;112;70;j;n;0;j;v;425.90870000003633
041r!ie;166;False;1;P = T2?;ST1_high_2;1;Same;high;112;82;112;j;n;0;j;v;824.6371999998701
041r!ie;167;False;1;P = T1?;DT2_low_6;2;Different;low;154;96;82;j;n;0;j;b;1206.1639000003197
041r!ie;168;False;1;P = T2?;ST1_high_5;1;Same;high;96;132;96;j;n;1;f;v;617.0266999997693
041r!ie;169;False;1;P = T1?;ST2_high_1;2;Same;high;82;112;112;j;n;1;f;v;1174.8665000000074
041r!ie;170;False;1;P = T1?;ST2_low_3;2;Same;low;70;112;112;j;n;1;f;v;672.5102000000334
041r!ie;171;False;1;P = T2?;ST2_high_6;2;Same;high;132;96;96;j;n;1;j;b;391.7203999999401
041r!ie;172;False;1;P = T2?;DT2_high_3;2;Different;high;70;96;112;j;n;0;j;v;662.0185000001584
041r!ie;173;False;1;P = T1?;ST2_high_3;2;Same;high;70;96;96;j;n;1;f;v;683.8213000000906
041r!ie;174;False;1;P = T2?;ST1_low_3;1;Same;low;70;112;70;j;n;0;j;v;291.23699999991004
041r!ie;175;False;1;P = T2?;ST2_low_5;2;Same;low;96;154;154;j;n;1;j;v;1214.100099999996
041r!ie;176;False;1;P = T1?;ST1_high_5;1;Same;high;96;132;96;j;n;1;j;b;468.5941000002458
041r!ie;1;True;2;P != T2?;ST1_low_4;1;Same;low;112;70;112;j;n;1;j;v;1682.5573999999506
041r!ie;2;True;2;P != T2?;DT1_high_5;1;Different;high;96;132;82;j;n;1;j;b;704.4670000000224
041r!ie;3;True;2;P != T1?;STb_4;0;Same;None;96;96;96;j;n;1;f;v;760.8389999995779
041r!ie;4;True;2;P != T1?;ST2_high_1;2;Same;high;82;112;112;j;n;0;f;v;921.9634999999471
041r!ie;5;True;2;P != T1?;ST1_low_4;1;Same;low;112;70;112;j;n;0;j;v;1458.0442000001312
041r!ie;6;True;2;P != T2?;ST1_high_4;1;Same;high;96;70;96;j;n;1;j;n;1145.8415000001878
041r!ie;7;True;2;P != T2?;ST2_high_1;2;Same;high;82;112;112;j;n;0;j;n;2557.791800000359
041r!ie;8;True;2;P != T2?;STb_8;0;Same;None;180;180;180;j;n;1;f;v;559.368099999574
041r!ie;9;True;2;P != T1?;STb_6;0;Same;None;132;132;132;j;n;1;f;v;302.7474999998958
041r!ie;10;True;2;P != T2?;DT1_high_6;1;Different;high;132;96;154;j;n;0;f;v;284.12470000012036
041r!ie;11;True;2;P != T1?;DT2_low_4;2;Different;low;112;70;60;j;n;1;j;b;1243.8489999999547
041r!ie;12;True;2;P != T2?;ST2_low_2;2;Same;low;132;82;82;j;n;1;f;n;1426.388400000178
041r!ie;13;True;2;P != T1?;ST1_low_1;1;Same;low;82;132;82;j;n;1;f;b;1657.7032999998664
041r!ie;14;True;2;P != T2?;STb_5;0;Same;None;112;112;112;j;n;0;j;b;1961.6981999997734
041r!ie;15;True;2;P != T1?;ST2_high_1;2;Same;high;82;112;112;j;n;1;j;v;1116.9463000001087
041r!ie;16;True;2;P != T1?;DT1_high_5;1;Different;high;96;132;82;j;n;0;f;v;1819.5753999998487
041r!ie;1;False;2;P != T2?;ST1_low_2;1;Same;low;132;82;132;j;n;1;j;b;1238.2230000002892
041r!ie;2;False;2;P != T1?;DT2_low_1;2;Different;low;82;132;154;j;n;1;j;b;1813.4629000001041
041r!ie;3;False;2;P != T2?;STb_2;0;Same;None;70;70;70;j;n;1;f;b;290.9258999998201
041r!ie;4;False;2;P != T1?;ST2_low_5;2;Same;low;96;154;154;j;n;0;f;b;1035.9576999999263
041r!ie;5;False;2;P != T1?;ST2_low_6;2;Same;low;154;96;96;j;n;0;f;v;3528.135900000052
041r!ie;6;False;2;P != T1?;ST1_low_5;1;Same;low;96;154;96;j;n;1;f;v;1298.5481000000618
041r!ie;7;False;2;P != T2?;ST1_high_5;1;Same;high;96;132;96;j;n;1;j;b;1415.6022999995912
041r!ie;8;False;2;P != T2?;ST1_low_5;1;Same;low;96;154;96;j;n;1;j;b;1910.1326999998491
041r!ie;9;False;2;P != T2?;STb_3;0;Same;None;82;82;82;j;n;1;f;v;1344.397200000003
041r!ie;10;False;2;P != T1?;ST1_high_4;1;Same;high;96;70;96;j;n;1;f;v;2573.184399999718
041r!ie;11;False;2;P != T2?;ST2_low_5;2;Same;low;96;154;154;j;n;1;f;b;745.1638000002276
041r!ie;12;False;2;P != T2?;ST1_low_2;1;Same;low;132;82;132;j;n;1;j;b;992.837100000088
041r!ie;13;False;2;P != T2?;ST1_low_6;1;Same;low;154;96;154;j;n;1;j;v;673.861300000226
041r!ie;14;False;2;P != T2?;ST1_low_3;1;Same;low;70;112;70;j;n;1;j;b;1038.2589999999254
041r!ie;15;False;2;P != T1?;ST2_high_2;2;Same;high;112;82;82;j;n;1;j;v;448.64040000038585
041r!ie;16;False;2;P != T2?;ST1_high_2;1;Same;high;112;82;112;j;n;1;j;b;790.3613999997106
041r!ie;17;False;2;P != T1?;ST1_high_4;1;Same;high;96;70;96;j;n;0;j;v;715.5758999997488
041r!ie;18;False;2;P != T1?;ST1_low_2;1;Same;low;132;82;132;j;n;0;j;v;1169.2291999997906
041r!ie;19;False;2;P != T1?;DT1_high_3;1;Different;high;70;96;60;j;n;1;j;b;905.2216000000044
041r!ie;20;False;2;P != T2?;ST1_low_5;1;Same;low;96;154;96;j;n;0;f;b;2217.333800000233
041r!ie;21;False;2;P != T2?;ST2_low_3;2;Same;low;70;112;112;j;n;1;f;b;1217.4322999999276
041r!ie;22;False;2;P != T2?;ST2_high_5;2;Same;high;96;132;132;j;n;1;f;b;2132.814099999905
041r!ie;23;False;2;P != T2?;ST1_high_3;1;Same;high;70;96;70;j;n;1;j;v;669.2459999999301
041r!ie;24;False;2;P != T1?;DT1_high_5;1;Different;high;96;132;82;j;n;0;f;v;1364.0549000001556
041r!ie;25;False;2;P != T2?;ST1_low_3;1;Same;low;70;112;70;j;n;1;j;v;906.9899999999507
041r!ie;26;False;2;P != T2?;DT1_low_6;1;Different;low;154;96;180;j;n;1;j;n;991.3298999999824
041r!ie;27;False;2;P != T2?;DT2_high_6;2;Different;high;132;96;82;j;n;0;f;b;464.64719999994486
041r!ie;28;False;2;P != T1?;ST2_high_2;2;Same;high;112;82;82;j;n;0;f;v;2276.6708000003746
041r!ie;29;False;2;P != T1?;ST1_low_4;1;Same;low;112;70;112;j;n;0;j;v;794.501400000172
041r!ie;30;False;2;P != T2?;ST1_low_3;1;Same;low;70;112;70;j;n;1;j;b;931.066600000122
041r!ie;31;False;2;P != T1?;DT1_high_4;1;Different;high;96;70;112;j;n;0;f;b;1228.6823999997978
041r!ie;32;False;2;P != T2?;ST1_low_6;1;Same;low;154;96;154;j;n;1;j;n;1067.2545999996146
041r!ie;33;False;2;P != T1?;ST1_low_5;1;Same;low;96;154;96;j;n;0;j;v;1351.0192000003372
041r!ie;34;False;2;P != T1?;ST1_low_2;1;Same;low;132;82;132;j;n;0;j;b;1307.2400999999445
041r!ie;35;False;2;P != T2?;ST2_high_1;2;Same;high;82;112;112;j;n;1;f;b;1376.2913999999
041r!ie;36;False;2;P != T1?;ST1_high_3;1;Same;high;70;96;70;j;n;0;j;v;1930.9453999999278
041r!ie;37;False;2;P != T1?;STb_6;0;Same;None;132;132;132;j;n;0;j;v;4776.536599999872
041r!ie;38;False;2;P != T1?;ST2_high_5;2;Same;high;96;132;132;j;n;1;j;v;753.4413999997014
041r!ie;39;False;2;P != T2?;ST1_high_2;1;Same;high;112;82;112;j;n;1;j;v;1145.9352000001672
041r!ie;40;False;2;P != T1?;STb_3;0;Same;None;82;82;82;j;n;0;j;v;2371.223199999804
041r!ie;41;False;2;P != T1?;ST2_high_1;2;Same;high;82;112;112;j;n;1;j;v;844.8661000002176
041r!ie;42;False;2;P != T1?;ST1_low_4;1;Same;low;112;70;112;j;n;1;f;b;1538.5311000000002
041r!ie;43;False;2;P != T1?;ST2_high_2;2;Same;high;112;82;82;j;n;1;j;b;963.0680000000211
041r!ie;44;False;2;P != T2?;STb_8;0;Same;None;180;180;180;j;n;0;j;b;1118.3054000002812
041r!ie;45;False;2;P != T1?;ST1_high_5;1;Same;high;96;132;96;j;n;0;j;b;886.3556999999673
041r!ie;46;False;2;P != T1?;ST1_low_6;1;Same;low;154;96;154;j;n;1;f;b;2218.6049999995703
041r!ie;47;False;2;P != T2?;ST1_high_3;1;Same;high;70;96;70;j;n;1;j;b;1527.5249000001168
041r!ie;48;False;2;P != T1?;ST2_low_2;2;Same;low;132;82;82;j;n;1;j;b;1721.3948999997228
041r!ie;49;False;2;P != T2?;ST1_low_1;1;Same;low;82;132;82;j;n;1;j;n;688.1960000000618
041r!ie;50;False;2;P != T2?;ST2_low_2;2;Same;low;132;82;82;j;n;0;j;b;981.0205000003407
041r!ie;51;False;2;P != T1?;ST1_low_1;1;Same;low;82;132;82;j;n;0;j;b;695.2712000002066
041r!ie;52;False;2;P != T2?;ST1_high_1;1;Same;high;82;112;82;j;n;0;f;b;1078.5468000003675
041r!ie;53;False;2;P != T1?;ST1_high_1;1;Same;high;82;112;82;j;n;0;j;b;419.4663000002947
041r!ie;54;False;2;P != T2?;DT1_high_4;1;Different;high;96;70;112;j;n;1;j;n;1028.0189999998584
041r!ie;55;False;2;P != T2?;STb_6;0;Same;None;132;132;132;j;n;0;j;b;691.2492999999813
041r!ie;56;False;2;P != T2?;ST2_low_1;2;Same;low;82;132;132;j;n;0;j;b;805.3147999999055
041r!ie;57;False;2;P != T1?;ST1_low_1;1;Same;low;82;132;82;j;n;1;f;b;1102.5681999999506
041r!ie;58;False;2;P != T1?;ST1_high_2;1;Same;high;112;82;112;j;n;0;j;v;1317.6652000001923
041r!ie;59;False;2;P != T2?;ST2_high_6;2;Same;high;132;96;96;j;n;1;f;v;1655.3973000000042
041r!ie;60;False;2;P != T2?;ST1_low_1;1;Same;low;82;132;82;j;n;1;j;b;1193.4289999999237
041r!ie;61;False;2;P != T2?;ST1_high_4;1;Same;high;96;70;96;j;n;0;f;b;1732.513200000085
041r!ie;62;False;2;P != T2?;ST2_low_5;2;Same;low;96;154;154;j;n;0;j;v;1039.2007000000376
041r!ie;63;False;2;P != T2?;ST2_low_3;2;Same;low;70;112;112;j;n;1;f;b;948.0883000001086
041r!ie;64;False;2;P != T1?;STb_5;0;Same;None;112;112;112;j;n;0;j;v;1216.8596999999863
041r!ie;65;False;2;P != T1?;ST1_high_3;1;Same;high;70;96;70;j;n;1;f;b;1287.7059000002191
041r!ie;66;False;2;P != T2?;ST1_low_6;1;Same;low;154;96;154;j;n;1;j;n;1514.5157000001745
041r!ie;67;False;2;P != T2?;ST2_high_1;2;Same;high;82;112;112;j;n;1;f;b;979.6117000000777
041r!ie;68;False;2;P != T1?;ST1_low_6;1;Same;low;154;96;154;j;n;1;f;b;1207.4171999997816
041r!ie;69;False;2;P != T2?;ST1_high_4;1;Same;high;96;70;96;j;n;1;j;v;616.4432000000488
041r!ie;70;False;2;P != T2?;ST2_low_4;2;Same;low;112;70;70;j;n;1;f;b;1245.7134999999653
041r!ie;71;False;2;P != T2?;ST1_low_2;1;Same;low;132;82;132;j;n;1;j;b;1961.588600000141
041r!ie;72;False;2;P != T2?;ST1_high_4;1;Same;high;96;70;96;j;n;1;j;n;888.8767999997071
041r!ie;73;False;2;P != T1?;STb_1;0;Same;None;60;60;60;j;n;1;f;b;373.30350000002
041r!ie;74;False;2;P != T2?;ST2_low_1;2;Same;low;82;132;132;j;n;1;f;b;1128.1662999999753
041r!ie;75;False;2;P != T2?;ST1_high_5;1;Same;high;96;132;96;j;n;0;f;b;1682.7845000002526
041r!ie;76;False;2;P != T1?;ST1_high_6;1;Same;high;132;96;132;j;n;0;j;b;2223.3477999998286
041r!ie;77;False;2;P != T1?;ST1_high_6;1;Same;high;132;96;132;j;n;1;f;v;1943.125400000099
041r!ie;78;False;2;P != T2?;DT1_high_2;1;Different;high;112;82;132;j;n;0;f;b;1061.7566999999326
041r!ie;79;False;2;P != T1?;ST1_low_3;1;Same;low;70;112;70;j;n;1;f;v;928.3231999997952
041r!ie;80;False;2;P != T1?;ST2_low_4;2;Same;low;112;70;70;j;n;1;j;b;948.6492999999427
041r!ie;81;False;2;P != T2?;ST2_high_6;2;Same;high;132;96;96;j;n;1;f;b;353.09819999974934
041r!ie;82;False;2;P != T1?;DT1_low_1;1;Different;low;82;132;70;j;n;0;f;b;697.8055999998105
041r!ie;83;False;2;P != T1?;ST2_high_3;2;Same;high;70;96;96;j;n;1;j;v;958.277199999884
041r!ie;84;False;2;P != T2?;ST2_high_5;2;Same;high;96;132;132;j;n;1;f;v;910.168600000361
041r!ie;85;False;2;P != T1?;ST1_high_3;1;Same;high;70;96;70;j;n;0;j;b;824.1005999998379
041r!ie;86;False;2;P != T2?;STb_4;0;Same;None;96;96;96;j;n;1;f;v;933.0263000001651
041r!ie;87;False;2;P != T1?;DT2_high_5;2;Different;high;96;132;154;j;n;0;f;b;1503.74950000014
041r!ie;88;False;2;P != T1?;ST1_low_4;1;Same;low;112;70;112;j;n;1;f;b;1632.9862999996294
041r!ie;89;False;2;P != T1?;ST2_low_1;2;Same;low;82;132;132;j;n;1;j;b;883.6434999998346
041r!ie;90;False;2;P != T1?;ST2_low_3;2;Same;low;70;112;112;j;n;1;j;b;862.7660999995896
041r!ie;91;False;2;P != T1?;ST2_high_6;2;Same;high;132;96;96;j;n;1;j;b;871.0595000002286
041r!ie;92;False;2;P != T2?;DT1_high_3;1;Different;high;70;96;60;j;n;1;j;n;727.7298999997583
041r!ie;93;False;2;P != T1?;ST2_high_4;2;Same;high;96;70;70;j;n;0;f;b;468.30679999993663
041r!ie;94;False;2;P != T1?;ST1_high_5;1;Same;high;96;132;96;j;n;1;f;b;2069.5303999996213
041r!ie;95;False;2;P != T1?;ST2_low_6;2;Same;low;154;96;96;j;n;0;f;v;1582.4365000003127
041r!ie;96;False;2;P != T2?;ST2_high_2;2;Same;high;112;82;82;j;n;1;f;v;1221.6850999998314
041r!ie;97;False;2;P != T2?;ST2_high_1;2;Same;high;82;112;112;j;n;1;f;v;793.5464000001957
041r!ie;98;False;2;P != T2?;ST2_low_2;2;Same;low;132;82;82;j;n;1;f;b;1546.0062000001926
041r!ie;99;False;2;P != T2?;ST2_low_6;2;Same;low;154;96;96;j;n;0;j;v;1363.6986000001343
041r!ie;100;False;2;P != T2?;ST1_low_1;1;Same;low;82;132;82;j;n;0;f;b;675.3545999999915
041r!ie;101;False;2;P != T2?;ST2_high_2;2;Same;high;112;82;82;j;n;1;f;b;976.8717000001743
041r!ie;102;False;2;P != T1?;STb_4;0;Same;None;96;96;96;j;n;1;f;v;2348.87770000023
041r!ie;103;False;2;P != T2?;ST1_low_4;1;Same;low;112;70;112;j;n;1;j;b;759.5875000001797
041r!ie;104;False;2;P != T2?;ST1_high_6;1;Same;high;132;96;132;j;n;1;j;b;1196.8183999997564
041r!ie;105;False;2;P != T1?;ST1_high_1;1;Same;high;82;112;82;j;n;1;f;b;1354.8205000001872
041r!ie;106;False;2;P != T2?;ST1_low_4;1;Same;low;112;70;112;j;n;1;j;b;1091.561200000342
041r!ie;107;False;2;P != T1?;ST1_high_2;1;Same;high;112;82;112;j;n;1;f;v;1284.650000000056
041r!ie;108;False;2;P != T1?;ST2_low_1;2;Same;low;82;132;132;j;n;1;j;b;950.1695999997537
041r!ie;109;False;2;P != T2?;ST2_high_3;2;Same;high;70;96;96;j;n;0;j;v;3425.912299999709
041r!ie;110;False;2;P != T1?;ST1_low_3;1;Same;low;70;112;70;j;n;1;f;v;3258.250699999735
041r!ie;111;False;2;P != T1?;STb_2;0;Same;None;70;70;70;j;n;0;j;v;1734.4456000000719
041r!ie;112;False;2;P != T1?;ST2_low_5;2;Same;low;96;154;154;j;n;0;f;v;1857.4516000003314
041r!ie;113;False;2;P != T2?;STb_7;0;Same;None;154;154;154;j;n;1;f;v;304.0205000002061
041r!ie;114;False;2;P != T1?;ST2_high_5;2;Same;high;96;132;132;j;n;0;f;b;357.8476000002411
041r!ie;115;False;2;P != T1?;ST2_high_1;2;Same;high;82;112;112;j;n;0;f;v;411.8379999999888
041r!ie;116;False;2;P != T1?;ST2_low_5;2;Same;low;96;154;154;j;n;0;f;v;3408.6975000000166
041r!ie;117;False;2;P != T2?;ST1_high_5;1;Same;high;96;132;96;j;n;1;j;v;979.7195999999531
041r!ie;118;False;2;P != T1?;ST1_high_1;1;Same;high;82;112;82;j;n;0;j;v;824.695299999803
041r!ie;119;False;2;P != T2?;ST2_low_3;2;Same;low;70;112;112;j;n;0;j;b;1157.1579999999813
041r!ie;120;False;2;P != T1?;ST2_low_2;2;Same;low;132;82;82;j;n;1;j;v;1435.3651999999784
041r!ie;121;False;2;P != T1?;ST2_low_4;2;Same;low;112;70;70;j;n;0;f;v;1407.370799999626
041r!ie;122;False;2;P != T2?;ST1_high_6;1;Same;high;132;96;132;j;n;0;f;v;2687.3043000000507
041r!ie;123;False;2;P != T2?;DT2_low_2;2;Different;low;132;82;70;j;n;0;f;v;979.225900000074
041r!ie;124;False;2;P != T1?;ST1_high_5;1;Same;high;96;132;96;j;n;0;j;v;1090.8730999999534
041r!ie;125;False;2;P != T2?;ST2_low_4;2;Same;low;112;70;70;j;n;1;f;b;1096.3203999999678
041r!ie;126;False;2;P != T2?;ST2_high_5;2;Same;high;96;132;132;j;n;1;f;v;1871.555300000182
041r!ie;127;False;2;P != T2?;ST2_high_3;2;Same;high;70;96;96;j;n;1;f;b;1001.4399000001504
041r!ie;128;False;2;P != T1?;DT2_low_5;2;Different;low;96;154;180;j;n;1;j;n;990.7948000000033
041r!ie;129;False;2;P != T2?;ST1_low_4;1;Same;low;112;70;112;j;n;0;f;v;1762.280699999792
041r!ie;130;False;2;P != T1?;ST2_high_3;2;Same;high;70;96;96;j;n;0;f;v;1178.5170999996808
041r!ie;131;False;2;P != T1?;ST2_high_6;2;Same;high;132;96;96;j;n;1;j;b;1259.3138000002
041r!ie;132;False;2;P != T2?;ST1_high_3;1;Same;high;70;96;70;j;n;0;f;b;2357.955299999958
041r!ie;133;False;2;P != T1?;ST2_low_3;2;Same;low;70;112;112;j;n;0;f;b;709.4507000001613
041r!ie;134;False;2;P != T1?;ST1_low_6;1;Same;low;154;96;154;j;n;1;f;v;1699.9701999998251
041r!ie;135;False;2;P != T2?;ST1_high_6;1;Same;high;132;96;132;j;n;1;j;b;796.3837999996031
041r!ie;136;False;2;P != T1?;ST2_low_3;2;Same;low;70;112;112;j;n;0;f;b;3017.8639999999177
041r!ie;137;False;2;P != T2?;ST2_high_4;2;Same;high;96;70;70;j;n;1;f;b;979.6875000001819
041r!ie;138;False;2;P != T1?;ST2_low_6;2;Same;low;154;96;96;j;n;1;j;b;1298.162499999762
041r!ie;139;False;2;P != T1?;DT1_high_2;1;Different;high;112;82;132;j;n;0;f;v;833.9341999999306
041r!ie;140;False;2;P != T2?;ST2_high_4;2;Same;high;96;70;70;j;n;1;f;v;1644.8127000003296
041r!ie;141;False;2;P != T1?;ST1_high_6;1;Same;high;132;96;132;j;n;1;f;b;1066.608300000098
041r!ie;142;False;2;P != T1?;ST2_high_4;2;Same;high;96;70;70;j;n;1;j;b;908.4172999996554
041r!ie;143;False;2;P != T2?;ST2_low_6;2;Same;low;154;96;96;j;n;0;j;n;802.4683000003279
041r!ie;144;False;2;P != T2?;ST2_high_6;2;Same;high;132;96;96;j;n;1;f;b;620.1715000001968
041r!ie;145;False;2;P != T1?;ST2_high_4;2;Same;high;96;70;70;j;n;0;f;v;674.2930000000342
041r!ie;146;False;2;P != T1?;ST2_high_6;2;Same;high;132;96;96;j;n;0;f;v;995.517899999868
041r!ie;147;False;2;P != T1?;ST1_low_1;1;Same;low;82;132;82;j;n;0;j;b;666.8791000001875
041r!ie;148;False;2;P != T2?;DT2_low_6;2;Different;low;154;96;82;j;n;0;f;b;817.3380000002908
041r!ie;149;False;2;P != T2?;ST1_low_5;1;Same;low;96;154;96;j;n;1;j;b;767.6471999998284
041r!ie;150;False;2;P != T2?;ST1_high_1;1;Same;high;82;112;82;j;n;0;f;v;1154.3083999999908
041r!ie;151;False;2;P != T1?;ST2_low_2;2;Same;low;132;82;82;j;n;1;j;v;872.8885000000446
041r!ie;152;False;2;P != T2?;ST2_low_4;2;Same;low;112;70;70;j;n;1;f;v;624.1634000002705
041r!ie;153;False;2;P != T1?;ST1_high_4;1;Same;high;96;70;96;j;n;1;f;v;441.8515000002117
041r!ie;154;False;2;P != T2?;ST2_high_2;2;Same;high;112;82;82;j;n;1;f;v;955.9426999999232
041r!ie;155;False;2;P != T2?;STb_5;0;Same;None;112;112;112;j;n;1;f;b;331.15060000000085
041r!ie;156;False;2;P != T1?;ST2_low_1;2;Same;low;82;132;132;j;n;1;j;b;1119.5788999998513
041r!ie;157;False;2;P != T1?;ST2_low_4;2;Same;low;112;70;70;j;n;1;j;b;977.7659999999742
041r!ie;158;False;2;P != T1?;STb_7;0;Same;None;154;154;154;j;n;0;j;b;2173.790199999985
041r!ie;159;False;2;P != T1?;ST1_high_2;1;Same;high;112;82;112;j;n;1;f;v;1073.8436999999976
041r!ie;160;False;2;P != T2?;ST1_high_1;1;Same;high;82;112;82;j;n;0;f;v;1939.395599999898
041r!ie;161;False;2;P != T2?;ST2_low_6;2;Same;low;154;96;96;j;n;1;f;b;554.1477000001578
041r!ie;162;False;2;P != T1?;STb_8;0;Same;None;180;180;180;j;n;1;f;b;372.38550000029136
041r!ie;163;False;2;P != T2?;ST2_high_4;2;Same;high;96;70;70;j;n;1;f;b;561.6900999998506
041r!ie;164;False;2;P != T2?;ST2_high_3;2;Same;high;70;96;96;j;n;1;f;v;478.4359999998742
041r!ie;165;False;2;P != T2?;STb_1;0;Same;None;60;60;60;j;n;1;f;b;273.0231000000458
041r!ie;166;False;2;P != T2?;ST1_high_2;1;Same;high;112;82;112;j;n;0;f;v;386.13900000018475
041r!ie;167;False;2;P != T1?;ST2_high_1;2;Same;high;82;112;112;j;n;0;f;v;1938.5883999998441
041r!ie;168;False;2;P != T1?;ST1_low_2;1;Same;low;132;82;132;j;n;0;j;v;913.6062000002312
041r!ie;169;False;2;P != T2?;ST2_low_1;2;Same;low;82;132;132;j;n;1;f;v;814.818999999261
041r!ie;170;False;2;P != T1?;ST1_low_5;1;Same;low;96;154;96;j;n;1;f;v;1424.889699999767
041r!ie;171;False;2;P != T2?;DT1_high_5;1;Different;high;96;132;82;j;n;1;j;b;1449.4157999997697
041r!ie;172;False;2;P != T1?;ST1_low_3;1;Same;low;70;112;70;j;n;0;j;v;1343.7244999995528
041r!ie;173;False;2;P != T2?;ST2_low_5;2;Same;low;96;154;154;j;n;1;f;b;948.383100000683
041r!ie;174;False;2;P != T1?;ST2_high_5;2;Same;high;96;132;132;j;n;1;j;v;3288.531299999704
041r!ie;175;False;2;P != T2?;ST2_low_2;2;Same;low;132;82;82;j;n;0;j;v;4599.543999999696
041r!ie;176;False;2;P != T1?;ST2_high_3;2;Same;high;70;96;96;j;n;1;j;v;972.3347999997713
