p_code;trial_nr;practice;block;question;condition;seqPos;Same_or_Diff;ITS;T1_hz;T2_hz;P_hz;yes_key;sure_key;correct;yes_no;rating;resp_time
i7#1jw5;1;True;1;P = T1?;DT1_high_2;1;Different;high;112;82;132;j;n;0;j;b;1586.8355000002339
i7#1jw5;2;True;1;P = T2?;STb_3;0;Same;None;82;82;82;j;n;1;j;v;1241.1738000000696
i7#1jw5;3;True;1;P = T2?;ST1_high_1;1;Same;high;82;112;82;j;n;1;f;b;1193.1500000000597
i7#1jw5;4;True;1;P = T2?;ST2_low_4;2;Same;low;112;70;70;j;n;1;j;b;992.1005999995032
i7#1jw5;5;True;1;P = T1?;STb_6;0;Same;None;132;132;132;j;n;1;j;v;1855.1216999994722
i7#1jw5;6;True;1;P = T1?;ST2_low_6;2;Same;low;154;96;96;j;n;1;f;v;1253.8790999997218
i7#1jw5;7;True;1;P = T1?;ST2_high_1;2;Same;high;82;112;112;j;n;0;j;b;969.1165000003821
i7#1jw5;8;True;1;P = T1?;ST1_low_6;1;Same;low;154;96;154;j;n;1;j;b;1743.0718999994497
i7#1jw5;9;True;1;P = T2?;DT2_high_4;2;Different;high;96;70;60;j;n;0;j;n;863.5420999999042
i7#1jw5;10;True;1;P = T2?;ST2_low_3;2;Same;low;70;112;112;j;n;1;j;v;2206.7642000001797
i7#1jw5;11;True;1;P = T2?;DT2_high_6;2;Different;high;132;96;82;j;n;0;j;v;1760.2130000004763
i7#1jw5;12;True;1;P = T1?;STb_7;0;Same;None;154;154;154;j;n;0;f;v;1209.7836000002644
i7#1jw5;13;True;1;P = T2?;ST1_low_4;1;Same;low;112;70;112;j;n;1;f;n;1257.5834999997824
i7#1jw5;14;True;1;P = T1?;ST1_high_6;1;Same;high;132;96;132;j;n;0;f;n;1332.5325999994675
i7#1jw5;15;True;1;P = T2?;STb_4;0;Same;None;96;96;96;j;n;1;j;b;2081.463200000144
i7#1jw5;16;True;1;P = T1?;DT2_high_6;2;Different;high;132;96;82;j;n;0;j;b;1046.0969000005207
p_code;trial_nr;practice;block;question;condition;seqPos;Same_or_Diff;ITS;T1_hz;T2_hz;P_hz;yes_key;sure_key;correct;yes_no;rating;resp_time
i7#1jw5;1;False;1;P = T1?;ST2_high_5;2;Same;high;96;132;132;j;n;1;f;n;1221.8955999996979
i7#1jw5;2;False;1;P = T2?;ST1_high_2;1;Same;high;112;82;112;j;n;1;f;n;1039.7184000003108
i7#1jw5;3;False;1;P = T1?;STb_5;0;Same;None;112;112;112;j;n;1;j;b;1048.9413000004788
i7#1jw5;4;False;1;P = T2?;ST1_high_3;1;Same;high;70;96;70;j;n;1;f;v;1224.543199999971
i7#1jw5;5;False;1;P = T2?;DT2_low_4;2;Different;low;112;70;60;j;n;0;j;v;1547.3322999996526
i7#1jw5;6;False;1;P = T1?;STb_8;0;Same;None;180;180;180;j;n;0;f;b;1316.2734999996246
i7#1jw5;7;False;1;P = T2?;ST2_low_1;2;Same;low;82;132;132;j;n;1;j;v;1635.7410000000527
i7#1jw5;8;False;1;P = T1?;ST1_high_2;1;Same;high;112;82;112;j;n;1;j;v;1388.647900000251
i7#1jw5;9;False;1;P = T2?;ST2_low_3;2;Same;low;70;112;112;j;n;0;f;b;2081.6591999991942
i7#1jw5;10;False;1;P = T1?;ST2_low_3;2;Same;low;70;112;112;j;n;0;j;v;2066.1952999998903
i7#1jw5;11;False;1;P = T1?;ST2_high_6;2;Same;high;132;96;96;j;n;0;j;v;1395.0810999995156
i7#1jw5;12;False;1;P = T2?;ST2_low_6;2;Same;low;154;96;96;j;n;1;j;n;904.9409999997806
i7#1jw5;13;False;1;P = T1?;STb_7;0;Same;None;154;154;154;j;n;0;f;b;1198.375400000259
i7#1jw5;14;False;1;P = T2?;ST1_high_5;1;Same;high;96;132;96;j;n;0;j;b;1101.9008999992366
i7#1jw5;15;False;1;P = T1?;ST2_high_2;2;Same;high;112;82;82;j;n;1;f;b;2023.8847000000533
i7#1jw5;16;False;1;P = T1?;ST1_low_2;1;Same;low;132;82;132;j;n;1;j;v;1556.7020999997112
i7#1jw5;17;False;1;P = T2?;ST1_low_4;1;Same;low;112;70;112;j;n;1;f;v;1104.7636999992392
i7#1jw5;18;False;1;P = T2?;ST1_low_5;1;Same;low;96;154;96;j;n;0;j;n;958.6881000004723
i7#1jw5;19;False;1;P = T2?;ST1_low_1;1;Same;low;82;132;82;j;n;1;f;b;1522.674800000459
i7#1jw5;20;False;1;P = T2?;ST2_low_4;2;Same;low;112;70;70;j;n;1;j;n;1523.1018999993466
i7#1jw5;21;False;1;P = T2?;ST2_low_5;2;Same;low;96;154;154;j;n;0;f;b;1133.1325999999535
i7#1jw5;22;False;1;P = T2?;ST1_low_3;1;Same;low;70;112;70;j;n;1;f;n;1131.0314000002109
i7#1jw5;23;False;1;P = T1?;ST1_high_1;1;Same;high;82;112;82;j;n;1;j;b;1352.1749999999884
i7#1jw5;24;False;1;P = T2?;ST1_high_6;1;Same;high;132;96;132;j;n;1;f;b;1538.6546999998245
i7#1jw5;25;False;1;P = T1?;ST2_low_3;2;Same;low;70;112;112;j;n;1;f;v;2164.8639999993975
i7#1jw5;26;False;1;P = T2?;DT1_high_4;1;Different;high;96;70;112;j;n;1;f;n;962.3584999999366
i7#1jw5;27;False;1;P = T2?;ST1_high_4;1;Same;high;96;70;96;j;n;1;f;n;1197.067000000061
i7#1jw5;28;False;1;P = T2?;ST2_high_4;2;Same;high;96;70;70;j;n;1;j;b;895.73560000008
i7#1jw5;29;False;1;P = T1?;DT1_low_2;1;Different;low;132;82;154;j;n;1;f;n;1057.7437000001737
i7#1jw5;30;False;1;P = T1?;ST2_high_1;2;Same;high;82;112;112;j;n;0;j;v;1579.956399999901
i7#1jw5;31;False;1;P = T2?;ST2_low_4;2;Same;low;112;70;70;j;n;1;j;n;1557.4385999998412
i7#1jw5;32;False;1;P = T1?;ST2_high_3;2;Same;high;70;96;96;j;n;0;j;b;1056.4167000002271
i7#1jw5;33;False;1;P = T1?;ST2_low_5;2;Same;low;96;154;154;j;n;0;j;v;2385.443000000123
i7#1jw5;34;False;1;P = T2?;ST1_high_6;1;Same;high;132;96;132;j;n;1;f;b;1879.3539999996938
i7#1jw5;35;False;1;P = T2?;ST1_high_2;1;Same;high;112;82;112;j;n;1;f;b;1230.9846000007383
i7#1jw5;36;False;1;P = T1?;STb_1;0;Same;None;60;60;60;j;n;1;j;n;927.8158999995867
i7#1jw5;37;False;1;P = T1?;ST2_low_4;2;Same;low;112;70;70;j;n;0;j;b;1076.102600000013
i7#1jw5;38;False;1;P = T2?;ST2_high_3;2;Same;high;70;96;96;j;n;1;j;n;1049.0683000007266
i7#1jw5;39;False;1;P = T1?;ST2_high_4;2;Same;high;96;70;70;j;n;1;f;b;1229.2170000000624
i7#1jw5;40;False;1;P = T1?;DT1_low_1;1;Different;low;82;132;70;j;n;1;f;b;2045.1753000006647
i7#1jw5;41;False;1;P = T2?;ST2_high_4;2;Same;high;96;70;70;j;n;1;j;n;1241.072499999973
i7#1jw5;42;False;1;P = T2?;DT1_low_3;1;Different;low;70;112;60;j;n;1;f;n;1359.3848000000435
i7#1jw5;43;False;1;P = T2?;ST2_high_6;2;Same;high;132;96;96;j;n;1;j;v;3504.660999999942
i7#1jw5;44;False;1;P = T1?;ST1_high_6;1;Same;high;132;96;132;j;n;0;f;v;1437.1218000005683
i7#1jw5;45;False;1;P = T1?;STb_2;0;Same;None;70;70;70;j;n;1;j;v;1656.0035000002244
i7#1jw5;46;False;1;P = T1?;ST1_high_5;1;Same;high;96;132;96;j;n;1;j;v;1303.6480000000665
i7#1jw5;47;False;1;P = T2?;ST2_low_2;2;Same;low;132;82;82;j;n;1;j;v;1780.6219000003694
i7#1jw5;48;False;1;P = T1?;ST2_low_1;2;Same;low;82;132;132;j;n;0;j;b;1233.4304999994856
i7#1jw5;49;False;1;P = T1?;ST1_low_3;1;Same;low;70;112;70;j;n;0;f;n;1247.6674999998068
i7#1jw5;50;False;1;P = T1?;DT1_high_6;1;Different;high;132;96;154;j;n;0;j;v;1310.4521000004752
i7#1jw5;51;False;1;P = T2?;ST2_low_1;2;Same;low;82;132;132;j;n;1;j;b;1067.6508999995349
i7#1jw5;52;False;1;P = T1?;ST2_high_1;2;Same;high;82;112;112;j;n;0;j;v;2157.4036000001797
i7#1jw5;53;False;1;P = T2?;STb_3;0;Same;None;82;82;82;j;n;0;f;v;2052.179100000103
i7#1jw5;54;False;1;P = T1?;ST2_high_4;2;Same;high;96;70;70;j;n;1;f;v;1496.325899999647
i7#1jw5;55;False;1;P = T1?;ST2_low_2;2;Same;low;132;82;82;j;n;0;j;v;1664.1918999994232
i7#1jw5;56;False;1;P = T1?;ST1_low_5;1;Same;low;96;154;96;j;n;0;f;v;6027.213899999879
i7#1jw5;57;False;1;P = T2?;STb_1;0;Same;None;60;60;60;j;n;1;j;b;1246.3588999999047
i7#1jw5;58;False;1;P = T2?;ST1_high_5;1;Same;high;96;132;96;j;n;0;j;n;1092.0538999998826
i7#1jw5;59;False;1;P = T1?;ST2_high_5;2;Same;high;96;132;132;j;n;1;f;b;1535.9722000002876
i7#1jw5;60;False;1;P = T2?;ST1_low_3;1;Same;low;70;112;70;j;n;1;f;v;7105.133099999875
i7#1jw5;61;False;1;P = T1?;ST2_low_4;2;Same;low;112;70;70;j;n;1;f;b;1408.0574999998134
i7#1jw5;62;False;1;P = T1?;ST2_low_6;2;Same;low;154;96;96;j;n;0;j;n;1249.3537999998807
i7#1jw5;63;False;1;P = T2?;ST1_high_1;1;Same;high;82;112;82;j;n;1;f;v;1382.6300999999148
i7#1jw5;64;False;1;P = T2?;ST2_low_2;2;Same;low;132;82;82;j;n;1;j;b;1618.9660999998523
i7#1jw5;65;False;1;P = T2?;DT1_high_2;1;Different;high;112;82;132;j;n;1;f;v;5910.978099999738
i7#1jw5;66;False;1;P = T1?;ST2_high_3;2;Same;high;70;96;96;j;n;1;f;b;1268.5474999998405
i7#1jw5;67;False;1;P = T2?;DT1_high_1;1;Different;high;82;112;70;j;n;0;j;v;3403.3186000006026
i7#1jw5;68;False;1;P = T2?;ST2_low_5;2;Same;low;96;154;154;j;n;0;f;v;1659.426600000188
i7#1jw5;69;False;1;P = T2?;ST2_low_3;2;Same;low;70;112;112;j;n;1;j;v;1809.0541999999914
i7#1jw5;70;False;1;P = T1?;ST2_high_4;2;Same;high;96;70;70;j;n;1;f;b;1372.2272000004523
i7#1jw5;71;False;1;P = T2?;ST1_high_5;1;Same;high;96;132;96;j;n;0;j;b;1118.4034999996584
i7#1jw5;72;False;1;P = T1?;ST1_low_2;1;Same;low;132;82;132;j;n;0;f;v;1439.317100000153
i7#1jw5;73;False;1;P = T1?;ST2_low_5;2;Same;low;96;154;154;j;n;0;j;b;1612.1658000001844
i7#1jw5;74;False;1;P = T2?;ST1_low_6;1;Same;low;154;96;154;j;n;1;f;b;1122.1670999993876
i7#1jw5;75;False;1;P = T1?;ST1_high_3;1;Same;high;70;96;70;j;n;1;j;v;3739.9883999996746
i7#1jw5;76;False;1;P = T2?;ST2_high_5;2;Same;high;96;132;132;j;n;1;j;n;1226.784000000407
i7#1jw5;77;False;1;P = T1?;ST2_low_5;2;Same;low;96;154;154;j;n;1;f;v;2407.3638999998366
i7#1jw5;78;False;1;P = T1?;ST1_high_1;1;Same;high;82;112;82;j;n;1;j;v;1936.7259000000558
i7#1jw5;79;False;1;P = T2?;ST1_low_6;1;Same;low;154;96;154;j;n;1;f;b;1201.8311999991056
i7#1jw5;80;False;1;P = T2?;DT2_low_3;2;Different;low;70;112;132;j;n;0;j;n;886.6377000003922
i7#1jw5;81;False;1;P = T2?;ST1_low_4;1;Same;low;112;70;112;j;n;1;f;b;885.8927999999651
i7#1jw5;82;False;1;P = T1?;ST2_high_3;2;Same;high;70;96;96;j;n;1;f;v;1454.032599999664
i7#1jw5;83;False;1;P = T2?;DT2_low_5;2;Different;low;96;154;180;j;n;1;f;b;2863.393800000267
i7#1jw5;84;False;1;P = T2?;ST2_high_2;2;Same;high;112;82;82;j;n;1;j;n;1079.9035000000003
i7#1jw5;85;False;1;P = T1?;ST1_low_5;1;Same;low;96;154;96;j;n;0;f;v;7745.114100000137
i7#1jw5;86;False;1;P = T2?;ST2_high_5;2;Same;high;96;132;132;j;n;1;j;b;1255.39740000022
i7#1jw5;87;False;1;P = T1?;ST1_high_3;1;Same;high;70;96;70;j;n;1;j;v;1561.6742000001977
i7#1jw5;88;False;1;P = T2?;ST1_low_2;1;Same;low;132;82;132;j;n;1;f;b;1164.2638999992414
i7#1jw5;89;False;1;P = T1?;ST1_low_4;1;Same;low;112;70;112;j;n;1;j;b;967.2436000000744
i7#1jw5;90;False;1;P = T1?;STb_6;0;Same;None;132;132;132;j;n;0;f;b;1773.0351000000155
i7#1jw5;91;False;1;P = T2?;ST1_high_1;1;Same;high;82;112;82;j;n;1;f;b;1687.7684999999474
i7#1jw5;92;False;1;P = T1?;STb_3;0;Same;None;82;82;82;j;n;0;f;b;1738.8957999992272
i7#1jw5;93;False;1;P = T2?;STb_2;0;Same;None;70;70;70;j;n;1;j;b;1830.5243000004339
i7#1jw5;94;False;1;P = T2?;ST1_low_3;1;Same;low;70;112;70;j;n;0;j;b;2077.3651999998037
i7#1jw5;95;False;1;P = T1?;ST1_low_4;1;Same;low;112;70;112;j;n;1;j;v;2115.1724999999715
i7#1jw5;96;False;1;P = T2?;ST1_low_1;1;Same;low;82;132;82;j;n;1;f;v;1752.7790000003733
i7#1jw5;97;False;1;P = T1?;ST2_high_6;2;Same;high;132;96;96;j;n;0;j;v;2563.7219999998706
i7#1jw5;98;False;1;P = T2?;ST1_low_2;1;Same;low;132;82;132;j;n;1;f;v;2207.4530999998387
i7#1jw5;99;False;1;P = T1?;ST2_high_2;2;Same;high;112;82;82;j;n;0;j;v;1290.7743999994636
i7#1jw5;100;False;1;P = T2?;ST2_low_5;2;Same;low;96;154;154;j;n;1;j;n;1398.0000000001382
i7#1jw5;101;False;1;P = T1?;ST1_high_2;1;Same;high;112;82;112;j;n;0;f;v;4361.180000000786
i7#1jw5;102;False;1;P = T1?;ST1_low_5;1;Same;low;96;154;96;j;n;1;j;v;1855.267900000399
i7#1jw5;103;False;1;P = T1?;ST2_low_4;2;Same;low;112;70;70;j;n;0;j;v;2042.1829000006255
i7#1jw5;104;False;1;P = T1?;ST1_low_3;1;Same;low;70;112;70;j;n;1;j;v;2188.28190000022
i7#1jw5;105;False;1;P = T1?;ST1_high_4;1;Same;high;96;70;96;j;n;0;f;v;2990.5406999996558
i7#1jw5;106;False;1;P = T2?;STb_4;0;Same;None;96;96;96;j;n;0;f;v;1605.4437000002508
i7#1jw5;107;False;1;P = T1?;ST2_low_1;2;Same;low;82;132;132;j;n;0;j;v;2435.350999999173
i7#1jw5;108;False;1;P = T2?;ST2_high_2;2;Same;high;112;82;82;j;n;0;f;v;7382.865999999922
i7#1jw5;109;False;1;P = T1?;DT1_high_2;1;Different;high;112;82;132;j;n;1;f;v;1658.5347000000183
i7#1jw5;110;False;1;P = T2?;STb_7;0;Same;None;154;154;154;j;n;1;j;b;1039.532799999506
i7#1jw5;111;False;1;P = T1?;ST1_high_3;1;Same;high;70;96;70;j;n;0;f;v;1488.2625999998709
i7#1jw5;112;False;1;P = T2?;ST2_high_5;2;Same;high;96;132;132;j;n;0;f;b;1990.566200000103
i7#1jw5;113;False;1;P = T2?;ST2_low_3;2;Same;low;70;112;112;j;n;1;j;b;950.9290000005421
i7#1jw5;114;False;1;P = T1?;ST1_low_1;1;Same;low;82;132;82;j;n;0;f;n;1186.4372999998523
i7#1jw5;115;False;1;P = T1?;DT1_low_6;1;Different;low;154;96;180;j;n;1;f;b;1288.4174999999232
i7#1jw5;116;False;1;P = T2?;ST2_low_6;2;Same;low;154;96;96;j;n;0;f;b;1130.221000000347
i7#1jw5;117;False;1;P = T1?;ST1_low_6;1;Same;low;154;96;154;j;n;1;j;b;1300.7786999996824
i7#1jw5;118;False;1;P = T1?;ST1_low_1;1;Same;low;82;132;82;j;n;0;f;v;1212.1422000000166
i7#1jw5;119;False;1;P = T1?;ST2_high_1;2;Same;high;82;112;112;j;n;0;j;v;2020.2734000004057
i7#1jw5;120;False;1;P = T1?;ST1_low_1;1;Same;low;82;132;82;j;n;1;j;v;1522.9580000004717
i7#1jw5;121;False;1;P = T2?;ST2_low_4;2;Same;low;112;70;70;j;n;1;j;b;897.1968999994715
i7#1jw5;122;False;1;P = T2?;ST2_low_2;2;Same;low;132;82;82;j;n;0;f;n;1322.4696999996013
i7#1jw5;123;False;1;P = T2?;STb_8;0;Same;None;180;180;180;j;n;1;j;b;975.3461000000243
i7#1jw5;124;False;1;P = T2?;ST2_high_6;2;Same;high;132;96;96;j;n;1;j;b;868.6708999994153
i7#1jw5;125;False;1;P = T1?;ST1_high_1;1;Same;high;82;112;82;j;n;0;f;b;1055.4181999996217
i7#1jw5;126;False;1;P = T1?;ST2_low_1;2;Same;low;82;132;132;j;n;0;j;v;2611.0005000000456
i7#1jw5;127;False;1;P = T1?;ST2_low_3;2;Same;low;70;112;112;j;n;1;f;b;1176.086899999973
i7#1jw5;128;False;1;P = T1?;ST2_high_6;2;Same;high;132;96;96;j;n;0;j;v;4677.9655000000275
i7#1jw5;129;False;1;P = T2?;ST1_high_3;1;Same;high;70;96;70;j;n;0;j;v;1042.335699999967
i7#1jw5;130;False;1;P = T2?;ST2_high_3;2;Same;high;70;96;96;j;n;0;f;b;1251.7194000001837
i7#1jw5;131;False;1;P = T2?;ST2_high_6;2;Same;high;132;96;96;j;n;1;j;b;1464.145799999642
i7#1jw5;132;False;1;P = T2?;ST1_high_6;1;Same;high;132;96;132;j;n;0;j;v;3799.184399999831
i7#1jw5;133;False;1;P = T2?;ST2_high_3;2;Same;high;70;96;96;j;n;0;f;v;1518.6893000000055
i7#1jw5;134;False;1;P = T2?;ST2_high_1;2;Same;high;82;112;112;j;n;0;f;v;1176.9635999999082
i7#1jw5;135;False;1;P = T1?;DT2_low_2;2;Different;low;132;82;70;j;n;0;j;v;4349.96240000055
i7#1jw5;136;False;1;P = T2?;ST2_high_4;2;Same;high;96;70;70;j;n;0;f;v;2102.7897000003577
i7#1jw5;137;False;1;P = T1?;ST1_low_4;1;Same;low;112;70;112;j;n;1;j;v;1824.711600000228
i7#1jw5;138;False;1;P = T1?;ST1_low_6;1;Same;low;154;96;154;j;n;0;f;v;1342.8982000004908
i7#1jw5;139;False;1;P = T2?;ST1_high_3;1;Same;high;70;96;70;j;n;1;f;n;1153.4446000005119
i7#1jw5;140;False;1;P = T1?;ST1_high_2;1;Same;high;112;82;112;j;n;0;f;v;2287.199800000053
i7#1jw5;141;False;1;P = T2?;ST1_high_4;1;Same;high;96;70;96;j;n;1;f;v;3749.4116000007125
i7#1jw5;142;False;1;P = T1?;ST1_high_5;1;Same;high;96;132;96;j;n;1;j;b;1393.0059000012989
i7#1jw5;143;False;1;P = T1?;ST2_high_5;2;Same;high;96;132;132;j;n;0;j;v;2052.564199999324
i7#1jw5;144;False;1;P = T1?;ST1_high_5;1;Same;high;96;132;96;j;n;0;f;v;2717.1535000015865
i7#1jw5;145;False;1;P = T1?;DT1_high_4;1;Different;high;96;70;112;j;n;0;j;n;858.0751000008604
i7#1jw5;146;False;1;P = T2?;ST1_low_5;1;Same;low;96;154;96;j;n;0;j;b;1081.3061999997444
i7#1jw5;147;False;1;P = T1?;ST1_low_3;1;Same;low;70;112;70;j;n;1;j;b;1041.6325999995024
i7#1jw5;148;False;1;P = T1?;ST1_high_4;1;Same;high;96;70;96;j;n;1;j;b;741.4850999994087
i7#1jw5;149;False;1;P = T1?;STb_4;0;Same;None;96;96;96;j;n;0;f;v;1299.3991000003007
i7#1jw5;150;False;1;P = T2?;STb_6;0;Same;None;132;132;132;j;n;1;j;v;1668.228700000327
i7#1jw5;151;False;1;P = T1?;ST2_low_6;2;Same;low;154;96;96;j;n;0;j;v;1761.5814000000682
i7#1jw5;152;False;1;P = T2?;ST2_low_1;2;Same;low;82;132;132;j;n;1;j;v;962.2564999990573
i7#1jw5;153;False;1;P = T2?;ST1_high_2;1;Same;high;112;82;112;j;n;0;j;v;2031.4220000000205
i7#1jw5;154;False;1;P = T1?;ST1_high_6;1;Same;high;132;96;132;j;n;1;j;v;1470.479499999783
i7#1jw5;155;False;1;P = T1?;ST1_high_4;1;Same;high;96;70;96;j;n;0;f;v;2376.9226999993407
i7#1jw5;156;False;1;P = T2?;DT1_low_5;1;Different;low;96;154;82;j;n;1;f;n;1255.5592999997316
i7#1jw5;157;False;1;P = T2?;ST2_high_2;2;Same;high;112;82;82;j;n;1;j;n;1005.0070999986929
i7#1jw5;158;False;1;P = T2?;ST1_low_2;1;Same;low;132;82;132;j;n;0;j;v;3969.59489999972
i7#1jw5;159;False;1;P = T1?;ST2_low_2;2;Same;low;132;82;82;j;n;0;j;v;1435.4769000001397
i7#1jw5;160;False;1;P = T2?;ST1_low_6;1;Same;low;154;96;154;j;n;0;j;b;1015.6808000010642
i7#1jw5;161;False;1;P = T2?;ST1_low_1;1;Same;low;82;132;82;j;n;1;f;v;1112.7414000002318
i7#1jw5;162;False;1;P = T2?;ST2_high_1;2;Same;high;82;112;112;j;n;0;f;b;2122.5080999993224
i7#1jw5;163;False;1;P = T2?;ST1_low_4;1;Same;low;112;70;112;j;n;0;j;b;1251.4778999993723
i7#1jw5;164;False;1;P = T1?;ST1_low_6;1;Same;low;154;96;154;j;n;0;f;v;2081.5693000004103
i7#1jw5;165;False;1;P = T2?;ST1_high_1;1;Same;high;82;112;82;j;n;0;j;n;1318.1684000010137
i7#1jw5;166;False;1;P = T1?;ST1_high_6;1;Same;high;132;96;132;j;n;0;f;n;949.0671999992628
i7#1jw5;167;False;1;P = T1?;ST2_high_2;2;Same;high;112;82;82;j;n;1;f;b;1485.4537999999593
i7#1jw5;168;False;1;P = T2?;ST2_low_6;2;Same;low;154;96;96;j;n;0;f;v;2859.5887000010407
i7#1jw5;169;False;1;P = T1?;DT2_low_5;2;Different;low;96;154;180;j;n;1;f;n;1386.5664000004472
i7#1jw5;170;False;1;P = T1?;ST2_low_2;2;Same;low;132;82;82;j;n;1;f;b;1346.9162999990658
i7#1jw5;171;False;1;P = T1?;ST1_low_2;1;Same;low;132;82;132;j;n;1;j;v;2464.7580000000744
i7#1jw5;172;False;1;P = T2?;ST1_high_4;1;Same;high;96;70;96;j;n;0;j;n;1083.0501000000368
i7#1jw5;173;False;1;P = T2?;STb_5;0;Same;None;112;112;112;j;n;1;j;v;2383.140199999616
i7#1jw5;174;False;1;P = T2?;ST2_high_1;2;Same;high;82;112;112;j;n;1;j;n;1033.6920999998256
i7#1jw5;175;False;1;P = T2?;ST1_low_5;1;Same;low;96;154;96;j;n;1;f;v;3925.030500000503
i7#1jw5;176;False;1;P = T1?;ST2_low_6;2;Same;low;154;96;96;j;n;0;j;v;1255.0303999996686
i7#1jw5;1;True;2;P != T1?;ST1_high_6;1;Same;high;132;96;132;j;n;1;f;b;2095.823499999824
i7#1jw5;2;True;2;P != T1?;DT2_low_4;2;Different;low;112;70;60;j;n;1;j;b;1652.4410999991233
i7#1jw5;3;True;2;P != T1?;DT1_low_3;1;Different;low;70;112;60;j;n;0;f;b;1701.3237000010122
i7#1jw5;4;True;2;P != T2?;STb_5;0;Same;None;112;112;112;j;n;1;f;b;1501.715200000035
i7#1jw5;5;True;2;P != T2?;ST2_high_4;2;Same;high;96;70;70;j;n;1;f;b;1690.0473999994574
i7#1jw5;6;True;2;P != T1?;ST2_high_2;2;Same;high;112;82;82;j;n;0;f;b;1523.618199998964
i7#1jw5;7;True;2;P != T1?;ST1_low_5;1;Same;low;96;154;96;j;n;1;f;b;1658.2483000001957
i7#1jw5;8;True;2;P != T1?;STb_3;0;Same;None;82;82;82;j;n;1;f;b;1236.431100000118
i7#1jw5;9;True;2;P != T2?;ST1_low_4;1;Same;low;112;70;112;j;n;1;j;n;1696.2593000007473
i7#1jw5;10;True;2;P != T2?;ST1_high_6;1;Same;high;132;96;132;j;n;1;j;n;1536.4348999992217
i7#1jw5;11;True;2;P != T2?;DT2_high_5;2;Different;high;96;132;154;j;n;0;f;n;1534.7514000004594
i7#1jw5;12;True;2;P != T1?;STb_5;0;Same;None;112;112;112;j;n;1;f;b;1369.6691000004648
i7#1jw5;13;True;2;P != T1?;ST2_low_1;2;Same;low;82;132;132;j;n;1;j;n;898.8186999995378
i7#1jw5;14;True;2;P != T2?;STb_1;0;Same;None;60;60;60;j;n;1;f;n;913.6060000000725
i7#1jw5;15;True;2;P != T2?;ST2_low_5;2;Same;low;96;154;154;j;n;1;f;b;3482.9051999986405
i7#1jw5;16;True;2;P != T2?;DT2_low_2;2;Different;low;132;82;70;j;n;1;j;b;1580.0909999998112
i7#1jw5;1;False;2;P != T1?;ST2_low_2;2;Same;low;132;82;82;j;n;0;f;b;1080.3237999989506
i7#1jw5;2;False;2;P != T2?;ST1_high_5;1;Same;high;96;132;96;j;n;1;j;b;2252.1050999985164
i7#1jw5;3;False;2;P != T1?;ST1_high_4;1;Same;high;96;70;96;j;n;1;f;b;1146.9640000013896
i7#1jw5;4;False;2;P != T2?;ST2_low_4;2;Same;low;112;70;70;j;n;1;f;b;1163.7467999989894
i7#1jw5;5;False;2;P != T2?;ST1_low_6;1;Same;low;154;96;154;j;n;1;j;b;2530.0381000015477
i7#1jw5;6;False;2;P != T1?;ST1_low_5;1;Same;low;96;154;96;j;n;0;j;b;2338.4684000011475
i7#1jw5;7;False;2;P != T1?;ST1_low_6;1;Same;low;154;96;154;j;n;1;f;b;2837.2435000001133
i7#1jw5;8;False;2;P != T2?;ST2_high_6;2;Same;high;132;96;96;j;n;0;j;b;3695.2848000000813
i7#1jw5;9;False;2;P != T2?;ST1_high_6;1;Same;high;132;96;132;j;n;1;j;b;938.2932000007713
i7#1jw5;10;False;2;P != T2?;ST2_high_3;2;Same;high;70;96;96;j;n;0;j;b;4937.387599999056
i7#1jw5;11;False;2;P != T1?;ST1_high_3;1;Same;high;70;96;70;j;n;1;f;b;3032.0241000008537
i7#1jw5;12;False;2;P != T2?;ST2_low_2;2;Same;low;132;82;82;j;n;1;f;b;856.5767999989475
i7#1jw5;13;False;2;P != T1?;ST2_low_4;2;Same;low;112;70;70;j;n;1;j;b;1489.663099999234
i7#1jw5;14;False;2;P != T2?;DT2_high_2;2;Different;high;112;82;70;j;n;0;f;b;1061.851200000092
i7#1jw5;15;False;2;P != T2?;ST1_low_6;1;Same;low;154;96;154;j;n;0;f;b;2209.8489999989397
i7#1jw5;16;False;2;P != T1?;ST1_high_6;1;Same;high;132;96;132;j;n;0;j;v;5080.338800000391
i7#1jw5;17;False;2;P != T2?;DT1_high_2;1;Different;high;112;82;132;j;n;1;j;b;2862.051899999642
i7#1jw5;18;False;2;P != T1?;ST1_low_1;1;Same;low;82;132;82;j;n;0;j;b;1904.3622999997751
i7#1jw5;19;False;2;P != T1?;DT2_low_4;2;Different;low;112;70;60;j;n;1;j;b;4509.986900000513
i7#1jw5;20;False;2;P != T1?;ST2_low_5;2;Same;low;96;154;154;j;n;1;j;b;2746.0890999991534
i7#1jw5;21;False;2;P != T2?;ST1_low_1;1;Same;low;82;132;82;j;n;0;f;v;2647.835700001451
i7#1jw5;22;False;2;P != T2?;ST2_high_5;2;Same;high;96;132;132;j;n;0;j;b;3776.8583000015497
i7#1jw5;23;False;2;P != T1?;ST2_low_6;2;Same;low;154;96;96;j;n;1;j;b;2012.1708000006038
i7#1jw5;24;False;2;P != T2?;ST1_high_3;1;Same;high;70;96;70;j;n;0;f;b;4157.1963999995205
i7#1jw5;25;False;2;P != T1?;ST2_low_4;2;Same;low;112;70;70;j;n;0;f;v;5963.91070000027
i7#1jw5;26;False;2;P != T2?;STb_4;0;Same;None;96;96;96;j;n;0;j;b;3706.673900000169
i7#1jw5;27;False;2;P != T2?;ST2_low_6;2;Same;low;154;96;96;j;n;1;f;b;2446.709699999701
i7#1jw5;28;False;2;P != T1?;STb_8;0;Same;None;180;180;180;j;n;1;f;v;4362.694100000226
i7#1jw5;29;False;2;P != T2?;ST1_low_4;1;Same;low;112;70;112;j;n;0;f;n;1207.9765999988012
i7#1jw5;30;False;2;P != T1?;ST1_low_5;1;Same;low;96;154;96;j;n;0;j;n;1984.8927999992156
i7#1jw5;31;False;2;P != T2?;ST1_high_1;1;Same;high;82;112;82;j;n;0;f;b;3105.1123999986885
i7#1jw5;32;False;2;P != T2?;ST2_high_4;2;Same;high;96;70;70;j;n;1;f;n;1058.453700001337
i7#1jw5;33;False;2;P != T2?;ST1_low_5;1;Same;low;96;154;96;j;n;0;f;b;1337.2356999989279
i7#1jw5;34;False;2;P != T2?;ST1_low_3;1;Same;low;70;112;70;j;n;0;f;b;1192.9626000001008
i7#1jw5;35;False;2;P != T2?;ST2_high_2;2;Same;high;112;82;82;j;n;1;f;n;1405.4156000001967
i7#1jw5;36;False;2;P != T1?;ST2_low_4;2;Same;low;112;70;70;j;n;0;f;v;7268.581800000902
i7#1jw5;37;False;2;P != T2?;ST1_high_2;1;Same;high;112;82;112;j;n;1;j;b;2006.917099999555
i7#1jw5;38;False;2;P != T2?;ST1_high_6;1;Same;high;132;96;132;j;n;0;f;n;628.669900001114
i7#1jw5;39;False;2;P != T1?;ST2_low_1;2;Same;low;82;132;132;j;n;1;j;b;1140.6860999995843
i7#1jw5;40;False;2;P != T2?;ST2_high_1;2;Same;high;82;112;112;j;n;1;f;n;5150.588099999368
i7#1jw5;41;False;2;P != T1?;ST2_high_1;2;Same;high;82;112;112;j;n;0;f;n;2004.994999999326
i7#1jw5;42;False;2;P != T2?;ST2_low_5;2;Same;low;96;154;154;j;n;0;j;b;1707.7635000005102
i7#1jw5;43;False;2;P != T2?;ST1_low_5;1;Same;low;96;154;96;j;n;0;f;b;1637.3502000005828
i7#1jw5;44;False;2;P != T1?;ST1_high_1;1;Same;high;82;112;82;j;n;1;f;b;2369.08399999993
i7#1jw5;45;False;2;P != T2?;ST2_low_4;2;Same;low;112;70;70;j;n;0;j;v;4611.990699999296
i7#1jw5;46;False;2;P != T2?;STb_3;0;Same;None;82;82;82;j;n;1;f;n;1009.5295999999507
i7#1jw5;47;False;2;P != T2?;ST2_high_3;2;Same;high;70;96;96;j;n;1;f;n;1087.5388999993447
i7#1jw5;48;False;2;P != T2?;ST2_low_6;2;Same;low;154;96;96;j;n;1;f;n;947.2952999985864
i7#1jw5;49;False;2;P != T2?;ST1_high_1;1;Same;high;82;112;82;j;n;1;j;b;3718.8811999985774
i7#1jw5;50;False;2;P != T2?;ST1_low_3;1;Same;low;70;112;70;j;n;1;j;b;1741.806899999574
i7#1jw5;51;False;2;P != T1?;ST1_high_5;1;Same;high;96;132;96;j;n;0;j;b;1820.5834999989747
i7#1jw5;52;False;2;P != T1?;ST2_high_1;2;Same;high;82;112;112;j;n;1;j;n;1400.070499999856
i7#1jw5;53;False;2;P != T1?;ST2_high_2;2;Same;high;112;82;82;j;n;1;j;b;2185.0830000003043
i7#1jw5;54;False;2;P != T1?;DT1_high_2;1;Different;high;112;82;132;j;n;1;j;v;7197.12939999954
i7#1jw5;55;False;2;P != T1?;ST1_low_6;1;Same;low;154;96;154;j;n;0;j;v;1854.2648999991798
i7#1jw5;56;False;2;P != T1?;ST2_high_4;2;Same;high;96;70;70;j;n;1;j;v;4082.70789999915
i7#1jw5;57;False;2;P != T1?;ST1_low_2;1;Same;low;132;82;132;j;n;1;f;b;1358.3923000005598
i7#1jw5;58;False;2;P != T1?;ST2_low_3;2;Same;low;70;112;112;j;n;1;j;n;1343.3425000002899
i7#1jw5;59;False;2;P != T1?;ST2_high_6;2;Same;high;132;96;96;j;n;1;j;n;1535.522199999832
i7#1jw5;60;False;2;P != T1?;ST1_high_2;1;Same;high;112;82;112;j;n;0;j;v;1878.1513000012637
i7#1jw5;61;False;2;P != T2?;ST2_low_2;2;Same;low;132;82;82;j;n;1;f;v;2582.7236999994057
i7#1jw5;62;False;2;P != T2?;DT1_high_4;1;Different;high;96;70;112;j;n;0;f;b;1678.882899999735
i7#1jw5;63;False;2;P != T2?;ST2_low_3;2;Same;low;70;112;112;j;n;1;f;b;3894.32510000006
i7#1jw5;64;False;2;P != T2?;ST1_high_1;1;Same;high;82;112;82;j;n;1;j;n;1740.5039000004763
i7#1jw5;65;False;2;P != T1?;ST1_low_1;1;Same;low;82;132;82;j;n;0;j;v;1437.456800000291
i7#1jw5;66;False;2;P != T1?;ST1_low_3;1;Same;low;70;112;70;j;n;1;f;b;1655.5159999988973
i7#1jw5;67;False;2;P != T1?;ST1_low_6;1;Same;low;154;96;154;j;n;1;f;v;2605.084300001181
i7#1jw5;68;False;2;P != T1?;ST2_high_6;2;Same;high;132;96;96;j;n;0;f;n;1981.410500000493
i7#1jw5;69;False;2;P != T2?;ST1_low_4;1;Same;low;112;70;112;j;n;1;j;b;2242.004100000486
i7#1jw5;70;False;2;P != T1?;DT1_low_6;1;Different;low;154;96;180;j;n;0;f;v;4266.207900000154
i7#1jw5;71;False;2;P != T2?;ST2_low_5;2;Same;low;96;154;154;j;n;1;f;v;2039.9383000003581
i7#1jw5;72;False;2;P != T1?;ST2_high_3;2;Same;high;70;96;96;j;n;1;j;b;1339.721100001043
i7#1jw5;73;False;2;P != T1?;ST2_high_5;2;Same;high;96;132;132;j;n;0;f;b;1820.1540000009118
i7#1jw5;74;False;2;P != T2?;ST2_high_2;2;Same;high;112;82;82;j;n;0;j;b;4442.749900001218
i7#1jw5;75;False;2;P != T1?;ST2_low_3;2;Same;low;70;112;112;j;n;0;f;v;3987.832000000708
i7#1jw5;76;False;2;P != T2?;ST2_high_2;2;Same;high;112;82;82;j;n;1;f;b;1472.187199999098
i7#1jw5;77;False;2;P != T1?;ST1_low_2;1;Same;low;132;82;132;j;n;1;f;b;1584.935900000346
i7#1jw5;78;False;2;P != T2?;DT1_low_6;1;Different;low;154;96;180;j;n;1;j;n;2944.0195000006497
i7#1jw5;79;False;2;P != T2?;ST1_low_6;1;Same;low;154;96;154;j;n;0;f;b;1637.1586000004754
i7#1jw5;80;False;2;P != T2?;ST2_high_6;2;Same;high;132;96;96;j;n;1;f;n;657.9584999999497
i7#1jw5;81;False;2;P != T1?;STb_1;0;Same;None;60;60;60;j;n;1;f;b;1283.6994999997842
i7#1jw5;82;False;2;P != T1?;ST1_high_6;1;Same;high;132;96;132;j;n;1;f;b;1694.9139999996987
i7#1jw5;83;False;2;P != T2?;ST2_low_6;2;Same;low;154;96;96;j;n;1;f;b;1123.3095999996294
i7#1jw5;84;False;2;P != T1?;ST1_high_5;1;Same;high;96;132;96;j;n;1;f;v;3930.730100000801
i7#1jw5;85;False;2;P != T1?;ST2_high_4;2;Same;high;96;70;70;j;n;0;f;v;5797.833900000114
i7#1jw5;86;False;2;P != T2?;ST2_low_1;2;Same;low;82;132;132;j;n;0;j;n;1553.0051000005187
i7#1jw5;87;False;2;P != T2?;ST2_low_1;2;Same;low;82;132;132;j;n;1;f;b;1140.132000000449
i7#1jw5;88;False;2;P != T2?;STb_2;0;Same;None;70;70;70;j;n;1;f;b;1191.0358000004635
i7#1jw5;89;False;2;P != T1?;STb_3;0;Same;None;82;82;82;j;n;1;f;n;1259.9817000009352
i7#1jw5;90;False;2;P != T2?;ST1_high_6;1;Same;high;132;96;132;j;n;0;f;v;1168.260200000077
i7#1jw5;91;False;2;P != T1?;ST1_low_1;1;Same;low;82;132;82;j;n;1;f;n;1247.1031000004587
i7#1jw5;92;False;2;P != T1?;ST1_high_5;1;Same;high;96;132;96;j;n;1;f;v;1900.0749999995605
i7#1jw5;93;False;2;P != T1?;ST1_low_4;1;Same;low;112;70;112;j;n;1;f;b;1298.266900001181
i7#1jw5;94;False;2;P != T1?;ST2_low_2;2;Same;low;132;82;82;j;n;0;f;v;1279.5212000000902
i7#1jw5;95;False;2;P != T1?;STb_2;0;Same;None;70;70;70;j;n;1;f;v;6399.140999999872
i7#1jw5;96;False;2;P != T2?;ST2_low_3;2;Same;low;70;112;112;j;n;1;f;b;1085.7477999998082
i7#1jw5;97;False;2;P != T1?;DT2_high_2;2;Different;high;112;82;70;j;n;0;f;b;1045.9270000010292
i7#1jw5;98;False;2;P != T2?;STb_8;0;Same;None;180;180;180;j;n;0;j;v;2032.4352999996336
i7#1jw5;99;False;2;P != T2?;ST2_high_1;2;Same;high;82;112;112;j;n;1;f;v;1240.2180999997654
i7#1jw5;100;False;2;P != T2?;STb_6;0;Same;None;132;132;132;j;n;1;f;b;874.1832000014256
i7#1jw5;101;False;2;P != T1?;ST2_low_2;2;Same;low;132;82;82;j;n;0;f;b;924.387500001103
i7#1jw5;102;False;2;P != T1?;STb_6;0;Same;None;132;132;132;j;n;1;f;v;3002.908500000558
i7#1jw5;103;False;2;P != T1?;ST2_high_5;2;Same;high;96;132;132;j;n;1;j;v;4391.173199999685
i7#1jw5;104;False;2;P != T1?;ST1_low_3;1;Same;low;70;112;70;j;n;1;f;b;1118.625900000552
i7#1jw5;105;False;2;P != T1?;ST1_high_2;1;Same;high;112;82;112;j;n;1;f;v;855.1134999997885
i7#1jw5;106;False;2;P != T2?;ST2_low_2;2;Same;low;132;82;82;j;n;1;f;v;1288.404900000387
i7#1jw5;107;False;2;P != T2?;ST2_high_3;2;Same;high;70;96;96;j;n;0;j;b;3458.9622000003146
i7#1jw5;108;False;2;P != T2?;ST2_low_3;2;Same;low;70;112;112;j;n;0;j;b;2362.963099998524
i7#1jw5;109;False;2;P != T1?;ST2_low_5;2;Same;low;96;154;154;j;n;0;f;n;2859.364899999491
i7#1jw5;110;False;2;P != T1?;ST2_low_1;2;Same;low;82;132;132;j;n;1;j;n;1639.0449999998964
i7#1jw5;111;False;2;P != T2?;DT1_high_6;1;Different;high;132;96;154;j;n;1;j;n;1905.7143999998516
i7#1jw5;112;False;2;P != T2?;ST1_high_5;1;Same;high;96;132;96;j;n;1;j;n;1816.452400000344
i7#1jw5;113;False;2;P != T2?;ST2_low_1;2;Same;low;82;132;132;j;n;0;j;b;1448.253399999885
i7#1jw5;114;False;2;P != T2?;ST1_low_2;1;Same;low;132;82;132;j;n;1;j;n;2127.5846999997157
i7#1jw5;115;False;2;P != T2?;STb_1;0;Same;None;60;60;60;j;n;1;f;n;1916.9490000003861
i7#1jw5;116;False;2;P != T2?;STb_7;0;Same;None;154;154;154;j;n;1;f;b;1913.5086000005685
i7#1jw5;117;False;2;P != T2?;ST1_high_2;1;Same;high;112;82;112;j;n;1;j;b;1595.8855000008043
i7#1jw5;118;False;2;P != T2?;ST2_low_4;2;Same;low;112;70;70;j;n;1;f;b;1096.3037999990775
i7#1jw5;119;False;2;P != T2?;ST2_high_5;2;Same;high;96;132;132;j;n;1;f;n;1488.400599999295
i7#1jw5;120;False;2;P != T1?;ST2_low_6;2;Same;low;154;96;96;j;n;1;j;n;2242.396199999348
i7#1jw5;121;False;2;P != T2?;ST2_high_4;2;Same;high;96;70;70;j;n;1;f;n;1021.2706000002072
i7#1jw5;122;False;2;P != T1?;STb_4;0;Same;None;96;96;96;j;n;1;f;v;4751.75339999987
i7#1jw5;123;False;2;P != T1?;STb_7;0;Same;None;154;154;154;j;n;0;j;v;1570.1962000002823
i7#1jw5;124;False;2;P != T1?;ST2_low_3;2;Same;low;70;112;112;j;n;1;j;v;3936.7357999999513
i7#1jw5;125;False;2;P != T1?;ST1_high_4;1;Same;high;96;70;96;j;n;0;j;v;2899.638299999424
i7#1jw5;126;False;2;P != T1?;ST2_low_1;2;Same;low;82;132;132;j;n;1;j;v;1569.0281999995932
i7#1jw5;127;False;2;P != T1?;ST2_high_3;2;Same;high;70;96;96;j;n;1;j;b;1855.2644000010332
i7#1jw5;128;False;2;P != T2?;DT1_low_4;1;Different;low;112;70;132;j;n;1;j;b;1520.8607999993546
i7#1jw5;129;False;2;P != T2?;ST1_high_5;1;Same;high;96;132;96;j;n;1;j;n;1494.2515999991883
i7#1jw5;130;False;2;P != T2?;ST1_high_3;1;Same;high;70;96;70;j;n;1;j;v;1265.2202000008401
i7#1jw5;131;False;2;P != T1?;DT2_high_4;2;Different;high;96;70;60;j;n;1;j;n;1426.4196999993146
i7#1jw5;132;False;2;P != T1?;ST2_high_1;2;Same;high;82;112;112;j;n;1;j;v;4093.2049000002735
i7#1jw5;133;False;2;P != T1?;ST2_high_6;2;Same;high;132;96;96;j;n;1;j;v;1348.9712999999028
i7#1jw5;134;False;2;P != T2?;ST2_low_5;2;Same;low;96;154;154;j;n;1;f;v;2407.2087000004103
i7#1jw5;135;False;2;P != T2?;ST1_low_5;1;Same;low;96;154;96;j;n;1;j;v;2327.506900001026
i7#1jw5;136;False;2;P != T1?;ST1_high_2;1;Same;high;112;82;112;j;n;1;f;v;3739.6767000009277
i7#1jw5;137;False;2;P != T2?;ST1_high_4;1;Same;high;96;70;96;j;n;1;j;b;1329.6023000002606
i7#1jw5;138;False;2;P != T2?;ST1_low_1;1;Same;low;82;132;82;j;n;0;f;v;3630.032300001403
i7#1jw5;139;False;2;P != T1?;ST1_high_3;1;Same;high;70;96;70;j;n;1;f;b;1831.5523000001122
i7#1jw5;140;False;2;P != T1?;ST1_high_1;1;Same;high;82;112;82;j;n;1;f;v;3898.7322999983007
i7#1jw5;141;False;2;P != T2?;ST1_low_4;1;Same;low;112;70;112;j;n;0;f;v;5452.8503000001365
i7#1jw5;142;False;2;P != T2?;STb_5;0;Same;None;112;112;112;j;n;1;f;v;1217.7114999994956
i7#1jw5;143;False;2;P != T1?;DT1_low_5;1;Different;low;96;154;82;j;n;0;f;v;11148.013800000626
i7#1jw5;144;False;2;P != T2?;ST1_low_2;1;Same;low;132;82;132;j;n;1;j;n;1358.4103000011964
i7#1jw5;145;False;2;P != T1?;ST1_high_4;1;Same;high;96;70;96;j;n;0;j;v;1950.7346999998845
i7#1jw5;146;False;2;P != T1?;ST1_low_3;1;Same;low;70;112;70;j;n;1;f;b;1477.25999999966
i7#1jw5;147;False;2;P != T2?;ST2_high_4;2;Same;high;96;70;70;j;n;1;f;n;1138.5958999999275
i7#1jw5;148;False;2;P != T1?;ST1_low_4;1;Same;low;112;70;112;j;n;1;f;n;1225.9156000000075
i7#1jw5;149;False;2;P != T1?;ST1_low_4;1;Same;low;112;70;112;j;n;1;f;n;917.9163000007975
i7#1jw5;150;False;2;P != T1?;DT1_high_1;1;Different;high;82;112;70;j;n;0;f;n;1330.0232000001415
i7#1jw5;151;False;2;P != T2?;ST1_low_2;1;Same;low;132;82;132;j;n;1;j;v;1808.293500000218
i7#1jw5;152;False;2;P != T1?;ST2_high_2;2;Same;high;112;82;82;j;n;1;j;v;1919.7182999996585
i7#1jw5;153;False;2;P != T1?;ST1_high_3;1;Same;high;70;96;70;j;n;0;j;v;2726.215400000001
i7#1jw5;154;False;2;P != T1?;ST2_high_3;2;Same;high;70;96;96;j;n;1;j;v;2195.8271999992576
i7#1jw5;155;False;2;P != T1?;ST1_low_2;1;Same;low;132;82;132;j;n;1;f;v;1601.7006000001857
i7#1jw5;156;False;2;P != T2?;ST1_high_4;1;Same;high;96;70;96;j;n;0;f;b;2803.063999999722
i7#1jw5;157;False;2;P != T2?;ST1_high_3;1;Same;high;70;96;70;j;n;0;f;n;1021.560999999565
i7#1jw5;158;False;2;P != T1?;ST2_high_4;2;Same;high;96;70;70;j;n;0;f;n;904.2972000006557
i7#1jw5;159;False;2;P != T1?;ST2_high_5;2;Same;high;96;132;132;j;n;1;j;n;1550.1271000011911
i7#1jw5;160;False;2;P != T2?;ST2_high_6;2;Same;high;132;96;96;j;n;1;f;n;1075.9195999999065
i7#1jw5;161;False;2;P != T2?;ST1_low_1;1;Same;low;82;132;82;j;n;1;j;n;1145.0483999997232
i7#1jw5;162;False;2;P != T2?;DT2_high_3;2;Different;high;70;96;112;j;n;1;j;v;2876.645299998927
i7#1jw5;163;False;2;P != T2?;ST1_high_2;1;Same;high;112;82;112;j;n;1;j;b;1509.6195999994961
i7#1jw5;164;False;2;P != T1?;ST1_high_6;1;Same;high;132;96;132;j;n;1;f;b;1308.4837000005791
i7#1jw5;165;False;2;P != T1?;STb_5;0;Same;None;112;112;112;j;n;1;f;b;1452.2197999995115
i7#1jw5;166;False;2;P != T1?;ST1_high_1;1;Same;high;82;112;82;j;n;0;j;v;2557.6657999990857
i7#1jw5;167;False;2;P != T2?;ST2_high_5;2;Same;high;96;132;132;j;n;1;f;n;863.8840000003256
i7#1jw5;168;False;2;P != T1?;ST2_high_2;2;Same;high;112;82;82;j;n;1;j;n;1302.3917000009533
i7#1jw5;169;False;2;P != T1?;DT1_low_3;1;Different;low;70;112;60;j;n;0;f;b;1630.5049999991752
i7#1jw5;170;False;2;P != T1?;ST2_low_5;2;Same;low;96;154;154;j;n;1;j;n;2308.8496000000305
i7#1jw5;171;False;2;P != T2?;DT2_low_4;2;Different;low;112;70;60;j;n;0;f;n;1061.038499999995
i7#1jw5;172;False;2;P != T2?;ST2_high_1;2;Same;high;82;112;112;j;n;1;f;n;1045.8536000005552
i7#1jw5;173;False;2;P != T1?;ST1_low_5;1;Same;low;96;154;96;j;n;1;f;n;2455.2913999996235
i7#1jw5;174;False;2;P != T2?;ST1_low_3;1;Same;low;70;112;70;j;n;0;f;n;1353.0860000009852
i7#1jw5;175;False;2;P != T1?;ST2_low_6;2;Same;low;154;96;96;j;n;0;f;b;1147.5140000002284
i7#1jw5;176;False;2;P != T2?;ST1_high_4;1;Same;high;96;70;96;j;n;1;j;n;1341.8070000006992
