p_code;trial_nr;practice;block;question;condition;seqPos;Same_or_Diff;ITS;T1_hz;T2_hz;P_hz;yes_key;sure_key;correct;yes_no;rating;resp_time
6w1zm8#;1;True;1;P = T2?;DT1_low_1;1;Different;low;82;132;70;j;v;1;f;v;3624.212599999737
6w1zm8#;2;True;1;P = T1?;STb_1;0;Same;None;60;60;60;j;v;1;j;v;2568.6629000010726
6w1zm8#;3;True;1;P = T2?;STb_5;0;Same;None;112;112;112;j;v;1;j;b;2879.559299999528
6w1zm8#;4;True;1;P = T1?;DT1_low_5;1;Different;low;96;154;82;j;v;1;f;n;8753.785500000959
6w1zm8#;5;True;1;P = T1?;ST1_low_1;1;Same;low;82;132;82;j;v;0;f;b;1534.357500000624
6w1zm8#;6;True;1;P = T2?;STb_2;0;Same;None;70;70;70;j;v;0;f;v;2831.387599999289
6w1zm8#;7;True;1;P = T2?;ST1_low_6;1;Same;low;154;96;154;j;v;0;j;n;1787.0179999990796
6w1zm8#;8;True;1;P = T1?;STb_2;0;Same;None;70;70;70;j;v;1;j;b;1894.4585000008374
6w1zm8#;9;True;1;P = T2?;DT2_high_6;2;Different;high;132;96;82;j;v;1;f;b;1332.4596999991627
6w1zm8#;10;True;1;P = T1?;ST1_high_4;1;Same;high;96;70;96;j;v;1;j;n;2534.3874000009237
6w1zm8#;11;True;1;P = T1?;ST2_low_1;2;Same;low;82;132;132;j;v;1;f;v;1409.6579999986716
6w1zm8#;12;True;1;P = T2?;ST1_high_1;1;Same;high;82;112;82;j;v;1;f;v;2635.8276000009937
6w1zm8#;13;True;1;P = T1?;DT1_low_1;1;Different;low;82;132;70;j;v;0;j;b;1026.6945000003034
6w1zm8#;14;True;1;P = T1?;ST2_high_1;2;Same;high;82;112;112;j;v;1;f;v;1066.554000000906
6w1zm8#;15;True;1;P = T2?;ST2_high_1;2;Same;high;82;112;112;j;v;1;j;v;1230.1326999986486
6w1zm8#;16;True;1;P = T2?;ST2_high_1;2;Same;high;82;112;112;j;v;1;j;v;605.2349000001414
p_code;trial_nr;practice;block;question;condition;seqPos;Same_or_Diff;ITS;T1_hz;T2_hz;P_hz;yes_key;sure_key;correct;yes_no;rating;resp_time
6w1zm8#;1;False;1;P = T1?;ST1_low_3;1;Same;low;70;112;70;j;v;1;j;b;6699.630299999626
6w1zm8#;2;False;1;P = T1?;ST2_low_2;2;Same;low;132;82;82;j;v;1;f;v;1455.8210000013787
6w1zm8#;3;False;1;P = T1?;ST1_low_3;1;Same;low;70;112;70;j;v;1;j;v;2408.6249000010866
6w1zm8#;4;False;1;P = T1?;ST2_low_5;2;Same;low;96;154;154;j;v;1;f;v;1717.7119000007224
6w1zm8#;5;False;1;P = T1?;STb_2;0;Same;None;70;70;70;j;v;1;j;v;4795.861999999033
6w1zm8#;6;False;1;P = T1?;ST2_low_5;2;Same;low;96;154;154;j;v;1;f;v;1246.9466000002285
6w1zm8#;7;False;1;P = T1?;ST1_low_4;1;Same;low;112;70;112;j;v;1;j;n;5583.577900000819
6w1zm8#;8;False;1;P = T2?;ST2_low_5;2;Same;low;96;154;154;j;v;1;j;v;1442.3225000009552
6w1zm8#;9;False;1;P = T1?;STb_6;0;Same;None;132;132;132;j;v;1;j;v;4677.030800001376
6w1zm8#;10;False;1;P = T1?;ST1_low_1;1;Same;low;82;132;82;j;v;1;j;b;2636.1396000011155
6w1zm8#;11;False;1;P = T2?;ST1_high_5;1;Same;high;96;132;96;j;v;0;j;v;1640.272399999958
6w1zm8#;12;False;1;P = T1?;ST2_high_2;2;Same;high;112;82;82;j;v;1;f;v;3168.7160000001313
6w1zm8#;13;False;1;P = T2?;ST1_low_4;1;Same;low;112;70;112;j;v;0;j;b;2482.7588999996806
6w1zm8#;14;False;1;P = T2?;ST1_low_5;1;Same;low;96;154;96;j;v;0;j;b;1464.0374000009615
6w1zm8#;15;False;1;P = T2?;ST1_low_1;1;Same;low;82;132;82;j;v;0;j;v;1243.27219999941
6w1zm8#;16;False;1;P = T2?;ST1_low_5;1;Same;low;96;154;96;j;v;0;j;b;4718.574399999852
6w1zm8#;17;False;1;P = T2?;ST1_high_3;1;Same;high;70;96;70;j;v;0;j;b;1907.8078000002279
6w1zm8#;18;False;1;P = T1?;ST2_high_1;2;Same;high;82;112;112;j;v;1;f;v;1981.5417000008893
6w1zm8#;19;False;1;P = T1?;ST2_low_3;2;Same;low;70;112;112;j;v;1;f;v;1175.4213999993226
6w1zm8#;20;False;1;P = T1?;ST2_low_6;2;Same;low;154;96;96;j;v;1;f;v;3148.7544999999955
6w1zm8#;21;False;1;P = T1?;ST2_high_3;2;Same;high;70;96;96;j;v;0;j;b;3310.3336000003765
6w1zm8#;22;False;1;P = T1?;ST1_high_4;1;Same;high;96;70;96;j;v;1;j;n;9657.970099999147
6w1zm8#;23;False;1;P = T2?;ST2_high_1;2;Same;high;82;112;112;j;v;1;j;b;1085.9056000008422
6w1zm8#;24;False;1;P = T2?;ST1_high_5;1;Same;high;96;132;96;j;v;1;f;v;8535.637099999803
6w1zm8#;25;False;1;P = T1?;STb_3;0;Same;None;82;82;82;j;v;0;f;v;4581.868299999769
6w1zm8#;26;False;1;P = T2?;ST2_low_6;2;Same;low;154;96;96;j;v;1;j;v;1796.1047000007966
6w1zm8#;27;False;1;P = T2?;ST1_high_6;1;Same;high;132;96;132;j;v;0;j;v;2239.7060000002966
6w1zm8#;28;False;1;P = T1?;STb_8;0;Same;None;180;180;180;j;v;0;f;b;1825.4030999996758
6w1zm8#;29;False;1;P = T2?;ST1_low_2;1;Same;low;132;82;132;j;v;1;f;b;6470.455099999526
6w1zm8#;30;False;1;P = T2?;ST2_high_4;2;Same;high;96;70;70;j;v;0;f;b;4428.927299999486
6w1zm8#;31;False;1;P = T1?;ST1_high_6;1;Same;high;132;96;132;j;v;1;j;b;2165.8996000005573
6w1zm8#;32;False;1;P = T1?;ST1_low_5;1;Same;low;96;154;96;j;v;1;j;n;3168.482299999596
6w1zm8#;33;False;1;P = T1?;ST2_low_4;2;Same;low;112;70;70;j;v;0;j;b;3418.471300001329
6w1zm8#;34;False;1;P = T1?;ST2_low_6;2;Same;low;154;96;96;j;v;0;j;b;2200.8900999990146
6w1zm8#;35;False;1;P = T1?;ST2_high_2;2;Same;high;112;82;82;j;v;0;j;b;1702.1693000006053
6w1zm8#;36;False;1;P = T2?;ST2_high_3;2;Same;high;70;96;96;j;v;0;f;v;3910.684200000105
6w1zm8#;37;False;1;P = T1?;STb_7;0;Same;None;154;154;154;j;v;1;j;v;5229.2967999983375
6w1zm8#;38;False;1;P = T1?;ST1_low_6;1;Same;low;154;96;154;j;v;1;j;b;2607.5945000011416
6w1zm8#;39;False;1;P = T1?;DT1_high_3;1;Different;high;70;96;60;j;v;0;j;n;2662.4088999997184
6w1zm8#;40;False;1;P = T1?;ST2_low_3;2;Same;low;70;112;112;j;v;1;f;v;1487.9925999994157
6w1zm8#;41;False;1;P = T1?;ST2_low_1;2;Same;low;82;132;132;j;v;1;f;v;1615.3687999994872
6w1zm8#;42;False;1;P = T1?;DT2_high_3;2;Different;high;70;96;112;j;v;1;f;v;1291.309000000183
6w1zm8#;43;False;1;P = T1?;ST1_low_2;1;Same;low;132;82;132;j;v;1;j;b;3112.4863999993977
6w1zm8#;44;False;1;P = T2?;ST1_low_6;1;Same;low;154;96;154;j;v;1;f;v;1427.2813000006863
6w1zm8#;45;False;1;P = T1?;ST1_low_4;1;Same;low;112;70;112;j;v;1;j;b;1903.1209999993735
6w1zm8#;46;False;1;P = T1?;ST2_high_3;2;Same;high;70;96;96;j;v;0;j;b;1837.9609000003256
6w1zm8#;47;False;1;P = T2?;ST1_high_6;1;Same;high;132;96;132;j;v;1;f;v;2098.720500000127
6w1zm8#;48;False;1;P = T2?;ST1_low_3;1;Same;low;70;112;70;j;v;0;j;n;2081.2151999998605
6w1zm8#;49;False;1;P = T1?;ST2_low_5;2;Same;low;96;154;154;j;v;1;f;v;1462.0242000000871
6w1zm8#;50;False;1;P = T1?;ST1_low_2;1;Same;low;132;82;132;j;v;1;j;b;4071.879799999806
6w1zm8#;51;False;1;P = T1?;STb_5;0;Same;None;112;112;112;j;v;0;f;v;1842.8191000002698
6w1zm8#;52;False;1;P = T2?;ST2_high_3;2;Same;high;70;96;96;j;v;1;j;b;1899.594700000307
6w1zm8#;53;False;1;P = T1?;ST1_high_4;1;Same;high;96;70;96;j;v;1;j;b;2717.3380000003817
6w1zm8#;54;False;1;P = T2?;ST2_high_2;2;Same;high;112;82;82;j;v;0;f;v;4384.436899999855
6w1zm8#;55;False;1;P = T1?;ST2_low_2;2;Same;low;132;82;82;j;v;0;j;b;1774.6557999998913
6w1zm8#;56;False;1;P = T2?;ST2_low_2;2;Same;low;132;82;82;j;v;1;j;b;1644.8720000007597
6w1zm8#;57;False;1;P = T1?;ST1_high_4;1;Same;high;96;70;96;j;v;1;j;b;2081.706299999496
6w1zm8#;58;False;1;P = T2?;ST1_high_1;1;Same;high;82;112;82;j;v;0;j;b;2898.3840999990207
6w1zm8#;59;False;1;P = T1?;ST1_high_5;1;Same;high;96;132;96;j;v;0;f;v;1176.9513999988703
6w1zm8#;60;False;1;P = T1?;DT2_low_1;2;Different;low;82;132;154;j;v;0;j;b;4749.137599999813
6w1zm8#;61;False;1;P = T2?;ST2_high_6;2;Same;high;132;96;96;j;v;1;j;n;5649.2011999998795
6w1zm8#;62;False;1;P = T2?;ST1_high_5;1;Same;high;96;132;96;j;v;1;f;v;1391.1416000009922
6w1zm8#;63;False;1;P = T1?;ST1_high_1;1;Same;high;82;112;82;j;v;0;f;v;6391.149300001416
6w1zm8#;64;False;1;P = T2?;ST2_low_1;2;Same;low;82;132;132;j;v;1;j;v;1502.2189000010258
6w1zm8#;65;False;1;P = T1?;ST2_high_6;2;Same;high;132;96;96;j;v;0;j;v;1240.4430999995384
6w1zm8#;66;False;1;P = T2?;ST2_low_3;2;Same;low;70;112;112;j;v;1;j;v;5504.858800000875
6w1zm8#;67;False;1;P = T1?;DT1_high_1;1;Different;high;82;112;70;j;v;1;f;b;2377.21479999891
6w1zm8#;68;False;1;P = T2?;ST2_low_2;2;Same;low;132;82;82;j;v;0;f;v;2343.122600001152
6w1zm8#;69;False;1;P = T1?;ST2_low_3;2;Same;low;70;112;112;j;v;1;f;v;1155.0112999993871
6w1zm8#;70;False;1;P = T1?;ST1_low_1;1;Same;low;82;132;82;j;v;1;j;b;2317.047000000457
6w1zm8#;71;False;1;P = T2?;ST1_high_2;1;Same;high;112;82;112;j;v;1;f;v;1699.2795999994996
6w1zm8#;72;False;1;P = T2?;ST2_high_5;2;Same;high;96;132;132;j;v;1;j;b;1398.1172000003426
6w1zm8#;73;False;1;P = T1?;ST2_high_6;2;Same;high;132;96;96;j;v;0;j;v;1976.0105999994266
6w1zm8#;74;False;1;P = T2?;ST2_low_5;2;Same;low;96;154;154;j;v;1;j;v;1200.7308000011108
6w1zm8#;75;False;1;P = T1?;ST2_low_6;2;Same;low;154;96;96;j;v;1;f;v;3173.8590999993903
6w1zm8#;76;False;1;P = T2?;ST1_low_4;1;Same;low;112;70;112;j;v;1;f;v;3674.76650000026
6w1zm8#;77;False;1;P = T1?;ST2_high_1;2;Same;high;82;112;112;j;v;1;f;v;2442.0707000008406
6w1zm8#;78;False;1;P = T1?;ST1_low_1;1;Same;low;82;132;82;j;v;1;j;b;2375.8459000000585
6w1zm8#;79;False;1;P = T1?;ST1_high_1;1;Same;high;82;112;82;j;v;1;j;b;2123.2875999994576
6w1zm8#;80;False;1;P = T1?;ST1_low_6;1;Same;low;154;96;154;j;v;1;j;b;1992.5708999999188
6w1zm8#;81;False;1;P = T1?;ST1_low_3;1;Same;low;70;112;70;j;v;1;j;b;2740.4287999997905
6w1zm8#;82;False;1;P = T1?;ST2_low_2;2;Same;low;132;82;82;j;v;1;f;v;1596.2405999998737
6w1zm8#;83;False;1;P = T1?;ST2_low_4;2;Same;low;112;70;70;j;v;1;f;v;2630.86260000091
6w1zm8#;84;False;1;P = T2?;ST1_low_6;1;Same;low;154;96;154;j;v;1;f;v;1243.5952000014368
6w1zm8#;85;False;1;P = T2?;ST1_high_3;1;Same;high;70;96;70;j;v;1;f;v;3276.127200000701
6w1zm8#;86;False;1;P = T2?;STb_5;0;Same;None;112;112;112;j;v;1;j;v;1557.264999999461
6w1zm8#;87;False;1;P = T2?;ST2_high_1;2;Same;high;82;112;112;j;v;1;j;v;1264.6538999997574
6w1zm8#;88;False;1;P = T2?;DT2_high_5;2;Different;high;96;132;154;j;v;1;f;v;3750.501600001371
6w1zm8#;89;False;1;P = T1?;ST1_high_2;1;Same;high;112;82;112;j;v;0;f;v;3090.2210000003834
6w1zm8#;90;False;1;P = T2?;ST1_high_4;1;Same;high;96;70;96;j;v;0;j;b;2004.9234999987675
6w1zm8#;91;False;1;P = T1?;ST1_high_2;1;Same;high;112;82;112;j;v;1;j;n;2785.35009999905
6w1zm8#;92;False;1;P = T2?;ST2_high_1;2;Same;high;82;112;112;j;v;1;j;v;3473.0163000003813
6w1zm8#;93;False;1;P = T2?;ST2_high_2;2;Same;high;112;82;82;j;v;1;j;v;3393.550900000264
6w1zm8#;94;False;1;P = T2?;ST2_low_4;2;Same;low;112;70;70;j;v;1;j;v;1191.5328000013687
6w1zm8#;95;False;1;P = T2?;STb_3;0;Same;None;82;82;82;j;v;1;j;v;1103.7484999997105
6w1zm8#;96;False;1;P = T2?;DT2_high_6;2;Different;high;132;96;82;j;v;1;f;v;1893.4088999994856
6w1zm8#;97;False;1;P = T1?;DT1_low_3;1;Different;low;70;112;60;j;v;0;j;v;3005.263400000331
6w1zm8#;98;False;1;P = T1?;ST2_high_2;2;Same;high;112;82;82;j;v;0;j;v;1322.773399999278
6w1zm8#;99;False;1;P = T2?;ST1_low_4;1;Same;low;112;70;112;j;v;0;j;b;2709.241500000644
6w1zm8#;100;False;1;P = T2?;STb_4;0;Same;None;96;96;96;j;v;1;j;b;1897.8462999984913
6w1zm8#;101;False;1;P = T1?;ST2_high_1;2;Same;high;82;112;112;j;v;0;j;b;1826.5394999998534
6w1zm8#;102;False;1;P = T2?;ST2_high_5;2;Same;high;96;132;132;j;v;1;j;b;1863.990100000592
6w1zm8#;103;False;1;P = T2?;STb_1;0;Same;None;60;60;60;j;v;1;j;v;1891.0059999998339
6w1zm8#;104;False;1;P = T2?;STb_7;0;Same;None;154;154;154;j;v;1;j;v;1171.1556000009296
6w1zm8#;105;False;1;P = T1?;ST1_high_3;1;Same;high;70;96;70;j;v;1;j;b;5222.326799999792
6w1zm8#;106;False;1;P = T2?;ST1_low_2;1;Same;low;132;82;132;j;v;0;j;b;1338.1894000012835
6w1zm8#;107;False;1;P = T1?;ST2_high_5;2;Same;high;96;132;132;j;v;1;f;b;1334.6483999994234
6w1zm8#;108;False;1;P = T2?;ST2_low_5;2;Same;low;96;154;154;j;v;1;j;v;1285.863099999915
6w1zm8#;109;False;1;P = T2?;ST1_high_1;1;Same;high;82;112;82;j;v;0;j;v;1665.7133000007889
6w1zm8#;110;False;1;P = T1?;DT2_high_6;2;Different;high;132;96;82;j;v;1;f;b;1088.0776000012702
6w1zm8#;111;False;1;P = T2?;ST2_high_6;2;Same;high;132;96;96;j;v;1;j;b;1174.1351000000577
6w1zm8#;112;False;1;P = T1?;ST2_high_4;2;Same;high;96;70;70;j;v;1;f;v;1416.153199999826
6w1zm8#;113;False;1;P = T1?;ST1_high_3;1;Same;high;70;96;70;j;v;1;j;v;1273.758799999996
6w1zm8#;114;False;1;P = T2?;DT2_low_3;2;Different;low;70;112;132;j;v;0;j;b;1192.1469999997498
6w1zm8#;115;False;1;P = T2?;ST1_high_2;1;Same;high;112;82;112;j;v;0;j;b;1939.8725999999442
6w1zm8#;116;False;1;P = T2?;ST2_low_6;2;Same;low;154;96;96;j;v;0;f;b;3100.217799999882
6w1zm8#;117;False;1;P = T1?;ST1_high_5;1;Same;high;96;132;96;j;v;1;j;b;1882.7006000010442
6w1zm8#;118;False;1;P = T2?;STb_8;0;Same;None;180;180;180;j;v;1;j;v;1348.2232999995176
6w1zm8#;119;False;1;P = T1?;ST1_high_3;1;Same;high;70;96;70;j;v;1;j;v;1211.4032000008592
6w1zm8#;120;False;1;P = T2?;ST1_low_3;1;Same;low;70;112;70;j;v;1;f;v;1259.0861999997287
6w1zm8#;121;False;1;P = T1?;ST1_high_6;1;Same;high;132;96;132;j;v;1;j;b;1577.7656999998726
6w1zm8#;122;False;1;P = T2?;DT2_low_2;2;Different;low;132;82;70;j;v;1;f;v;1883.8162000010925
6w1zm8#;123;False;1;P = T2?;DT1_high_6;1;Different;high;132;96;154;j;v;1;f;v;1956.592400001682
6w1zm8#;124;False;1;P = T1?;ST2_high_5;2;Same;high;96;132;132;j;v;1;f;v;2760.949999999866
6w1zm8#;125;False;1;P = T1?;STb_4;0;Same;None;96;96;96;j;v;1;j;b;1888.9640999987023
6w1zm8#;126;False;1;P = T2?;ST2_high_4;2;Same;high;96;70;70;j;v;1;j;b;3103.385399999752
6w1zm8#;127;False;1;P = T1?;DT2_low_4;2;Different;low;112;70;60;j;v;1;f;v;1248.2049999998708
6w1zm8#;128;False;1;P = T1?;ST1_low_4;1;Same;low;112;70;112;j;v;0;f;v;1980.2725999998074
6w1zm8#;129;False;1;P = T1?;ST2_low_1;2;Same;low;82;132;132;j;v;1;f;v;1911.4666000004945
6w1zm8#;130;False;1;P = T2?;ST1_high_3;1;Same;high;70;96;70;j;v;1;f;b;1504.1585999988456
6w1zm8#;131;False;1;P = T2?;ST1_high_1;1;Same;high;82;112;82;j;v;1;f;v;5558.430799999769
6w1zm8#;132;False;1;P = T1?;ST1_low_5;1;Same;low;96;154;96;j;v;0;f;v;970.0147999992623
6w1zm8#;133;False;1;P = T2?;ST1_high_2;1;Same;high;112;82;112;j;v;0;j;b;954.3995999993058
6w1zm8#;134;False;1;P = T2?;ST1_high_4;1;Same;high;96;70;96;j;v;1;f;v;1040.47090000131
6w1zm8#;135;False;1;P = T2?;ST1_low_6;1;Same;low;154;96;154;j;v;1;f;b;1654.1592000012315
6w1zm8#;136;False;1;P = T1?;ST2_high_6;2;Same;high;132;96;96;j;v;0;j;b;1808.0293999992136
6w1zm8#;137;False;1;P = T2?;DT2_low_1;2;Different;low;82;132;154;j;v;0;j;v;1043.354299999919
6w1zm8#;138;False;1;P = T1?;ST2_high_4;2;Same;high;96;70;70;j;v;0;j;n;3987.3060999998415
6w1zm8#;139;False;1;P = T2?;ST1_low_1;1;Same;low;82;132;82;j;v;1;f;v;1257.2440999992978
6w1zm8#;140;False;1;P = T2?;DT1_high_2;1;Different;high;112;82;132;j;v;1;f;b;1346.5214000007109
6w1zm8#;141;False;1;P = T2?;ST2_high_2;2;Same;high;112;82;82;j;v;1;j;b;982.7765000009094
6w1zm8#;142;False;1;P = T2?;DT2_low_4;2;Different;low;112;70;60;j;v;0;j;b;1198.4652999999525
6w1zm8#;143;False;1;P = T1?;ST1_low_5;1;Same;low;96;154;96;j;v;0;f;b;1287.3865000001388
6w1zm8#;144;False;1;P = T2?;ST1_high_4;1;Same;high;96;70;96;j;v;1;f;v;2133.61950000035
6w1zm8#;145;False;1;P = T2?;ST1_high_6;1;Same;high;132;96;132;j;v;1;f;b;1272.3127999997814
6w1zm8#;146;False;1;P = T2?;ST2_high_6;2;Same;high;132;96;96;j;v;0;f;n;4083.476399999199
6w1zm8#;147;False;1;P = T1?;ST1_low_6;1;Same;low;154;96;154;j;v;1;j;b;1322.557899999083
6w1zm8#;148;False;1;P = T2?;ST2_high_4;2;Same;high;96;70;70;j;v;1;j;b;1624.9668999989808
6w1zm8#;149;False;1;P = T2?;ST2_low_4;2;Same;low;112;70;70;j;v;1;j;v;868.442099999811
6w1zm8#;150;False;1;P = T2?;ST2_high_5;2;Same;high;96;132;132;j;v;1;j;v;896.799899999678
6w1zm8#;151;False;1;P = T1?;STb_1;0;Same;None;60;60;60;j;v;1;j;v;578.99130000078
6w1zm8#;152;False;1;P = T1?;ST2_low_1;2;Same;low;82;132;132;j;v;1;f;v;901.0732999995525
6w1zm8#;153;False;1;P = T1?;ST1_high_5;1;Same;high;96;132;96;j;v;1;j;b;1373.7688000001071
6w1zm8#;154;False;1;P = T2?;STb_6;0;Same;None;132;132;132;j;v;1;j;v;784.0137999992294
6w1zm8#;155;False;1;P = T2?;ST2_low_2;2;Same;low;132;82;82;j;v;1;j;v;879.6027000007598
6w1zm8#;156;False;1;P = T1?;ST1_high_1;1;Same;high;82;112;82;j;v;1;j;b;2276.5519999993558
6w1zm8#;157;False;1;P = T2?;ST2_low_1;2;Same;low;82;132;132;j;v;1;j;v;985.852399999203
6w1zm8#;158;False;1;P = T1?;ST1_low_2;1;Same;low;132;82;132;j;v;1;j;b;2102.122700000109
6w1zm8#;159;False;1;P = T2?;ST2_low_6;2;Same;low;154;96;96;j;v;1;j;v;2363.59099999936
6w1zm8#;160;False;1;P = T1?;DT2_low_2;2;Different;low;132;82;70;j;v;1;f;v;2375.0526000003447
6w1zm8#;161;False;1;P = T2?;ST2_low_3;2;Same;low;70;112;112;j;v;1;j;v;2026.9491999988531
6w1zm8#;162;False;1;P = T2?;ST2_low_4;2;Same;low;112;70;70;j;v;1;j;v;1123.2503999999608
6w1zm8#;163;False;1;P = T1?;ST1_high_2;1;Same;high;112;82;112;j;v;1;j;b;2155.535100000634
6w1zm8#;164;False;1;P = T2?;ST1_low_1;1;Same;low;82;132;82;j;v;0;j;n;1680.8412000009412
6w1zm8#;165;False;1;P = T1?;ST2_high_4;2;Same;high;96;70;70;j;v;1;f;v;1009.5923999997467
6w1zm8#;166;False;1;P = T1?;ST2_low_4;2;Same;low;112;70;70;j;v;1;f;v;1020.821199999773
6w1zm8#;167;False;1;P = T2?;STb_2;0;Same;None;70;70;70;j;v;1;j;v;1104.8297999986971
6w1zm8#;168;False;1;P = T2?;ST2_low_3;2;Same;low;70;112;112;j;v;1;j;v;672.5052000001597
6w1zm8#;169;False;1;P = T1?;ST1_high_6;1;Same;high;132;96;132;j;v;1;j;v;996.6678000000684
6w1zm8#;170;False;1;P = T1?;ST2_high_5;2;Same;high;96;132;132;j;v;0;j;b;1890.3288999990764
6w1zm8#;171;False;1;P = T2?;ST1_low_5;1;Same;low;96;154;96;j;v;1;f;b;1366.5423999991617
6w1zm8#;172;False;1;P = T2?;ST1_low_3;1;Same;low;70;112;70;j;v;1;f;v;1823.0559000003268
6w1zm8#;173;False;1;P = T2?;ST1_low_2;1;Same;low;132;82;132;j;v;1;f;b;3658.853500000987
6w1zm8#;174;False;1;P = T2?;ST2_low_1;2;Same;low;82;132;132;j;v;1;j;b;1458.6263000001054
6w1zm8#;175;False;1;P = T1?;ST2_high_3;2;Same;high;70;96;96;j;v;1;f;b;1402.6565999993181
6w1zm8#;176;False;1;P = T2?;ST2_high_3;2;Same;high;70;96;96;j;v;1;j;v;1092.204299999139
6w1zm8#;1;True;2;P != T1?;ST2_high_4;2;Same;high;96;70;70;j;v;0;f;v;8514.85750000029
6w1zm8#;2;True;2;P != T2?;STb_2;0;Same;None;70;70;70;j;v;1;f;b;4394.555200000468
6w1zm8#;3;True;2;P != T2?;ST1_low_2;1;Same;low;132;82;132;j;v;1;j;b;5156.372100000226
6w1zm8#;4;True;2;P != T1?;STb_7;0;Same;None;154;154;154;j;v;1;f;v;2206.816300000355
6w1zm8#;5;True;2;P != T2?;DT2_high_5;2;Different;high;96;132;154;j;v;0;f;v;652.6523000011366
6w1zm8#;6;True;2;P != T2?;ST2_high_4;2;Same;high;96;70;70;j;v;1;f;v;2936.099100001229
6w1zm8#;7;True;2;P != T2?;ST2_high_2;2;Same;high;112;82;82;j;v;1;f;v;3028.6448999995628
6w1zm8#;8;True;2;P != T2?;STb_4;0;Same;None;96;96;96;j;v;1;f;v;1146.814899999299
6w1zm8#;9;True;2;P != T2?;ST1_high_1;1;Same;high;82;112;82;j;v;1;j;v;1964.2117000003054
6w1zm8#;10;True;2;P != T1?;ST1_low_3;1;Same;low;70;112;70;j;v;1;f;v;1947.045299999445
6w1zm8#;11;True;2;P != T1?;ST1_high_2;1;Same;high;112;82;112;j;v;1;f;v;1844.7078999997757
6w1zm8#;12;True;2;P != T1?;DT2_low_6;2;Different;low;154;96;82;j;v;1;j;v;3305.0163999996585
6w1zm8#;13;True;2;P != T1?;DT2_high_2;2;Different;high;112;82;70;j;v;1;j;v;3840.3358000014123
6w1zm8#;14;True;2;P != T2?;DT1_high_3;1;Different;high;70;96;60;j;v;1;j;v;1447.9840000003605
6w1zm8#;15;True;2;P != T1?;ST2_low_5;2;Same;low;96;154;154;j;v;0;f;v;2232.721099999253
6w1zm8#;16;True;2;P != T1?;STb_6;0;Same;None;132;132;132;j;v;0;j;b;2578.8960000008956
6w1zm8#;1;False;2;P != T2?;ST1_high_2;1;Same;high;112;82;112;j;v;1;j;v;3510.862499999348
6w1zm8#;2;False;2;P != T1?;ST2_high_3;2;Same;high;70;96;96;j;v;1;j;v;1913.5375000005297
6w1zm8#;3;False;2;P != T1?;ST1_high_6;1;Same;high;132;96;132;j;v;1;f;v;2371.4662000002136
6w1zm8#;4;False;2;P != T2?;ST1_low_2;1;Same;low;132;82;132;j;v;0;f;v;5968.04229999907
6w1zm8#;5;False;2;P != T1?;ST1_high_3;1;Same;high;70;96;70;j;v;1;f;b;2109.763299999031
6w1zm8#;6;False;2;P != T2?;ST2_high_4;2;Same;high;96;70;70;j;v;1;f;v;1647.6719999991474
6w1zm8#;7;False;2;P != T1?;ST2_low_3;2;Same;low;70;112;112;j;v;1;j;v;2131.0562000016944
6w1zm8#;8;False;2;P != T1?;ST1_low_6;1;Same;low;154;96;154;j;v;1;f;b;1199.723499999891
6w1zm8#;9;False;2;P != T1?;ST2_low_5;2;Same;low;96;154;154;j;v;1;j;v;2821.18249999985
6w1zm8#;10;False;2;P != T1?;ST2_high_1;2;Same;high;82;112;112;j;v;1;j;n;6108.753800001068
6w1zm8#;11;False;2;P != T1?;ST1_low_1;1;Same;low;82;132;82;j;v;0;j;v;1859.9924000009196
6w1zm8#;12;False;2;P != T1?;ST1_low_6;1;Same;low;154;96;154;j;v;0;j;v;1245.7713000003423
6w1zm8#;13;False;2;P != T1?;ST2_high_2;2;Same;high;112;82;82;j;v;0;f;b;1282.3083999992377
6w1zm8#;14;False;2;P != T2?;STb_5;0;Same;None;112;112;112;j;v;1;f;b;2039.8755000005622
6w1zm8#;15;False;2;P != T2?;ST1_high_3;1;Same;high;70;96;70;j;v;1;j;v;4234.339999999065
6w1zm8#;16;False;2;P != T1?;ST2_low_6;2;Same;low;154;96;96;j;v;0;f;b;2461.578800001007
6w1zm8#;17;False;2;P != T2?;ST2_low_3;2;Same;low;70;112;112;j;v;0;j;b;3529.8232000004646
6w1zm8#;18;False;2;P != T2?;STb_2;0;Same;None;70;70;70;j;v;1;f;v;1161.6474999991624
6w1zm8#;19;False;2;P != T1?;ST2_high_6;2;Same;high;132;96;96;j;v;0;f;v;1050.700899999356
6w1zm8#;20;False;2;P != T2?;ST1_low_5;1;Same;low;96;154;96;j;v;0;f;v;339.4697999992786
6w1zm8#;21;False;2;P != T2?;DT1_high_2;1;Different;high;112;82;132;j;v;1;j;v;3007.397299999866
6w1zm8#;22;False;2;P != T1?;ST1_high_1;1;Same;high;82;112;82;j;v;1;f;b;2459.4176999999036
6w1zm8#;23;False;2;P != T2?;ST2_high_5;2;Same;high;96;132;132;j;v;1;f;b;2159.448299998985
6w1zm8#;24;False;2;P != T2?;ST2_low_5;2;Same;low;96;154;154;j;v;1;f;v;1323.3657000000676
6w1zm8#;25;False;2;P != T1?;ST2_low_1;2;Same;low;82;132;132;j;v;1;j;v;1816.9440999990911
6w1zm8#;26;False;2;P != T2?;STb_7;0;Same;None;154;154;154;j;v;1;f;v;1055.4390999986936
6w1zm8#;27;False;2;P != T1?;STb_8;0;Same;None;180;180;180;j;v;1;f;v;274.5297000001301
6w1zm8#;28;False;2;P != T2?;ST1_high_4;1;Same;high;96;70;96;j;v;1;j;b;4010.546899999099
6w1zm8#;29;False;2;P != T2?;ST1_low_4;1;Same;low;112;70;112;j;v;1;j;b;1572.3760000000766
6w1zm8#;30;False;2;P != T1?;ST2_low_6;2;Same;low;154;96;96;j;v;1;j;b;2545.1950000006036
6w1zm8#;31;False;2;P != T1?;DT1_high_6;1;Different;high;132;96;154;j;v;0;f;b;5100.23320000073
6w1zm8#;32;False;2;P != T2?;ST1_low_2;1;Same;low;132;82;132;j;v;1;j;b;3232.248999998774
6w1zm8#;33;False;2;P != T2?;ST1_high_1;1;Same;high;82;112;82;j;v;1;j;v;4358.861000000616
6w1zm8#;34;False;2;P != T1?;ST1_high_5;1;Same;high;96;132;96;j;v;0;j;v;1636.9136000012077
6w1zm8#;35;False;2;P != T1?;ST2_high_2;2;Same;high;112;82;82;j;v;1;j;v;2297.712899999169
6w1zm8#;36;False;2;P != T2?;ST2_high_5;2;Same;high;96;132;132;j;v;1;f;v;605.992900000274
6w1zm8#;37;False;2;P != T2?;ST1_high_1;1;Same;high;82;112;82;j;v;0;f;v;2130.866800000149
6w1zm8#;38;False;2;P != T2?;ST1_high_2;1;Same;high;112;82;112;j;v;0;f;v;521.7807999997603
6w1zm8#;39;False;2;P != T2?;ST2_low_6;2;Same;low;154;96;96;j;v;0;j;b;8379.703300000983
6w1zm8#;40;False;2;P != T2?;STb_6;0;Same;None;132;132;132;j;v;1;f;v;595.8313999999518
6w1zm8#;41;False;2;P != T2?;ST2_high_4;2;Same;high;96;70;70;j;v;0;j;b;2719.797199999448
6w1zm8#;42;False;2;P != T2?;ST1_low_1;1;Same;low;82;132;82;j;v;1;j;b;1762.7849000000424
6w1zm8#;43;False;2;P != T1?;ST2_low_5;2;Same;low;96;154;154;j;v;1;j;v;1728.9244999992661
6w1zm8#;44;False;2;P != T1?;ST2_low_1;2;Same;low;82;132;132;j;v;1;j;v;1256.87040000048
6w1zm8#;45;False;2;P != T2?;ST2_high_1;2;Same;high;82;112;112;j;v;1;f;v;435.5559000014182
6w1zm8#;46;False;2;P != T1?;ST1_high_4;1;Same;high;96;70;96;j;v;1;f;b;3104.4973000007303
6w1zm8#;47;False;2;P != T1?;ST1_low_3;1;Same;low;70;112;70;j;v;1;f;b;2679.5868999997765
6w1zm8#;48;False;2;P != T2?;DT1_low_5;1;Different;low;96;154;82;j;v;0;f;b;1621.3526999999885
6w1zm8#;49;False;2;P != T1?;STb_4;0;Same;None;96;96;96;j;v;0;j;v;1436.0355000007985
6w1zm8#;50;False;2;P != T2?;DT1_low_1;1;Different;low;82;132;70;j;v;0;f;v;1007.9633000004833
6w1zm8#;51;False;2;P != T1?;ST2_high_2;2;Same;high;112;82;82;j;v;0;f;b;4784.020099999907
6w1zm8#;52;False;2;P != T1?;DT2_high_5;2;Different;high;96;132;154;j;v;1;j;v;1962.8398000004381
6w1zm8#;53;False;2;P != T2?;ST1_high_5;1;Same;high;96;132;96;j;v;0;f;v;297.34429999916756
6w1zm8#;54;False;2;P != T2?;ST2_high_1;2;Same;high;82;112;112;j;v;1;f;v;522.2065999987535
6w1zm8#;55;False;2;P != T2?;ST1_high_1;1;Same;high;82;112;82;j;v;1;j;n;1631.5256999987469
6w1zm8#;56;False;2;P != T1?;ST1_low_5;1;Same;low;96;154;96;j;v;0;j;v;1297.2020000015618
6w1zm8#;57;False;2;P != T1?;ST2_low_6;2;Same;low;154;96;96;j;v;0;f;b;2058.8090999990527
6w1zm8#;58;False;2;P != T1?;ST2_high_6;2;Same;high;132;96;96;j;v;1;j;b;1675.7622999994055
6w1zm8#;59;False;2;P != T2?;DT2_high_5;2;Different;high;96;132;154;j;v;0;f;n;4340.455999999904
6w1zm8#;60;False;2;P != T2?;ST2_high_2;2;Same;high;112;82;82;j;v;1;f;v;1293.8195999995514
6w1zm8#;61;False;2;P != T2?;ST1_low_5;1;Same;low;96;154;96;j;v;1;j;b;1251.3486000007106
6w1zm8#;62;False;2;P != T2?;STb_3;0;Same;None;82;82;82;j;v;1;f;v;454.12469999973837
6w1zm8#;63;False;2;P != T2?;ST2_high_6;2;Same;high;132;96;96;j;v;1;f;v;435.5505000003177
6w1zm8#;64;False;2;P != T1?;ST2_low_1;2;Same;low;82;132;132;j;v;1;j;v;1537.3044999996637
6w1zm8#;65;False;2;P != T1?;ST1_low_2;1;Same;low;132;82;132;j;v;0;j;v;3395.641399998567
6w1zm8#;66;False;2;P != T1?;ST2_high_6;2;Same;high;132;96;96;j;v;0;f;b;2178.5290999996505
6w1zm8#;67;False;2;P != T1?;ST1_high_1;1;Same;high;82;112;82;j;v;1;f;v;2054.5768000010867
6w1zm8#;68;False;2;P != T1?;ST1_low_4;1;Same;low;112;70;112;j;v;0;j;b;3159.295100000236
6w1zm8#;69;False;2;P != T1?;ST2_low_2;2;Same;low;132;82;82;j;v;1;j;v;1158.3601999991515
6w1zm8#;70;False;2;P != T1?;ST2_low_3;2;Same;low;70;112;112;j;v;1;j;v;1106.9657999996707
6w1zm8#;71;False;2;P != T1?;STb_7;0;Same;None;154;154;154;j;v;1;f;b;2730.5675000006886
6w1zm8#;72;False;2;P != T1?;ST1_low_2;1;Same;low;132;82;132;j;v;1;f;b;2566.773500000636
6w1zm8#;73;False;2;P != T1?;ST2_high_5;2;Same;high;96;132;132;j;v;1;j;v;4452.962800000023
6w1zm8#;74;False;2;P != T2?;ST1_low_2;1;Same;low;132;82;132;j;v;1;j;v;3606.299500001114
6w1zm8#;75;False;2;P != T1?;ST2_high_1;2;Same;high;82;112;112;j;v;1;j;n;2333.9522000005672
6w1zm8#;76;False;2;P != T2?;ST1_low_1;1;Same;low;82;132;82;j;v;1;j;b;1638.7242000000697
6w1zm8#;77;False;2;P != T2?;DT1_low_2;1;Different;low;132;82;154;j;v;1;j;v;3774.1487999992387
6w1zm8#;78;False;2;P != T2?;STb_4;0;Same;None;96;96;96;j;v;1;f;v;574.6268999992026
6w1zm8#;79;False;2;P != T1?;DT1_high_4;1;Different;high;96;70;112;j;v;1;j;v;3165.3407999983756
6w1zm8#;80;False;2;P != T1?;ST2_low_4;2;Same;low;112;70;70;j;v;0;f;b;3667.8785999993124
6w1zm8#;81;False;2;P != T2?;ST2_low_3;2;Same;low;70;112;112;j;v;1;f;b;2493.44100000053
6w1zm8#;82;False;2;P != T2?;ST1_high_6;1;Same;high;132;96;132;j;v;0;f;b;1387.5012999997125
6w1zm8#;83;False;2;P != T1?;ST1_low_5;1;Same;low;96;154;96;j;v;1;f;b;3250.746399999116
6w1zm8#;84;False;2;P != T1?;STb_5;0;Same;None;112;112;112;j;v;1;f;v;338.2107999987056
6w1zm8#;85;False;2;P != T1?;STb_2;0;Same;None;70;70;70;j;v;1;f;b;2538.299600000755
6w1zm8#;86;False;2;P != T1?;ST2_low_2;2;Same;low;132;82;82;j;v;1;j;n;3447.900600000139
6w1zm8#;87;False;2;P != T2?;ST2_low_4;2;Same;low;112;70;70;j;v;1;f;b;1661.9367999992392
6w1zm8#;88;False;2;P != T2?;ST1_high_3;1;Same;high;70;96;70;j;v;0;f;v;1228.6638999994466
6w1zm8#;89;False;2;P != T1?;ST2_low_3;2;Same;low;70;112;112;j;v;1;j;b;3215.450300000157
6w1zm8#;90;False;2;P != T2?;ST1_low_6;1;Same;low;154;96;154;j;v;0;f;v;2148.9777999995567
6w1zm8#;91;False;2;P != T2?;ST1_low_4;1;Same;low;112;70;112;j;v;1;j;b;1581.613300000754
6w1zm8#;92;False;2;P != T2?;ST2_low_5;2;Same;low;96;154;154;j;v;1;f;v;3408.4589000012784
6w1zm8#;93;False;2;P != T1?;ST2_low_5;2;Same;low;96;154;154;j;v;0;f;v;374.2361000004166
6w1zm8#;94;False;2;P != T2?;ST2_low_5;2;Same;low;96;154;154;j;v;1;f;v;1305.1751000002696
6w1zm8#;95;False;2;P != T1?;ST1_high_3;1;Same;high;70;96;70;j;v;1;f;v;1170.2604000001884
6w1zm8#;96;False;2;P != T1?;ST2_low_4;2;Same;low;112;70;70;j;v;1;j;b;2395.8328000007896
6w1zm8#;97;False;2;P != T2?;ST2_low_4;2;Same;low;112;70;70;j;v;1;f;b;2007.0307000005414
6w1zm8#;98;False;2;P != T1?;ST1_high_4;1;Same;high;96;70;96;j;v;0;j;b;2580.7886000002327
6w1zm8#;99;False;2;P != T1?;DT1_high_3;1;Different;high;70;96;60;j;v;0;f;b;3186.7382999989786
6w1zm8#;100;False;2;P != T2?;ST2_low_2;2;Same;low;132;82;82;j;v;1;f;b;1759.2533999995794
6w1zm8#;101;False;2;P != T1?;ST2_high_4;2;Same;high;96;70;70;j;v;1;j;b;5126.416099999915
6w1zm8#;102;False;2;P != T1?;ST1_low_6;1;Same;low;154;96;154;j;v;1;f;v;2168.977699999232
6w1zm8#;103;False;2;P != T1?;ST1_high_4;1;Same;high;96;70;96;j;v;1;f;b;1708.2358999996359
6w1zm8#;104;False;2;P != T1?;ST1_high_2;1;Same;high;112;82;112;j;v;1;f;b;1444.5328999991034
6w1zm8#;105;False;2;P != T1?;DT2_low_6;2;Different;low;154;96;82;j;v;1;j;b;1372.3190000000614
6w1zm8#;106;False;2;P != T2?;ST1_high_3;1;Same;high;70;96;70;j;v;1;j;v;2579.49329999974
6w1zm8#;107;False;2;P != T2?;ST2_low_1;2;Same;low;82;132;132;j;v;1;f;v;1408.4007000001293
6w1zm8#;108;False;2;P != T2?;ST2_low_6;2;Same;low;154;96;96;j;v;1;f;v;1206.0598000007303
6w1zm8#;109;False;2;P != T1?;STb_1;0;Same;None;60;60;60;j;v;1;f;v;1079.131000000416
6w1zm8#;110;False;2;P != T2?;ST1_low_3;1;Same;low;70;112;70;j;v;1;j;b;2365.8178000005137
6w1zm8#;111;False;2;P != T1?;STb_6;0;Same;None;132;132;132;j;v;1;f;v;520.8640999990166
6w1zm8#;112;False;2;P != T1?;ST2_high_3;2;Same;high;70;96;96;j;v;1;j;v;2474.537500000224
6w1zm8#;113;False;2;P != T2?;ST2_low_2;2;Same;low;132;82;82;j;v;0;j;b;1989.8334000008617
6w1zm8#;114;False;2;P != T1?;ST2_low_4;2;Same;low;112;70;70;j;v;1;j;n;6279.773000000205
6w1zm8#;115;False;2;P != T2?;ST1_high_4;1;Same;high;96;70;96;j;v;1;j;b;1967.5069999993866
6w1zm8#;116;False;2;P != T1?;ST2_high_4;2;Same;high;96;70;70;j;v;1;j;b;1586.5731999983836
6w1zm8#;117;False;2;P != T2?;ST2_high_2;2;Same;high;112;82;82;j;v;1;f;v;1677.7397999994719
6w1zm8#;118;False;2;P != T2?;ST1_high_4;1;Same;high;96;70;96;j;v;0;f;v;2826.725000000806
6w1zm8#;119;False;2;P != T2?;ST1_high_6;1;Same;high;132;96;132;j;v;1;j;n;2629.9803999991127
6w1zm8#;120;False;2;P != T1?;ST1_high_5;1;Same;high;96;132;96;j;v;1;f;b;2831.3842000006844
6w1zm8#;121;False;2;P != T2?;ST2_high_3;2;Same;high;70;96;96;j;v;1;f;v;2647.7667999988626
6w1zm8#;122;False;2;P != T2?;ST1_low_1;1;Same;low;82;132;82;j;v;0;f;v;1072.154600000431
6w1zm8#;123;False;2;P != T2?;ST2_high_6;2;Same;high;132;96;96;j;v;1;f;v;352.32709999945655
6w1zm8#;124;False;2;P != T2?;ST1_high_5;1;Same;high;96;132;96;j;v;0;f;v;312.4587000002066
6w1zm8#;125;False;2;P != T2?;ST1_low_6;1;Same;low;154;96;154;j;v;1;j;b;2099.3817999988096
6w1zm8#;126;False;2;P != T2?;ST2_high_6;2;Same;high;132;96;96;j;v;1;f;v;2156.818299999941
6w1zm8#;127;False;2;P != T2?;ST1_low_5;1;Same;low;96;154;96;j;v;1;j;n;5644.462399999611
6w1zm8#;128;False;2;P != T2?;ST2_low_4;2;Same;low;112;70;70;j;v;1;f;v;1414.8973999999725
6w1zm8#;129;False;2;P != T2?;ST2_low_3;2;Same;low;70;112;112;j;v;1;f;v;1037.476700001207
6w1zm8#;130;False;2;P != T2?;ST1_high_6;1;Same;high;132;96;132;j;v;1;j;n;6993.55309999919
6w1zm8#;131;False;2;P != T1?;ST1_low_1;1;Same;low;82;132;82;j;v;1;f;b;2256.414200001018
6w1zm8#;132;False;2;P != T1?;ST1_low_3;1;Same;low;70;112;70;j;v;1;f;v;1541.319600000861
6w1zm8#;133;False;2;P != T2?;STb_8;0;Same;None;180;180;180;j;v;1;f;v;532.324099998732
6w1zm8#;134;False;2;P != T2?;ST1_low_3;1;Same;low;70;112;70;j;v;1;j;b;1391.6081999996095
6w1zm8#;135;False;2;P != T2?;ST1_low_3;1;Same;low;70;112;70;j;v;1;j;v;2020.7456999996793
6w1zm8#;136;False;2;P != T1?;ST1_high_6;1;Same;high;132;96;132;j;v;1;f;v;1031.177300001218
6w1zm8#;137;False;2;P != T1?;ST1_high_2;1;Same;high;112;82;112;j;v;0;j;b;1735.9529999994265
6w1zm8#;138;False;2;P != T1?;DT1_high_1;1;Different;high;82;112;70;j;v;0;f;v;1717.614400000457
6w1zm8#;139;False;2;P != T2?;ST2_high_2;2;Same;high;112;82;82;j;v;1;f;v;1307.6039999996283
6w1zm8#;140;False;2;P != T2?;ST2_low_1;2;Same;low;82;132;132;j;v;1;f;v;914.3215000003693
6w1zm8#;141;False;2;P != T2?;DT2_low_5;2;Different;low;96;154;180;j;v;0;f;v;958.9512999991712
6w1zm8#;142;False;2;P != T2?;ST1_low_6;1;Same;low;154;96;154;j;v;1;j;b;1964.1826000006404
6w1zm8#;143;False;2;P != T2?;ST1_high_2;1;Same;high;112;82;112;j;v;1;j;b;1387.5145000001794
6w1zm8#;144;False;2;P != T2?;ST1_low_4;1;Same;low;112;70;112;j;v;1;j;b;1279.2300000000978
6w1zm8#;145;False;2;P != T2?;DT2_high_4;2;Different;high;96;70;60;j;v;0;f;v;960.794700000406
6w1zm8#;146;False;2;P != T1?;DT2_high_2;2;Different;high;112;82;70;j;v;0;f;v;1255.7590000014898
6w1zm8#;147;False;2;P != T2?;ST1_high_5;1;Same;high;96;132;96;j;v;0;f;b;2415.3085999987525
6w1zm8#;148;False;2;P != T2?;DT2_low_3;2;Different;low;70;112;132;j;v;0;f;v;736.9233000008535
6w1zm8#;149;False;2;P != T1?;ST1_low_2;1;Same;low;132;82;132;j;v;0;j;v;1475.3218999994715
6w1zm8#;150;False;2;P != T1?;ST2_high_3;2;Same;high;70;96;96;j;v;1;j;v;5744.214600001214
6w1zm8#;151;False;2;P != T1?;ST1_high_1;1;Same;high;82;112;82;j;v;1;f;v;1641.6207000002032
6w1zm8#;152;False;2;P != T1?;ST2_high_5;2;Same;high;96;132;132;j;v;1;j;v;1295.0344000000769
6w1zm8#;153;False;2;P != T2?;STb_1;0;Same;None;60;60;60;j;v;1;f;v;1156.3308000004326
6w1zm8#;154;False;2;P != T2?;ST2_high_4;2;Same;high;96;70;70;j;v;1;f;v;553.4475999993447
6w1zm8#;155;False;2;P != T1?;DT1_low_6;1;Different;low;154;96;180;j;v;0;f;v;2055.8734999995067
6w1zm8#;156;False;2;P != T2?;ST2_low_1;2;Same;low;82;132;132;j;v;0;j;b;1560.071899999457
6w1zm8#;157;False;2;P != T2?;ST2_low_2;2;Same;low;132;82;82;j;v;0;j;v;1762.175500000012
6w1zm8#;158;False;2;P != T1?;ST1_low_1;1;Same;low;82;132;82;j;v;0;j;v;2732.2749000013573
6w1zm8#;159;False;2;P != T1?;ST1_low_4;1;Same;low;112;70;112;j;v;0;j;b;1994.342300000426
6w1zm8#;160;False;2;P != T1?;ST2_high_1;2;Same;high;82;112;112;j;v;1;j;v;1406.3458000000537
6w1zm8#;161;False;2;P != T1?;STb_3;0;Same;None;82;82;82;j;v;1;f;v;1516.4172999993752
6w1zm8#;162;False;2;P != T1?;ST1_low_5;1;Same;low;96;154;96;j;v;0;j;v;1382.3436000002403
6w1zm8#;163;False;2;P != T1?;ST1_high_5;1;Same;high;96;132;96;j;v;0;j;v;1369.9200999999448
6w1zm8#;164;False;2;P != T2?;ST2_high_3;2;Same;high;70;96;96;j;v;0;j;v;1062.485899999956
6w1zm8#;165;False;2;P != T1?;ST2_high_5;2;Same;high;96;132;132;j;v;1;j;v;888.1179999989399
6w1zm8#;166;False;2;P != T2?;ST2_high_1;2;Same;high;82;112;112;j;v;1;f;v;2917.1793999994406
6w1zm8#;167;False;2;P != T1?;ST2_low_2;2;Same;low;132;82;82;j;v;0;f;v;1935.360600000422
6w1zm8#;168;False;2;P != T1?;ST1_high_2;1;Same;high;112;82;112;j;v;1;f;v;1178.2970999993267
6w1zm8#;169;False;2;P != T1?;ST1_high_6;1;Same;high;132;96;132;j;v;1;f;v;2646.764600000097
6w1zm8#;170;False;2;P != T1?;ST1_high_3;1;Same;high;70;96;70;j;v;0;j;b;2089.2218000008143
6w1zm8#;171;False;2;P != T2?;ST2_high_5;2;Same;high;96;132;132;j;v;0;j;n;96234.93069999859
6w1zm8#;172;False;2;P != T2?;ST2_high_3;2;Same;high;70;96;96;j;v;1;f;n;1905.103400000371
6w1zm8#;173;False;2;P != T1?;ST2_high_4;2;Same;high;96;70;70;j;v;0;f;b;1268.3225000000675
6w1zm8#;174;False;2;P != T1?;ST1_low_4;1;Same;low;112;70;112;j;v;1;f;v;1248.5981000008906
6w1zm8#;175;False;2;P != T1?;ST1_low_3;1;Same;low;70;112;70;j;v;1;f;b;1838.477299999795
6w1zm8#;176;False;2;P != T2?;ST2_low_6;2;Same;low;154;96;96;j;v;1;f;v;4495.793699999922
