p_code;trial_nr;practice;block;question;condition;seqPos;Same_or_Diff;ITS;T1_hz;T2_hz;P_hz;yes_key;sure_key;correct;yes_no;rating;resp_time
#10c6rd;1;True;1;P = T2?;ST1_low_2;1;Same;low;132;82;132;f;n;1;j;v;116217.74009999991
#10c6rd;2;True;1;P = T2?;DT1_high_2;1;Different;high;112;82;132;f;n;0;f;b;3340.8236000000215
#10c6rd;3;True;1;P = T2?;ST2_high_4;2;Same;high;96;70;70;f;n;1;f;n;1635.0912999998855
#10c6rd;4;True;1;P = T1?;DT1_high_1;1;Different;high;82;112;70;f;n;0;f;b;1122.812900000099
#10c6rd;5;True;1;P = T2?;STb_7;0;Same;None;154;154;154;f;n;1;f;b;1208.7025999999241
#10c6rd;6;True;1;P = T1?;STb_1;0;Same;None;60;60;60;f;n;0;j;b;1788.0867999999737
#10c6rd;7;True;1;P = T2?;STb_4;0;Same;None;96;96;96;f;n;1;f;b;834.5065000000886
#10c6rd;8;True;1;P = T1?;DT1_high_3;1;Different;high;70;96;60;f;n;0;f;b;1167.3536000000695
#10c6rd;9;True;1;P = T1?;ST1_low_4;1;Same;low;112;70;112;f;n;0;j;b;1603.2167000000754
#10c6rd;10;True;1;P = T1?;ST1_low_3;1;Same;low;70;112;70;f;n;1;f;b;871.2392000002183
#10c6rd;11;True;1;P = T2?;ST2_low_5;2;Same;low;96;154;154;f;n;1;f;n;927.3646999999983
#10c6rd;12;True;1;P = T1?;ST2_high_1;2;Same;high;82;112;112;f;n;1;j;n;1305.0362000001314
#10c6rd;13;True;1;P = T1?;ST2_low_1;2;Same;low;82;132;132;f;n;1;j;n;1140.1451000001543
#10c6rd;14;True;1;P = T2?;ST1_low_5;1;Same;low;96;154;96;f;n;1;j;n;1225.0017999999727
#10c6rd;15;True;1;P = T1?;STb_2;0;Same;None;70;70;70;f;n;0;j;b;1105.7760999999573
#10c6rd;16;True;1;P = T2?;DT1_low_2;1;Different;low;132;82;154;f;n;1;j;b;1004.4439000000693
#10c6rd;1;False;1;P = T1?;ST2_high_2;2;Same;high;112;82;82;f;n;1;j;b;1033.7025999999696
#10c6rd;2;False;1;P = T2?;ST1_high_3;1;Same;high;70;96;70;f;n;0;f;b;1649.9793999998928
#10c6rd;3;False;1;P = T1?;ST2_high_6;2;Same;high;132;96;96;f;n;0;f;n;929.1548000001058
#10c6rd;4;False;1;P = T2?;ST2_high_1;2;Same;high;82;112;112;f;n;1;f;v;2385.7298000000355
#10c6rd;5;False;1;P = T2?;ST1_high_3;1;Same;high;70;96;70;f;n;0;f;v;1101.3923000000432
#10c6rd;6;False;1;P = T2?;ST1_high_3;1;Same;high;70;96;70;f;n;1;j;b;1262.1329999999489
#10c6rd;7;False;1;P = T1?;ST1_high_5;1;Same;high;96;132;96;f;n;1;f;b;906.8620999998984
#10c6rd;8;False;1;P = T2?;ST1_high_5;1;Same;high;96;132;96;f;n;1;j;b;1094.318899999962
#10c6rd;9;False;1;P = T2?;ST2_low_3;2;Same;low;70;112;112;f;n;1;f;b;1811.4849000000959
#10c6rd;10;False;1;P = T1?;ST2_high_4;2;Same;high;96;70;70;f;n;0;f;b;2948.8179999998465
#10c6rd;11;False;1;P = T2?;STb_1;0;Same;None;60;60;60;f;n;1;f;b;1266.1977000000206
#10c6rd;12;False;1;P = T2?;ST1_low_5;1;Same;low;96;154;96;f;n;1;j;b;870.6871999997929
#10c6rd;13;False;1;P = T1?;ST1_low_4;1;Same;low;112;70;112;f;n;1;f;b;1385.8889999999064
#10c6rd;14;False;1;P = T1?;STb_4;0;Same;None;96;96;96;f;n;0;j;v;830.4218000000674
#10c6rd;15;False;1;P = T1?;ST1_low_3;1;Same;low;70;112;70;f;n;1;f;v;2341.4150999999492
#10c6rd;16;False;1;P = T1?;ST2_low_5;2;Same;low;96;154;154;f;n;1;j;b;1050.8892000000287
#10c6rd;17;False;1;P = T1?;ST2_low_1;2;Same;low;82;132;132;f;n;1;j;b;1212.2498999999607
#10c6rd;18;False;1;P = T2?;ST1_low_6;1;Same;low;154;96;154;f;n;1;j;b;1537.8613999998834
#10c6rd;19;False;1;P = T1?;ST2_low_5;2;Same;low;96;154;154;f;n;0;f;b;2009.2670999999882
#10c6rd;20;False;1;P = T2?;ST1_low_1;1;Same;low;82;132;82;f;n;1;j;b;1090.2168000000074
#10c6rd;21;False;1;P = T1?;ST1_high_6;1;Same;high;132;96;132;f;n;1;f;b;785.868599999958
#10c6rd;22;False;1;P = T1?;ST2_low_2;2;Same;low;132;82;82;f;n;1;j;b;1659.7306999999546
#10c6rd;23;False;1;P = T2?;ST2_low_1;2;Same;low;82;132;132;f;n;1;f;b;984.4610000000102
#10c6rd;24;False;1;P = T2?;ST2_low_5;2;Same;low;96;154;154;f;n;1;f;v;866.6265000001658
#10c6rd;25;False;1;P = T2?;DT2_high_6;2;Different;high;132;96;82;f;n;0;f;n;1074.077799999941
#10c6rd;26;False;1;P = T1?;ST1_low_5;1;Same;low;96;154;96;f;n;0;j;b;1014.4437999999809
#10c6rd;27;False;1;P = T1?;ST1_low_2;1;Same;low;132;82;132;f;n;0;j;b;1428.3951999998408
#10c6rd;28;False;1;P = T1?;STb_8;0;Same;None;180;180;180;f;n;1;f;b;1419.653500000095
#10c6rd;29;False;1;P = T2?;ST2_high_2;2;Same;high;112;82;82;f;n;1;f;v;1794.8018000001866
#10c6rd;30;False;1;P = T1?;STb_1;0;Same;None;60;60;60;f;n;1;f;b;939.5971999999801
#10c6rd;31;False;1;P = T1?;ST1_low_2;1;Same;low;132;82;132;f;n;0;j;b;438.7942999999268
#10c6rd;32;False;1;P = T2?;STb_7;0;Same;None;154;154;154;f;n;1;f;b;1129.916600000115
#10c6rd;33;False;1;P = T2?;ST1_high_6;1;Same;high;132;96;132;f;n;1;j;b;1693.2537000000139
#10c6rd;34;False;1;P = T1?;DT2_low_2;2;Different;low;132;82;70;f;n;1;j;n;500.391000000036
#10c6rd;35;False;1;P = T1?;ST1_high_2;1;Same;high;112;82;112;f;n;0;j;v;2291.8167000000267
#10c6rd;36;False;1;P = T2?;ST1_high_6;1;Same;high;132;96;132;f;n;1;j;v;24783.234699999866
#10c6rd;37;False;1;P = T1?;ST2_high_3;2;Same;high;70;96;96;f;n;0;f;v;1458.842999999888
#10c6rd;38;False;1;P = T2?;STb_5;0;Same;None;112;112;112;f;n;1;f;b;518.9447000002474
#10c6rd;39;False;1;P = T2?;ST2_low_2;2;Same;low;132;82;82;f;n;1;f;b;1059.8843999996461
#10c6rd;40;False;1;P = T1?;ST2_high_4;2;Same;high;96;70;70;f;n;1;j;b;836.7701000001944
#10c6rd;41;False;1;P = T1?;ST1_low_6;1;Same;low;154;96;154;f;n;0;j;v;1481.5772999995716
#10c6rd;42;False;1;P = T1?;ST2_high_1;2;Same;high;82;112;112;f;n;1;j;v;1451.2147000000368
#10c6rd;43;False;1;P = T2?;DT2_high_2;2;Different;high;112;82;70;f;n;1;j;v;978.3870000001116
#10c6rd;44;False;1;P = T2?;ST1_low_4;1;Same;low;112;70;112;f;n;0;f;b;10.168699999667297
#10c6rd;45;False;1;P = T1?;STb_6;0;Same;None;132;132;132;f;n;1;f;b;1047.2543999999289
#10c6rd;46;False;1;P = T1?;ST1_low_2;1;Same;low;132;82;132;f;n;0;j;b;2393.7557999997807
#10c6rd;47;False;1;P = T2?;ST2_low_4;2;Same;low;112;70;70;f;n;1;f;n;1178.5148000003574
#10c6rd;48;False;1;P = T2?;ST2_high_6;2;Same;high;132;96;96;f;n;0;j;b;1167.6359000002776
#10c6rd;49;False;1;P = T2?;ST2_high_4;2;Same;high;96;70;70;f;n;1;f;b;977.3177000001851
#10c6rd;50;False;1;P = T2?;ST1_low_4;1;Same;low;112;70;112;f;n;1;j;b;2646.5211999998246
#10c6rd;51;False;1;P = T2?;ST1_low_2;1;Same;low;132;82;132;f;n;1;j;v;1796.7939000000115
#10c6rd;52;False;1;P = T1?;STb_3;0;Same;None;82;82;82;f;n;1;f;b;1938.2250999997268
#10c6rd;53;False;1;P = T2?;ST1_high_2;1;Same;high;112;82;112;f;n;0;f;v;1446.094599999924
#10c6rd;54;False;1;P = T1?;ST2_low_4;2;Same;low;112;70;70;f;n;1;j;b;847.0465999998851
#10c6rd;55;False;1;P = T1?;ST1_high_1;1;Same;high;82;112;82;f;n;0;j;b;1528.5989999997582
#10c6rd;56;False;1;P = T1?;ST2_high_1;2;Same;high;82;112;112;f;n;1;j;v;1868.1407000003674
#10c6rd;57;False;1;P = T1?;DT1_low_2;1;Different;low;132;82;154;f;n;0;f;v;1007.3698000001059
#10c6rd;58;False;1;P = T2?;ST2_low_6;2;Same;low;154;96;96;f;n;1;f;b;946.8888999999763
#10c6rd;59;False;1;P = T1?;ST1_high_5;1;Same;high;96;132;96;f;n;0;j;b;793.6113999999179
#10c6rd;60;False;1;P = T1?;ST2_low_2;2;Same;low;132;82;82;f;n;1;j;b;1358.7530999998307
#10c6rd;61;False;1;P = T2?;DT1_high_4;1;Different;high;96;70;112;f;n;0;f;v;1025.627799999711
#10c6rd;62;False;1;P = T1?;ST1_low_3;1;Same;low;70;112;70;f;n;0;j;b;899.7124000002259
#10c6rd;63;False;1;P = T1?;ST2_low_1;2;Same;low;82;132;132;f;n;1;j;b;1641.1693999998533
#10c6rd;64;False;1;P = T2?;ST2_high_1;2;Same;high;82;112;112;f;n;1;f;v;1491.6126999996777
#10c6rd;65;False;1;P = T2?;ST2_low_3;2;Same;low;70;112;112;f;n;0;j;b;1860.8369000003222
#10c6rd;66;False;1;P = T2?;ST1_high_1;1;Same;high;82;112;82;f;n;0;f;v;1249.872299999879
#10c6rd;67;False;1;P = T1?;DT1_high_2;1;Different;high;112;82;132;f;n;1;j;b;1183.0493000002207
#10c6rd;68;False;1;P = T2?;ST1_high_4;1;Same;high;96;70;96;f;n;1;j;b;1939.1512000001967
#10c6rd;69;False;1;P = T1?;ST1_high_5;1;Same;high;96;132;96;f;n;1;f;v;806.9948000002114
#10c6rd;70;False;1;P = T2?;ST1_low_3;1;Same;low;70;112;70;f;n;1;j;b;568.2541000001038
#10c6rd;71;False;1;P = T2?;ST1_low_2;1;Same;low;132;82;132;f;n;0;f;b;1105.5884000002152
#10c6rd;72;False;1;P = T2?;ST1_high_6;1;Same;high;132;96;132;f;n;1;j;v;884.2546999999286
#10c6rd;73;False;1;P = T2?;ST1_low_5;1;Same;low;96;154;96;f;n;1;j;b;1057.3150000000169
#10c6rd;74;False;1;P = T2?;DT1_high_1;1;Different;high;82;112;70;f;n;1;j;b;1155.1915000000008
#10c6rd;75;False;1;P = T2?;ST2_high_4;2;Same;high;96;70;70;f;n;0;j;v;383.7057000000641
#10c6rd;76;False;1;P = T1?;ST1_high_6;1;Same;high;132;96;132;f;n;1;f;v;917.6737999996476
#10c6rd;77;False;1;P = T1?;ST2_high_3;2;Same;high;70;96;96;f;n;0;f;v;1148.4080000000176
#10c6rd;78;False;1;P = T1?;ST2_low_4;2;Same;low;112;70;70;f;n;0;f;v;1107.406500000252
#10c6rd;79;False;1;P = T1?;ST2_high_5;2;Same;high;96;132;132;f;n;0;f;v;840.541999999914
#10c6rd;80;False;1;P = T1?;ST2_high_3;2;Same;high;70;96;96;f;n;0;f;b;889.3395000000055
#10c6rd;81;False;1;P = T2?;ST2_high_4;2;Same;high;96;70;70;f;n;1;f;n;1200.4063999997925
#10c6rd;82;False;1;P = T1?;ST2_low_6;2;Same;low;154;96;96;f;n;1;j;b;781.7466999999851
#10c6rd;83;False;1;P = T1?;ST1_low_4;1;Same;low;112;70;112;f;n;1;f;b;688.6704000003192
#10c6rd;84;False;1;P = T2?;STb_6;0;Same;None;132;132;132;f;n;0;j;b;979.0618000001814
#10c6rd;85;False;1;P = T2?;ST2_low_5;2;Same;low;96;154;154;f;n;1;f;b;3272.7296000002752
#10c6rd;86;False;1;P = T2?;ST1_high_4;1;Same;high;96;70;96;f;n;0;f;b;816.4495000000898
#10c6rd;87;False;1;P = T1?;ST2_low_4;2;Same;low;112;70;70;f;n;0;f;b;578.056899999865
#10c6rd;88;False;1;P = T1?;STb_7;0;Same;None;154;154;154;f;n;0;j;b;395.4416999999921
#10c6rd;89;False;1;P = T2?;ST1_low_5;1;Same;low;96;154;96;f;n;1;j;b;728.3151999999973
#10c6rd;90;False;1;P = T2?;ST1_low_2;1;Same;low;132;82;132;f;n;0;f;b;1048.452300000008
#10c6rd;91;False;1;P = T1?;ST1_low_5;1;Same;low;96;154;96;f;n;1;f;b;754.8167999998441
#10c6rd;92;False;1;P = T2?;ST2_high_2;2;Same;high;112;82;82;f;n;0;j;b;1523.4721000001628
#10c6rd;93;False;1;P = T2?;ST1_low_3;1;Same;low;70;112;70;f;n;1;j;b;1324.6054000001095
#10c6rd;94;False;1;P = T1?;ST1_high_4;1;Same;high;96;70;96;f;n;1;f;v;685.3593999999248
#10c6rd;95;False;1;P = T2?;DT2_low_2;2;Different;low;132;82;70;f;n;1;j;b;2398.592000000008
#10c6rd;96;False;1;P = T1?;ST2_high_2;2;Same;high;112;82;82;f;n;0;f;b;11177.939900000183
#10c6rd;97;False;1;P = T2?;ST1_high_2;1;Same;high;112;82;112;f;n;0;f;b;1112.6761000000442
#10c6rd;98;False;1;P = T2?;ST1_high_5;1;Same;high;96;132;96;f;n;0;f;b;1040.7753999998022
#10c6rd;99;False;1;P = T2?;STb_3;0;Same;None;82;82;82;f;n;0;j;b;1344.5607999997264
#10c6rd;100;False;1;P = T1?;STb_2;0;Same;None;70;70;70;f;n;1;f;v;1012.3805000002903
#10c6rd;101;False;1;P = T1?;DT1_low_1;1;Different;low;82;132;70;f;n;0;f;v;141.50819999986197
#10c6rd;102;False;1;P = T1?;ST1_high_3;1;Same;high;70;96;70;f;n;1;f;b;873.964899999919
#10c6rd;103;False;1;P = T1?;ST1_low_3;1;Same;low;70;112;70;f;n;1;f;b;2675.141799999892
#10c6rd;104;False;1;P = T2?;ST2_high_6;2;Same;high;132;96;96;f;n;1;f;b;1000.047099999847
#10c6rd;105;False;1;P = T1?;ST1_high_4;1;Same;high;96;70;96;f;n;0;j;b;1013.6460999997325
#10c6rd;106;False;1;P = T2?;ST2_low_5;2;Same;low;96;154;154;f;n;1;f;b;1838.7916000001496
#10c6rd;107;False;1;P = T1?;ST2_low_2;2;Same;low;132;82;82;f;n;1;j;v;552.0606000000043
#10c6rd;108;False;1;P = T1?;ST1_high_6;1;Same;high;132;96;132;f;n;0;j;n;951.2184999998681
#10c6rd;109;False;1;P = T2?;ST1_low_1;1;Same;low;82;132;82;f;n;0;f;b;497.5443000002997
#10c6rd;110;False;1;P = T1?;ST1_low_6;1;Same;low;154;96;154;f;n;1;f;n;839.1609999998764
#10c6rd;111;False;1;P = T2?;ST1_low_4;1;Same;low;112;70;112;f;n;0;f;b;1247.1316999999544
#10c6rd;112;False;1;P = T1?;ST1_low_6;1;Same;low;154;96;154;f;n;1;f;b;1927.5007999999616
#10c6rd;113;False;1;P = T2?;ST1_low_6;1;Same;low;154;96;154;f;n;1;j;b;2515.5392000001484
#10c6rd;114;False;1;P = T2?;ST2_high_3;2;Same;high;70;96;96;f;n;0;j;b;1008.1226000002061
#10c6rd;115;False;1;P = T2?;ST2_low_3;2;Same;low;70;112;112;f;n;1;f;b;664.7382999999536
#10c6rd;116;False;1;P = T1?;ST1_high_4;1;Same;high;96;70;96;f;n;0;j;b;620.27020000005
#10c6rd;117;False;1;P = T2?;ST2_high_5;2;Same;high;96;132;132;f;n;1;f;b;1931.5867000000253
#10c6rd;118;False;1;P = T2?;STb_4;0;Same;None;96;96;96;f;n;1;f;b;1015.0518999998894
#10c6rd;119;False;1;P = T1?;ST2_low_5;2;Same;low;96;154;154;f;n;1;j;b;1144.4420000002538
#10c6rd;120;False;1;P = T1?;ST1_low_4;1;Same;low;112;70;112;f;n;0;j;b;724.481900000228
#10c6rd;121;False;1;P = T1?;ST1_high_2;1;Same;high;112;82;112;f;n;1;f;b;394.21870000023773
#10c6rd;122;False;1;P = T2?;ST1_high_2;1;Same;high;112;82;112;f;n;0;f;b;596.3230000002113
#10c6rd;123;False;1;P = T2?;ST1_high_1;1;Same;high;82;112;82;f;n;0;f;v;27282.438900000216
#10c6rd;124;False;1;P = T1?;ST1_high_3;1;Same;high;70;96;70;f;n;1;f;b;1051.2997999999243
#10c6rd;125;False;1;P = T2?;DT1_high_3;1;Different;high;70;96;60;f;n;1;j;b;337.3071000000891
#10c6rd;126;False;1;P = T1?;ST1_high_1;1;Same;high;82;112;82;f;n;0;j;b;742.6049999999123
#10c6rd;127;False;1;P = T1?;ST1_low_1;1;Same;low;82;132;82;f;n;1;f;b;555.8103999997002
#10c6rd;128;False;1;P = T2?;ST2_low_6;2;Same;low;154;96;96;f;n;1;f;b;963.3821999996144
#10c6rd;129;False;1;P = T2?;ST2_high_1;2;Same;high;82;112;112;f;n;0;j;b;886.4772000001722
#10c6rd;130;False;1;P = T2?;DT1_high_2;1;Different;high;112;82;132;f;n;1;j;b;2113.0057999998826
#10c6rd;131;False;1;P = T1?;ST1_high_3;1;Same;high;70;96;70;f;n;0;j;b;746.8366000002788
#10c6rd;132;False;1;P = T2?;STb_8;0;Same;None;180;180;180;f;n;0;j;b;2258.556799999951
#10c6rd;133;False;1;P = T1?;ST1_low_5;1;Same;low;96;154;96;f;n;0;j;b;1070.6356000000596
#10c6rd;134;False;1;P = T1?;ST2_low_6;2;Same;low;154;96;96;f;n;1;j;b;947.6944000002732
#10c6rd;135;False;1;P = T2?;ST1_high_4;1;Same;high;96;70;96;f;n;0;f;b;901.0016000001997
#10c6rd;136;False;1;P = T1?;ST2_low_3;2;Same;low;70;112;112;f;n;1;j;b;927.5847999997495
#10c6rd;137;False;1;P = T2?;ST2_high_5;2;Same;high;96;132;132;f;n;1;f;b;455.2303000000393
#10c6rd;138;False;1;P = T2?;STb_2;0;Same;None;70;70;70;f;n;1;f;b;1303.56380000012
#10c6rd;139;False;1;P = T1?;ST2_high_5;2;Same;high;96;132;132;f;n;0;f;b;747.5291000000652
#10c6rd;140;False;1;P = T1?;ST2_high_6;2;Same;high;132;96;96;f;n;0;f;b;627.3992999999791
#10c6rd;141;False;1;P = T2?;ST1_low_6;1;Same;low;154;96;154;f;n;0;f;b;1127.723099999912
#10c6rd;142;False;1;P = T1?;ST2_low_3;2;Same;low;70;112;112;f;n;0;f;b;552.7250000000095
#10c6rd;143;False;1;P = T2?;ST2_low_2;2;Same;low;132;82;82;f;n;1;f;b;496.31819999967774
#10c6rd;144;False;1;P = T2?;ST2_low_6;2;Same;low;154;96;96;f;n;1;f;b;995.5368999999337
#10c6rd;145;False;1;P = T2?;ST2_low_4;2;Same;low;112;70;70;f;n;1;f;b;999.7905999998693
#10c6rd;146;False;1;P = T1?;DT2_low_6;2;Different;low;154;96;82;f;n;0;f;b;603.1684999998106
#10c6rd;147;False;1;P = T2?;ST2_low_4;2;Same;low;112;70;70;f;n;1;f;b;996.22939999972
#10c6rd;148;False;1;P = T2?;ST1_high_1;1;Same;high;82;112;82;f;n;0;f;b;1618.1259999998474
#10c6rd;149;False;1;P = T2?;ST2_high_6;2;Same;high;132;96;96;f;n;1;f;b;545.726900000318
#10c6rd;150;False;1;P = T1?;ST2_high_4;2;Same;high;96;70;70;f;n;1;j;b;635.776000000078
#10c6rd;151;False;1;P = T2?;ST1_high_5;1;Same;high;96;132;96;f;n;0;f;b;956.3297999998213
#10c6rd;152;False;1;P = T2?;ST2_low_1;2;Same;low;82;132;132;f;n;0;j;b;1975.5064999999377
#10c6rd;153;False;1;P = T1?;ST1_low_1;1;Same;low;82;132;82;f;n;0;j;b;4866.831099999672
#10c6rd;154;False;1;P = T1?;ST2_high_2;2;Same;high;112;82;82;f;n;1;j;b;679.2826000000787
#10c6rd;155;False;1;P = T1?;ST1_high_2;1;Same;high;112;82;112;f;n;1;f;b;766.7828000003283
#10c6rd;156;False;1;P = T2?;ST2_high_5;2;Same;high;96;132;132;f;n;1;f;b;2442.9809999996905
#10c6rd;157;False;1;P = T1?;ST2_low_1;2;Same;low;82;132;132;f;n;0;f;b;837.5511999997798
#10c6rd;158;False;1;P = T2?;DT2_high_1;2;Different;high;82;112;132;f;n;0;f;b;960.1716000001943
#10c6rd;159;False;1;P = T1?;STb_5;0;Same;None;112;112;112;f;n;0;j;b;262.76259999985996
#10c6rd;160;False;1;P = T2?;ST1_low_3;1;Same;low;70;112;70;f;n;0;f;b;959.6277000000555
#10c6rd;161;False;1;P = T2?;ST2_low_2;2;Same;low;132;82;82;f;n;1;f;n;670.8168000000114
#10c6rd;162;False;1;P = T2?;ST1_low_1;1;Same;low;82;132;82;f;n;1;j;b;908.5457000001043
#10c6rd;163;False;1;P = T1?;ST1_high_1;1;Same;high;82;112;82;f;n;0;j;b;1554.0678000002117
#10c6rd;164;False;1;P = T2?;ST2_high_2;2;Same;high;112;82;82;f;n;0;j;b;1384.7083999999086
#10c6rd;165;False;1;P = T1?;ST2_low_6;2;Same;low;154;96;96;f;n;0;f;b;1492.4944999997933
#10c6rd;166;False;1;P = T1?;DT1_high_1;1;Different;high;82;112;70;f;n;1;j;v;740.75270000003
#10c6rd;167;False;1;P = T2?;ST2_high_3;2;Same;high;70;96;96;f;n;1;f;n;1550.807199999781
#10c6rd;168;False;1;P = T1?;ST2_high_1;2;Same;high;82;112;112;f;n;1;j;v;1481.1641999999665
#10c6rd;169;False;1;P = T2?;ST2_high_3;2;Same;high;70;96;96;f;n;0;j;b;1892.0635999998012
#10c6rd;170;False;1;P = T1?;ST2_low_3;2;Same;low;70;112;112;f;n;0;f;v;1151.3264000000163
#10c6rd;171;False;1;P = T1?;DT2_high_1;2;Different;high;82;112;132;f;n;0;f;b;630.5090999999265
#10c6rd;172;False;1;P = T1?;ST1_low_1;1;Same;low;82;132;82;f;n;0;j;b;887.1771999997691
#10c6rd;173;False;1;P = T1?;DT2_high_2;2;Different;high;112;82;70;f;n;0;f;b;2617.81289999999
#10c6rd;174;False;1;P = T2?;ST2_low_1;2;Same;low;82;132;132;f;n;0;j;b;904.0971000003992
#10c6rd;175;False;1;P = T1?;ST2_high_6;2;Same;high;132;96;96;f;n;1;j;b;910.1838000001408
#10c6rd;176;False;1;P = T1?;ST2_high_5;2;Same;high;96;132;132;f;n;0;f;b;645.1609999999164
#10c6rd;1;True;2;P != T2?;ST2_high_3;2;Same;high;70;96;96;f;n;1;j;b;3272.549899999831
#10c6rd;2;True;2;P != T2?;ST1_high_5;1;Same;high;96;132;96;f;n;0;j;b;1482.243599999947
#10c6rd;3;True;2;P != T1?;ST1_high_4;1;Same;high;96;70;96;f;n;1;j;b;3211.43740000025
#10c6rd;4;True;2;P != T2?;DT1_low_2;1;Different;low;132;82;154;f;n;1;f;b;1225.6897000002027
#10c6rd;5;True;2;P != T2?;STb_2;0;Same;None;70;70;70;f;n;1;j;b;1349.8826999998528
#10c6rd;6;True;2;P != T1?;ST2_high_4;2;Same;high;96;70;70;f;n;1;f;b;630.5114000001595
#10c6rd;7;True;2;P != T1?;STb_1;0;Same;None;60;60;60;f;n;1;j;b;1737.9310999999689
#10c6rd;8;True;2;P != T1?;STb_8;0;Same;None;180;180;180;f;n;1;j;b;900.046900000234
#10c6rd;9;True;2;P != T1?;ST1_low_5;1;Same;low;96;154;96;f;n;1;j;b;1316.4944000000105
#10c6rd;10;True;2;P != T2?;STb_6;0;Same;None;132;132;132;f;n;1;j;b;1566.6996999998446
#10c6rd;11;True;2;P != T2?;ST2_high_3;2;Same;high;70;96;96;f;n;1;j;b;810.0590999997621
#10c6rd;12;True;2;P != T2?;DT1_low_5;1;Different;low;96;154;82;f;n;0;j;b;1317.3686999998608
#10c6rd;13;True;2;P != T1?;DT1_low_1;1;Different;low;82;132;70;f;n;0;j;b;1116.5381999999227
#10c6rd;14;True;2;P != T1?;DT2_low_1;2;Different;low;82;132;154;f;n;1;f;b;3140.0942000000214
#10c6rd;15;True;2;P != T1?;ST2_high_4;2;Same;high;96;70;70;f;n;1;f;b;1081.2348999997994
#10c6rd;16;True;2;P != T2?;ST1_high_6;1;Same;high;132;96;132;f;n;0;j;b;595.3629000000547
#10c6rd;1;False;2;P != T2?;STb_6;0;Same;None;132;132;132;f;n;0;f;b;3619.313300000158
#10c6rd;2;False;2;P != T1?;ST2_low_1;2;Same;low;82;132;132;f;n;0;j;b;714.8158999998486
#10c6rd;3;False;2;P != T1?;ST2_high_1;2;Same;high;82;112;112;f;n;1;f;b;2544.9491999997917
#10c6rd;4;False;2;P != T1?;ST1_low_2;1;Same;low;132;82;132;f;n;0;f;b;1258.3432999999786
#10c6rd;5;False;2;P != T1?;ST1_high_3;1;Same;high;70;96;70;f;n;1;j;b;1026.966099999754
#10c6rd;6;False;2;P != T1?;ST1_high_5;1;Same;high;96;132;96;f;n;0;f;b;1186.396799999784
#10c6rd;7;False;2;P != T1?;ST2_low_3;2;Same;low;70;112;112;f;n;0;j;b;1016.2193999999545
#10c6rd;8;False;2;P != T1?;ST1_high_1;1;Same;high;82;112;82;f;n;1;j;b;2520.617200000288
#10c6rd;9;False;2;P != T1?;ST2_low_2;2;Same;low;132;82;82;f;n;1;f;b;2642.9463999998006
#10c6rd;10;False;2;P != T2?;STb_3;0;Same;None;82;82;82;f;n;1;j;b;607.6437000001533
#10c6rd;11;False;2;P != T2?;ST1_high_3;1;Same;high;70;96;70;f;n;1;f;b;1809.2406000000665
#10c6rd;12;False;2;P != T1?;STb_1;0;Same;None;60;60;60;f;n;1;j;b;708.6150000000089
#10c6rd;13;False;2;P != T1?;ST2_low_2;2;Same;low;132;82;82;f;n;1;f;b;3995.62509999987
#10c6rd;14;False;2;P != T2?;ST1_low_1;1;Same;low;82;132;82;f;n;0;j;b;1401.109400000223
#10c6rd;15;False;2;P != T2?;ST2_low_3;2;Same;low;70;112;112;f;n;0;f;b;1408.3559000000605
#10c6rd;16;False;2;P != T1?;ST1_low_2;1;Same;low;132;82;132;f;n;0;f;b;1004.0665999999874
#10c6rd;17;False;2;P != T1?;ST2_high_5;2;Same;high;96;132;132;f;n;1;f;b;2678.0635000000075
#10c6rd;18;False;2;P != T1?;ST1_low_3;1;Same;low;70;112;70;f;n;0;f;b;1713.17930000032
#10c6rd;19;False;2;P != T2?;ST2_high_6;2;Same;high;132;96;96;f;n;1;j;b;1139.437700000144
#10c6rd;20;False;2;P != T1?;ST1_low_5;1;Same;low;96;154;96;f;n;1;j;b;1821.5264999998908
#10c6rd;21;False;2;P != T1?;ST2_low_5;2;Same;low;96;154;154;f;n;0;j;b;2717.3499000000447
#10c6rd;22;False;2;P != T2?;ST2_high_4;2;Same;high;96;70;70;f;n;0;f;b;4393.53039999969
#10c6rd;23;False;2;P != T2?;ST1_high_6;1;Same;high;132;96;132;f;n;1;f;b;1314.0459000001101
#10c6rd;24;False;2;P != T2?;DT2_high_1;2;Different;high;82;112;132;f;n;0;j;b;944.0819000001284
#10c6rd;25;False;2;P != T2?;STb_8;0;Same;None;180;180;180;f;n;1;j;b;1895.1172000001861
#10c6rd;26;False;2;P != T1?;ST2_low_5;2;Same;low;96;154;154;f;n;0;j;b;1413.7230000001182
#10c6rd;27;False;2;P != T1?;ST2_high_3;2;Same;high;70;96;96;f;n;0;j;b;1063.3688999996593
#10c6rd;28;False;2;P != T2?;ST2_low_4;2;Same;low;112;70;70;f;n;1;j;b;665.1186999997662
#10c6rd;29;False;2;P != T2?;ST1_low_6;1;Same;low;154;96;154;f;n;1;f;b;1568.971600000168
#10c6rd;30;False;2;P != T2?;ST2_low_6;2;Same;low;154;96;96;f;n;1;j;b;1974.7188999999707
#10c6rd;31;False;2;P != T1?;ST2_low_1;2;Same;low;82;132;132;f;n;1;f;b;1850.289800000155
#10c6rd;32;False;2;P != T2?;ST2_high_3;2;Same;high;70;96;96;f;n;0;f;v;2176.514999999654
#10c6rd;33;False;2;P != T1?;ST1_low_1;1;Same;low;82;132;82;f;n;0;f;b;1266.9009999999616
#10c6rd;34;False;2;P != T2?;ST2_low_2;2;Same;low;132;82;82;f;n;0;f;b;1369.4792999999663
#10c6rd;35;False;2;P != T1?;ST1_low_2;1;Same;low;132;82;132;f;n;1;j;b;991.4014999999381
#10c6rd;36;False;2;P != T1?;ST1_low_1;1;Same;low;82;132;82;f;n;1;j;b;2888.827400000082
#10c6rd;37;False;2;P != T1?;ST1_high_2;1;Same;high;112;82;112;f;n;1;j;b;1261.0061000004862
#10c6rd;38;False;2;P != T2?;ST1_high_4;1;Same;high;96;70;96;f;n;0;j;b;711.8303999995987
#10c6rd;39;False;2;P != T2?;ST1_high_4;1;Same;high;96;70;96;f;n;0;j;b;1492.1354999996765
#10c6rd;40;False;2;P != T1?;STb_7;0;Same;None;154;154;154;f;n;0;f;b;749.8628000003009
#10c6rd;41;False;2;P != T1?;ST1_low_1;1;Same;low;82;132;82;f;n;1;j;b;3725.0289999992674
#10c6rd;42;False;2;P != T1?;ST1_low_4;1;Same;low;112;70;112;f;n;0;f;b;1272.4680000001172
#10c6rd;43;False;2;P != T1?;ST2_high_1;2;Same;high;82;112;112;f;n;1;f;b;1509.9013999997624
#10c6rd;44;False;2;P != T1?;ST1_high_6;1;Same;high;132;96;132;f;n;1;j;b;1180.2122999997664
#10c6rd;45;False;2;P != T2?;ST1_low_1;1;Same;low;82;132;82;f;n;1;f;b;1108.3638000000064
#10c6rd;46;False;2;P != T1?;ST2_high_2;2;Same;high;112;82;82;f;n;1;f;b;4499.285300000338
#10c6rd;47;False;2;P != T2?;STb_4;0;Same;None;96;96;96;f;n;1;j;n;969.2609999992783
#10c6rd;48;False;2;P != T2?;ST2_high_1;2;Same;high;82;112;112;f;n;0;f;b;1629.973500000233
#10c6rd;49;False;2;P != T1?;ST2_low_1;2;Same;low;82;132;132;f;n;0;j;b;793.7291999996887
#10c6rd;50;False;2;P != T2?;ST1_low_5;1;Same;low;96;154;96;f;n;1;f;b;2678.0320999996547
#10c6rd;51;False;2;P != T2?;ST1_high_5;1;Same;high;96;132;96;f;n;0;j;b;3922.1863000002486
#10c6rd;52;False;2;P != T2?;STb_2;0;Same;None;70;70;70;f;n;0;f;b;658.598300000449
#10c6rd;53;False;2;P != T1?;ST2_low_6;2;Same;low;154;96;96;f;n;0;j;b;1160.7433999997738
#10c6rd;54;False;2;P != T2?;ST2_low_3;2;Same;low;70;112;112;f;n;1;j;b;2607.896200000141
#10c6rd;55;False;2;P != T1?;ST2_low_4;2;Same;low;112;70;70;f;n;1;f;b;1246.259900000041
#10c6rd;56;False;2;P != T1?;ST1_high_1;1;Same;high;82;112;82;f;n;0;f;b;1229.3982000001051
#10c6rd;57;False;2;P != T2?;ST2_high_2;2;Same;high;112;82;82;f;n;1;j;b;899.9255999997331
#10c6rd;58;False;2;P != T2?;ST2_low_6;2;Same;low;154;96;96;f;n;1;j;b;651.6835000002175
#10c6rd;59;False;2;P != T1?;ST2_low_3;2;Same;low;70;112;112;f;n;1;f;b;2208.477199999834
#10c6rd;60;False;2;P != T2?;ST2_high_6;2;Same;high;132;96;96;f;n;1;j;b;592.2834999992119
#10c6rd;61;False;2;P != T2?;ST1_low_6;1;Same;low;154;96;154;f;n;0;j;b;1463.71629999976
#10c6rd;62;False;2;P != T2?;ST1_low_3;1;Same;low;70;112;70;f;n;0;j;b;1787.3435999999856
#10c6rd;63;False;2;P != T2?;ST2_high_2;2;Same;high;112;82;82;f;n;1;j;b;678.9147999998022
#10c6rd;64;False;2;P != T2?;ST1_high_1;1;Same;high;82;112;82;f;n;0;j;b;1241.3163999999597
#10c6rd;65;False;2;P != T2?;ST1_high_4;1;Same;high;96;70;96;f;n;0;j;b;449.74379999985103
#10c6rd;66;False;2;P != T2?;ST2_low_2;2;Same;low;132;82;82;f;n;1;j;b;946.5319000000818
#10c6rd;67;False;2;P != T2?;ST2_low_4;2;Same;low;112;70;70;f;n;1;j;b;491.1971999999878
#10c6rd;68;False;2;P != T1?;ST1_high_2;1;Same;high;112;82;112;f;n;1;j;n;5443.039499999941
#10c6rd;69;False;2;P != T2?;ST1_high_2;1;Same;high;112;82;112;f;n;0;j;b;1493.5808999998699
#10c6rd;70;False;2;P != T1?;ST1_low_6;1;Same;low;154;96;154;f;n;0;f;b;2555.1097999996273
#10c6rd;71;False;2;P != T2?;ST1_low_5;1;Same;low;96;154;96;f;n;0;j;b;7489.183800000319
#10c6rd;72;False;2;P != T1?;DT1_high_3;1;Different;high;70;96;60;f;n;1;f;b;1892.3141000004762
#10c6rd;73;False;2;P != T1?;ST1_low_4;1;Same;low;112;70;112;f;n;1;j;b;516.1051999994015
#10c6rd;74;False;2;P != T2?;ST1_high_6;1;Same;high;132;96;132;f;n;1;f;b;992.374700000255
#10c6rd;75;False;2;P != T2?;ST1_low_4;1;Same;low;112;70;112;f;n;0;j;b;2550.5487000000358
#10c6rd;76;False;2;P != T1?;DT1_high_6;1;Different;high;132;96;154;f;n;0;j;b;1280.0624999999854
#10c6rd;77;False;2;P != T2?;ST2_high_1;2;Same;high;82;112;112;f;n;1;j;b;1788.3640999998534
#10c6rd;78;False;2;P != T2?;ST1_high_5;1;Same;high;96;132;96;f;n;0;j;b;1319.1937000001417
#10c6rd;79;False;2;P != T2?;STb_5;0;Same;None;112;112;112;f;n;0;f;b;1341.8769999998403
#10c6rd;80;False;2;P != T2?;ST2_low_4;2;Same;low;112;70;70;f;n;1;j;b;918.1656000000658
#10c6rd;81;False;2;P != T1?;ST1_high_5;1;Same;high;96;132;96;f;n;1;j;b;1668.2620999999926
#10c6rd;82;False;2;P != T2?;ST2_high_5;2;Same;high;96;132;132;f;n;1;j;b;980.8460999993258
#10c6rd;83;False;2;P != T1?;ST2_high_3;2;Same;high;70;96;96;f;n;1;f;b;605.5102000000261
#10c6rd;84;False;2;P != T1?;ST1_low_4;1;Same;low;112;70;112;f;n;0;f;b;1255.0807999996323
#10c6rd;85;False;2;P != T1?;ST2_low_2;2;Same;low;132;82;82;f;n;1;f;v;3351.4422999996896
#10c6rd;86;False;2;P != T2?;DT1_high_4;1;Different;high;96;70;112;f;n;1;f;v;1066.3934000003792
#10c6rd;87;False;2;P != T1?;ST2_high_6;2;Same;high;132;96;96;f;n;1;f;v;1456.7521999997552
#10c6rd;88;False;2;P != T1?;ST2_high_5;2;Same;high;96;132;132;f;n;1;f;v;3484.835600000224
#10c6rd;89;False;2;P != T2?;DT1_low_2;1;Different;low;132;82;154;f;n;1;f;b;1073.7516999997752
#10c6rd;90;False;2;P != T2?;DT2_low_4;2;Different;low;112;70;60;f;n;0;j;b;1811.9894999999815
#10c6rd;91;False;2;P != T2?;ST2_high_3;2;Same;high;70;96;96;f;n;1;j;b;1053.7970999994286
#10c6rd;92;False;2;P != T2?;STb_1;0;Same;None;60;60;60;f;n;1;j;b;1395.3847000002497
#10c6rd;93;False;2;P != T2?;DT2_high_5;2;Different;high;96;132;154;f;n;0;j;n;1845.4437000000325
#10c6rd;94;False;2;P != T1?;ST1_high_6;1;Same;high;132;96;132;f;n;0;f;b;1271.2029000003895
#10c6rd;95;False;2;P != T1?;DT1_high_1;1;Different;high;82;112;70;f;n;0;j;b;4224.548300000606
#10c6rd;96;False;2;P != T1?;STb_5;0;Same;None;112;112;112;f;n;1;j;b;1053.7273999998433
#10c6rd;97;False;2;P != T2?;ST2_high_6;2;Same;high;132;96;96;f;n;0;f;b;1031.7347999998674
#10c6rd;98;False;2;P != T2?;ST2_high_5;2;Same;high;96;132;132;f;n;1;j;b;638.0790999992314
#10c6rd;99;False;2;P != T2?;ST1_low_4;1;Same;low;112;70;112;f;n;0;j;b;2735.8538000007684
#10c6rd;100;False;2;P != T2?;ST2_low_1;2;Same;low;82;132;132;f;n;0;f;b;1990.9409000001688
#10c6rd;101;False;2;P != T1?;ST2_high_6;2;Same;high;132;96;96;f;n;0;j;b;1434.2094000003272
#10c6rd;102;False;2;P != T2?;ST2_high_2;2;Same;high;112;82;82;f;n;1;j;b;628.0409999999392
#10c6rd;103;False;2;P != T1?;ST1_high_4;1;Same;high;96;70;96;f;n;0;f;n;1725.9503999994195
#10c6rd;104;False;2;P != T1?;DT1_high_5;1;Different;high;96;132;82;f;n;0;j;b;1187.4682999996367
#10c6rd;105;False;2;P != T2?;ST1_high_6;1;Same;high;132;96;132;f;n;0;j;n;2164.7582999994484
#10c6rd;106;False;2;P != T1?;ST2_low_3;2;Same;low;70;112;112;f;n;1;f;b;1273.3680000001186
#10c6rd;107;False;2;P != T1?;ST1_high_5;1;Same;high;96;132;96;f;n;1;j;n;2023.2074999994438
#10c6rd;108;False;2;P != T2?;ST2_low_5;2;Same;low;96;154;154;f;n;1;j;n;1347.6420999995753
#10c6rd;109;False;2;P != T1?;ST2_low_6;2;Same;low;154;96;96;f;n;1;f;b;555.6475000003047
#10c6rd;110;False;2;P != T1?;STb_3;0;Same;None;82;82;82;f;n;0;f;b;719.7620999995706
#10c6rd;111;False;2;P != T2?;ST1_high_2;1;Same;high;112;82;112;f;n;0;j;b;499.8217000002114
#10c6rd;112;False;2;P != T2?;ST2_high_3;2;Same;high;70;96;96;f;n;1;j;b;3722.7458000006663
#10c6rd;113;False;2;P != T2?;DT2_low_1;2;Different;low;82;132;154;f;n;0;j;b;826.7875999999887
#10c6rd;114;False;2;P != T2?;ST1_high_5;1;Same;high;96;132;96;f;n;0;j;n;4568.226499999582
#10c6rd;115;False;2;P != T1?;DT2_low_5;2;Different;low;96;154;180;f;n;1;f;v;6011.7959999997765
#10c6rd;116;False;2;P != T2?;ST1_high_3;1;Same;high;70;96;70;f;n;0;j;b;1098.05679999954
#10c6rd;117;False;2;P != T2?;DT1_low_6;1;Different;low;154;96;180;f;n;1;f;b;932.977800000117
#10c6rd;118;False;2;P != T2?;ST2_low_3;2;Same;low;70;112;112;f;n;1;j;n;1655.8171999995466
#10c6rd;119;False;2;P != T1?;ST2_low_6;2;Same;low;154;96;96;f;n;0;j;n;1864.0910000003714
#10c6rd;120;False;2;P != T1?;ST1_low_3;1;Same;low;70;112;70;f;n;0;f;b;1207.7085999999326
#10c6rd;121;False;2;P != T2?;ST2_low_2;2;Same;low;132;82;82;f;n;1;j;n;639.8733999994874
#10c6rd;122;False;2;P != T1?;STb_8;0;Same;None;180;180;180;f;n;1;j;b;402.59600000081264
#10c6rd;123;False;2;P != T1?;DT2_low_6;2;Different;low;154;96;82;f;n;1;f;b;545.5318000003899
#10c6rd;124;False;2;P != T2?;ST1_low_3;1;Same;low;70;112;70;f;n;1;f;b;2030.2643999993961
#10c6rd;125;False;2;P != T1?;ST1_low_6;1;Same;low;154;96;154;f;n;1;j;b;4245.874300000651
#10c6rd;126;False;2;P != T1?;DT2_high_4;2;Different;high;96;70;60;f;n;1;f;b;1324.901700000737
#10c6rd;127;False;2;P != T2?;ST1_low_2;1;Same;low;132;82;132;f;n;1;f;b;1593.989199999669
#10c6rd;128;False;2;P != T1?;ST2_high_5;2;Same;high;96;132;132;f;n;0;j;b;577.9574999996839
#10c6rd;129;False;2;P != T1?;ST2_high_4;2;Same;high;96;70;70;f;n;1;f;b;968.2541000001947
#10c6rd;130;False;2;P != T2?;ST2_low_5;2;Same;low;96;154;154;f;n;1;j;b;1049.446099999841
#10c6rd;131;False;2;P != T2?;ST1_low_2;1;Same;low;132;82;132;f;n;0;j;b;2217.123299999912
#10c6rd;132;False;2;P != T2?;ST1_low_1;1;Same;low;82;132;82;f;n;0;j;b;1223.125300000902
#10c6rd;133;False;2;P != T1?;ST2_low_5;2;Same;low;96;154;154;f;n;1;f;b;3878.6474999997154
#10c6rd;134;False;2;P != T2?;ST1_low_5;1;Same;low;96;154;96;f;n;0;j;b;1083.9569999998275
#10c6rd;135;False;2;P != T1?;ST1_high_4;1;Same;high;96;70;96;f;n;0;f;b;1132.9642000000604
#10c6rd;136;False;2;P != T2?;ST1_high_2;1;Same;high;112;82;112;f;n;0;j;b;1864.0739999991638
#10c6rd;137;False;2;P != T2?;ST2_high_4;2;Same;high;96;70;70;f;n;1;j;b;1594.0575000004173
#10c6rd;138;False;2;P != T1?;ST2_low_4;2;Same;low;112;70;70;f;n;1;f;b;1412.9553000002488
#10c6rd;139;False;2;P != T2?;ST1_low_2;1;Same;low;132;82;132;f;n;1;f;b;1971.1385000000519
#10c6rd;140;False;2;P != T2?;ST1_low_4;1;Same;low;112;70;112;f;n;0;j;b;1352.3561000001791
#10c6rd;141;False;2;P != T1?;ST1_high_6;1;Same;high;132;96;132;f;n;1;j;b;952.1238000006633
#10c6rd;142;False;2;P != T1?;ST1_low_5;1;Same;low;96;154;96;f;n;1;j;b;716.967399999703
#10c6rd;143;False;2;P != T1?;ST1_low_6;1;Same;low;154;96;154;f;n;1;j;b;959.3488000000434
#10c6rd;144;False;2;P != T1?;STb_2;0;Same;None;70;70;70;f;n;1;j;b;2072.4308999997447
#10c6rd;145;False;2;P != T2?;ST1_high_3;1;Same;high;70;96;70;f;n;1;f;b;1180.7042999998885
#10c6rd;146;False;2;P != T2?;ST2_high_4;2;Same;high;96;70;70;f;n;1;j;b;2435.7958999999028
#10c6rd;147;False;2;P != T2?;ST2_low_1;2;Same;low;82;132;132;f;n;1;j;b;2586.386300000413
#10c6rd;148;False;2;P != T2?;ST2_high_1;2;Same;high;82;112;112;f;n;1;j;b;638.6308999999528
#10c6rd;149;False;2;P != T2?;ST2_low_6;2;Same;low;154;96;96;f;n;1;j;b;1345.2956000000995
#10c6rd;150;False;2;P != T1?;ST2_high_6;2;Same;high;132;96;96;f;n;1;f;b;5861.245400000371
#10c6rd;151;False;2;P != T1?;ST2_low_4;2;Same;low;112;70;70;f;n;1;f;b;1412.497600000279
#10c6rd;152;False;2;P != T1?;ST2_high_4;2;Same;high;96;70;70;f;n;1;f;n;6468.567500000063
#10c6rd;153;False;2;P != T1?;ST2_high_4;2;Same;high;96;70;70;f;n;0;j;b;4856.623699999545
#10c6rd;154;False;2;P != T1?;ST2_high_2;2;Same;high;112;82;82;f;n;0;j;b;663.5105999994266
#10c6rd;155;False;2;P != T1?;ST1_high_4;1;Same;high;96;70;96;f;n;0;f;b;1195.671499999662
#10c6rd;156;False;2;P != T1?;ST1_high_3;1;Same;high;70;96;70;f;n;1;j;b;625.8295999996335
#10c6rd;157;False;2;P != T2?;STb_7;0;Same;None;154;154;154;f;n;1;j;b;1665.7048000006398
#10c6rd;158;False;2;P != T1?;ST2_high_3;2;Same;high;70;96;96;f;n;0;j;b;713.0916999994952
#10c6rd;159;False;2;P != T1?;ST1_low_5;1;Same;low;96;154;96;f;n;1;j;b;819.7963000002346
#10c6rd;160;False;2;P != T1?;ST1_low_3;1;Same;low;70;112;70;f;n;0;f;b;2459.597600000052
#10c6rd;161;False;2;P != T1?;ST2_high_2;2;Same;high;112;82;82;f;n;1;f;b;3632.245900000271
#10c6rd;162;False;2;P != T2?;ST1_high_1;1;Same;high;82;112;82;f;n;1;f;b;1418.9702000003308
#10c6rd;163;False;2;P != T1?;ST1_high_2;1;Same;high;112;82;112;f;n;1;j;b;1894.7613000000274
#10c6rd;164;False;2;P != T2?;ST1_low_6;1;Same;low;154;96;154;f;n;0;j;b;885.3708999995433
#10c6rd;165;False;2;P != T2?;DT1_low_1;1;Different;low;82;132;70;f;n;0;j;n;843.6264000001756
#10c6rd;166;False;2;P != T2?;ST1_high_1;1;Same;high;82;112;82;f;n;0;j;b;2984.212800000023
#10c6rd;167;False;2;P != T1?;STb_6;0;Same;None;132;132;132;f;n;0;f;b;1233.0494999996517
#10c6rd;168;False;2;P != T2?;ST2_low_1;2;Same;low;82;132;132;f;n;1;j;n;2038.939200000641
#10c6rd;169;False;2;P != T1?;STb_4;0;Same;None;96;96;96;f;n;0;f;b;2767.2640999999203
#10c6rd;170;False;2;P != T2?;ST2_low_5;2;Same;low;96;154;154;f;n;0;f;b;654.2374000000564
#10c6rd;171;False;2;P != T1?;ST2_high_1;2;Same;high;82;112;112;f;n;0;j;b;630.3030999997645
#10c6rd;172;False;2;P != T1?;ST1_high_3;1;Same;high;70;96;70;f;n;1;j;b;808.1437999999252
#10c6rd;173;False;2;P != T2?;ST2_high_5;2;Same;high;96;132;132;f;n;0;f;n;5883.028700000068
#10c6rd;174;False;2;P != T1?;DT2_low_3;2;Different;low;70;112;132;f;n;1;f;b;1448.6561000003348
#10c6rd;175;False;2;P != T2?;ST1_low_3;1;Same;low;70;112;70;f;n;1;f;b;1244.792100000268
#10c6rd;176;False;2;P != T1?;ST1_high_1;1;Same;high;82;112;82;f;n;1;j;b;3503.0645999995613
#10c6rd;1;True;3;P = T1?;DT1_high_3;1;Different;high;70;96;60;f;n;0;f;n;1842.4577999994654
#10c6rd;2;True;3;P = T1?;STb_1;0;Same;None;60;60;60;f;n;1;f;b;1091.262199999619
#10c6rd;3;True;3;P = T2?;ST2_low_5;2;Same;low;96;154;154;f;n;1;f;n;507.367900000645
#10c6rd;4;True;3;P = T1?;STb_2;0;Same;None;70;70;70;f;n;1;f;b;1894.155299999511
#10c6rd;5;True;3;P = T1?;ST2_low_1;2;Same;low;82;132;132;f;n;1;j;b;783.6245999997118
#10c6rd;6;True;3;P = T2?;DT1_high_2;1;Different;high;112;82;132;f;n;0;f;b;1401.1673999993945
#10c6rd;7;True;3;P = T2?;STb_7;0;Same;None;154;154;154;f;n;1;f;b;651.0705999999118
#10c6rd;8;True;3;P = T1?;ST1_low_3;1;Same;low;70;112;70;f;n;1;f;b;701.1327000000165
#10c6rd;9;True;3;P = T2?;DT1_low_2;1;Different;low;132;82;154;f;n;1;j;b;957.6960000003965
#10c6rd;10;True;3;P = T2?;ST1_low_2;1;Same;low;132;82;132;f;n;0;f;b;1473.7079000005906
#10c6rd;11;True;3;P = T2?;ST2_high_4;2;Same;high;96;70;70;f;n;1;f;b;835.0999000003867
#10c6rd;12;True;3;P = T1?;DT1_high_1;1;Different;high;82;112;70;f;n;1;j;b;617.6384999998845
#10c6rd;13;True;3;P = T2?;STb_4;0;Same;None;96;96;96;f;n;1;f;b;475.4955999997037
#10c6rd;14;True;3;P = T1?;ST2_high_1;2;Same;high;82;112;112;f;n;0;f;b;1420.15739999988
#10c6rd;15;True;3;P = T1?;ST1_low_4;1;Same;low;112;70;112;f;n;0;j;b;779.7001000008095
#10c6rd;16;True;3;P = T2?;ST1_low_5;1;Same;low;96;154;96;f;n;1;j;b;2270.0738000003184
#10c6rd;1;False;3;P = T2?;ST1_high_5;1;Same;high;96;132;96;f;n;0;f;b;1789.94640000019
#10c6rd;2;False;3;P = T2?;ST1_low_2;1;Same;low;132;82;132;f;n;0;f;n;1061.7572999999538
#10c6rd;3;False;3;P = T2?;ST2_high_3;2;Same;high;70;96;96;f;n;1;f;b;765.4320000001462
#10c6rd;4;False;3;P = T2?;STb_7;0;Same;None;154;154;154;f;n;0;j;b;1079.1834000001472
#10c6rd;5;False;3;P = T2?;ST1_high_1;1;Same;high;82;112;82;f;n;1;j;b;745.2974999996513
#10c6rd;6;False;3;P = T2?;ST2_low_5;2;Same;low;96;154;154;f;n;1;f;b;877.6279999992767
#10c6rd;7;False;3;P = T2?;ST2_high_4;2;Same;high;96;70;70;f;n;1;f;b;997.6917000003596
#10c6rd;8;False;3;P = T1?;ST1_low_2;1;Same;low;132;82;132;f;n;1;f;b;625.955000000431
#10c6rd;9;False;3;P = T1?;ST2_low_2;2;Same;low;132;82;82;f;n;1;j;b;776.3155000002371
#10c6rd;10;False;3;P = T1?;ST1_low_3;1;Same;low;70;112;70;f;n;1;f;b;973.0447000001732
#10c6rd;11;False;3;P = T2?;ST1_high_4;1;Same;high;96;70;96;f;n;1;j;b;1250.750799999878
#10c6rd;12;False;3;P = T2?;STb_8;0;Same;None;180;180;180;f;n;0;j;b;736.5163000004031
#10c6rd;13;False;3;P = T2?;ST1_high_5;1;Same;high;96;132;96;f;n;0;f;b;925.654100000429
#10c6rd;14;False;3;P = T2?;ST1_high_6;1;Same;high;132;96;132;f;n;0;f;b;800.6969000007302
#10c6rd;15;False;3;P = T1?;ST2_low_2;2;Same;low;132;82;82;f;n;1;j;b;1346.860600000582
#10c6rd;16;False;3;P = T2?;ST2_high_6;2;Same;high;132;96;96;f;n;0;j;b;899.7061000000031
#10c6rd;17;False;3;P = T1?;ST2_low_4;2;Same;low;112;70;70;f;n;1;j;n;601.3389999998253
#10c6rd;18;False;3;P = T2?;ST2_high_2;2;Same;high;112;82;82;f;n;1;f;b;910.253100000773
#10c6rd;19;False;3;P = T1?;ST1_low_1;1;Same;low;82;132;82;f;n;0;j;b;879.775299999892
#10c6rd;20;False;3;P = T1?;ST2_low_4;2;Same;low;112;70;70;f;n;1;j;b;1602.0757999995112
#10c6rd;21;False;3;P = T1?;ST1_low_4;1;Same;low;112;70;112;f;n;0;j;b;895.6471999999849
#10c6rd;22;False;3;P = T2?;ST1_high_3;1;Same;high;70;96;70;f;n;0;f;n;2068.595599999753
#10c6rd;23;False;3;P = T2?;ST2_high_2;2;Same;high;112;82;82;f;n;0;j;b;827.8713999998217
#10c6rd;24;False;3;P = T2?;ST2_low_4;2;Same;low;112;70;70;f;n;0;j;b;805.0054999994245
#10c6rd;25;False;3;P = T1?;ST1_low_1;1;Same;low;82;132;82;f;n;0;j;b;2204.964000000473
#10c6rd;26;False;3;P = T1?;ST1_high_1;1;Same;high;82;112;82;f;n;1;f;b;634.2886000002181
#10c6rd;27;False;3;P = T1?;ST1_low_5;1;Same;low;96;154;96;f;n;1;f;b;1341.289400000278
#10c6rd;28;False;3;P = T2?;DT1_high_4;1;Different;high;96;70;112;f;n;0;f;b;1329.131100000268
#10c6rd;29;False;3;P = T1?;DT2_high_2;2;Different;high;112;82;70;f;n;1;j;v;1136.7273000005298
#10c6rd;30;False;3;P = T1?;ST2_low_6;2;Same;low;154;96;96;f;n;1;j;b;652.439599999525
#10c6rd;31;False;3;P = T1?;ST2_high_5;2;Same;high;96;132;132;f;n;1;j;b;1619.8803999996017
#10c6rd;32;False;3;P = T2?;ST2_low_3;2;Same;low;70;112;112;f;n;0;j;b;5114.163600000211
#10c6rd;33;False;3;P = T2?;ST2_low_2;2;Same;low;132;82;82;f;n;1;f;n;3953.281199999765
#10c6rd;34;False;3;P = T1?;ST1_low_4;1;Same;low;112;70;112;f;n;0;j;v;703.7677000007534
#10c6rd;35;False;3;P = T1?;ST1_low_2;1;Same;low;132;82;132;f;n;0;j;b;1171.8033999995896
#10c6rd;36;False;3;P = T1?;ST1_low_6;1;Same;low;154;96;154;f;n;1;f;b;2017.5165999989986
#10c6rd;37;False;3;P = T1?;ST2_low_6;2;Same;low;154;96;96;f;n;1;j;b;797.7967999995599
#10c6rd;38;False;3;P = T1?;STb_5;0;Same;None;112;112;112;f;n;0;j;b;888.2200999996712
#10c6rd;39;False;3;P = T2?;ST1_low_1;1;Same;low;82;132;82;f;n;1;j;b;720.1103999996121
#10c6rd;40;False;3;P = T2?;STb_4;0;Same;None;96;96;96;f;n;0;j;b;730.8563999995386
#10c6rd;41;False;3;P = T2?;ST2_low_5;2;Same;low;96;154;154;f;n;0;j;b;117.79700000079174
#10c6rd;42;False;3;P = T1?;ST2_high_5;2;Same;high;96;132;132;f;n;1;j;b;1050.7369999995717
#10c6rd;43;False;3;P = T2?;ST1_high_4;1;Same;high;96;70;96;f;n;0;f;b;784.888600001068
#10c6rd;44;False;3;P = T1?;ST1_high_4;1;Same;high;96;70;96;f;n;0;j;b;788.8789999997243
#10c6rd;45;False;3;P = T2?;ST2_high_3;2;Same;high;70;96;96;f;n;0;j;b;936.2874000016745
#10c6rd;46;False;3;P = T2?;ST2_high_3;2;Same;high;70;96;96;f;n;0;j;b;796.1956999988615
#10c6rd;47;False;3;P = T2?;ST1_high_5;1;Same;high;96;132;96;f;n;1;j;b;748.1552999997803
#10c6rd;48;False;3;P = T1?;DT2_high_1;2;Different;high;82;112;132;f;n;1;j;b;850.6885999995575
#10c6rd;49;False;3;P = T2?;ST1_low_5;1;Same;low;96;154;96;f;n;0;f;b;913.7919000004331
#10c6rd;50;False;3;P = T2?;ST1_low_2;1;Same;low;132;82;132;f;n;0;f;b;1050.0746999987314
#10c6rd;51;False;3;P = T1?;ST1_low_1;1;Same;low;82;132;82;f;n;0;j;b;2735.8688000003895
#10c6rd;52;False;3;P = T1?;ST1_high_5;1;Same;high;96;132;96;f;n;0;j;b;881.228000000192
#10c6rd;53;False;3;P = T1?;ST1_low_3;1;Same;low;70;112;70;f;n;0;j;b;1066.4770000003045
#10c6rd;54;False;3;P = T1?;ST1_high_2;1;Same;high;112;82;112;f;n;1;f;b;352.3251999995409
#10c6rd;55;False;3;P = T1?;DT2_low_2;2;Different;low;132;82;70;f;n;1;j;b;679.5380999992631
#10c6rd;56;False;3;P = T1?;ST2_low_1;2;Same;low;82;132;132;f;n;0;f;b;2013.147100000424
#10c6rd;57;False;3;P = T2?;STb_3;0;Same;None;82;82;82;f;n;0;j;v;354.73410000122385
#10c6rd;58;False;3;P = T1?;ST2_low_3;2;Same;low;70;112;112;f;n;1;j;b;601.0046999999759
#10c6rd;59;False;3;P = T1?;ST1_high_3;1;Same;high;70;96;70;f;n;1;f;b;660.4320999995252
#10c6rd;60;False;3;P = T2?;ST1_low_6;1;Same;low;154;96;154;f;n;0;f;b;370.2164999995148
#10c6rd;61;False;3;P = T2?;ST2_low_2;2;Same;low;132;82;82;f;n;1;f;b;707.0072999995318
#10c6rd;62;False;3;P = T2?;ST1_high_1;1;Same;high;82;112;82;f;n;1;j;b;2087.8668000004836
#10c6rd;63;False;3;P = T2?;ST1_low_4;1;Same;low;112;70;112;f;n;0;f;b;1036.5802999986045
#10c6rd;64;False;3;P = T1?;ST2_high_3;2;Same;high;70;96;96;f;n;1;j;b;942.2076000009838
#10c6rd;65;False;3;P = T1?;ST2_high_4;2;Same;high;96;70;70;f;n;0;f;v;1033.1712000006519
#10c6rd;66;False;3;P = T1?;ST1_low_5;1;Same;low;96;154;96;f;n;1;f;b;818.9428999994561
#10c6rd;67;False;3;P = T2?;ST2_high_6;2;Same;high;132;96;96;f;n;0;j;b;687.6630999995541
#10c6rd;68;False;3;P = T2?;STb_2;0;Same;None;70;70;70;f;n;1;f;b;931.3227999991796
#10c6rd;69;False;3;P = T2?;ST2_high_6;2;Same;high;132;96;96;f;n;1;f;v;1566.9330000000627
#10c6rd;70;False;3;P = T1?;ST2_high_4;2;Same;high;96;70;70;f;n;1;j;b;947.0453999983874
#10c6rd;71;False;3;P = T2?;ST1_high_2;1;Same;high;112;82;112;f;n;0;f;b;635.5105000002368
#10c6rd;72;False;3;P = T1?;ST1_high_2;1;Same;high;112;82;112;f;n;0;j;b;756.5374000005249
#10c6rd;73;False;3;P = T1?;ST2_high_6;2;Same;high;132;96;96;f;n;1;j;b;733.2023999988451
#10c6rd;74;False;3;P = T1?;ST1_high_5;1;Same;high;96;132;96;f;n;0;j;b;793.0474000004324
#10c6rd;75;False;3;P = T2?;ST2_low_3;2;Same;low;70;112;112;f;n;1;f;b;850.2888000002713
#10c6rd;76;False;3;P = T2?;ST1_low_4;1;Same;low;112;70;112;f;n;0;f;b;1499.8233000005712
#10c6rd;77;False;3;P = T1?;DT2_low_6;2;Different;low;154;96;82;f;n;1;j;b;894.418299998506
#10c6rd;78;False;3;P = T1?;ST1_low_4;1;Same;low;112;70;112;f;n;1;f;b;738.3372000003874
#10c6rd;79;False;3;P = T2?;DT1_high_2;1;Different;high;112;82;132;f;n;0;f;b;683.4165999989636
#10c6rd;80;False;3;P = T2?;ST2_low_2;2;Same;low;132;82;82;f;n;1;f;b;640.5517000002874
#10c6rd;81;False;3;P = T1?;ST2_low_5;2;Same;low;96;154;154;f;n;1;j;b;758.6035999993328
#10c6rd;82;False;3;P = T1?;STb_4;0;Same;None;96;96;96;f;n;0;j;b;2041.5259000001242
#10c6rd;83;False;3;P = T2?;ST1_low_2;1;Same;low;132;82;132;f;n;0;f;b;689.3880000006902
#10c6rd;84;False;3;P = T2?;ST1_high_6;1;Same;high;132;96;132;f;n;0;f;b;496.95310000061
#10c6rd;85;False;3;P = T2?;ST2_low_6;2;Same;low;154;96;96;f;n;0;j;b;2563.0911000007472
#10c6rd;86;False;3;P = T2?;DT1_high_1;1;Different;high;82;112;70;f;n;1;j;b;958.1631000000925
#10c6rd;87;False;3;P = T1?;ST2_low_3;2;Same;low;70;112;112;f;n;1;j;v;796.758200000113
#10c6rd;88;False;3;P = T2?;ST2_high_1;2;Same;high;82;112;112;f;n;1;f;v;1959.2159999992873
#10c6rd;89;False;3;P = T1?;DT1_high_2;1;Different;high;112;82;132;f;n;1;j;n;814.3582999982755
#10c6rd;90;False;3;P = T1?;ST1_high_2;1;Same;high;112;82;112;f;n;0;j;b;701.4500000004773
#10c6rd;91;False;3;P = T2?;ST2_low_6;2;Same;low;154;96;96;f;n;1;f;b;1410.992900000565
#10c6rd;92;False;3;P = T2?;ST1_low_4;1;Same;low;112;70;112;f;n;0;f;b;743.7181999994209
#10c6rd;93;False;3;P = T1?;ST2_high_3;2;Same;high;70;96;96;f;n;1;j;b;558.1691000006685
#10c6rd;94;False;3;P = T1?;ST2_low_1;2;Same;low;82;132;132;f;n;1;j;b;1262.6522000009572
#10c6rd;95;False;3;P = T1?;ST2_high_1;2;Same;high;82;112;112;f;n;1;j;b;775.9214999987307
#10c6rd;96;False;3;P = T2?;ST2_low_1;2;Same;low;82;132;132;f;n;1;f;b;779.6490000000631
#10c6rd;97;False;3;P = T1?;ST1_low_6;1;Same;low;154;96;154;f;n;0;j;b;712.261299999227
#10c6rd;98;False;3;P = T2?;ST1_low_3;1;Same;low;70;112;70;f;n;0;f;b;839.1124999998283
#10c6rd;99;False;3;P = T1?;ST1_high_3;1;Same;high;70;96;70;f;n;0;j;b;709.2668000004778
#10c6rd;100;False;3;P = T1?;STb_1;0;Same;None;60;60;60;f;n;0;j;b;623.4856000010041
#10c6rd;101;False;3;P = T2?;STb_5;0;Same;None;112;112;112;f;n;1;f;b;439.4302000000607
#10c6rd;102;False;3;P = T1?;ST2_high_4;2;Same;high;96;70;70;f;n;1;j;n;559.9285999996937
#10c6rd;103;False;3;P = T2?;DT2_low_2;2;Different;low;132;82;70;f;n;1;j;b;1157.4717000003147
#10c6rd;104;False;3;P = T2?;ST1_high_6;1;Same;high;132;96;132;f;n;0;f;b;442.66179999976885
#10c6rd;105;False;3;P = T1?;ST1_high_6;1;Same;high;132;96;132;f;n;0;j;b;1200.0177999998414
#10c6rd;106;False;3;P = T1?;ST1_high_4;1;Same;high;96;70;96;f;n;0;j;b;750.8539000009478
#10c6rd;107;False;3;P = T1?;ST1_low_2;1;Same;low;132;82;132;f;n;1;f;b;675.1082999999198
#10c6rd;108;False;3;P = T1?;ST2_low_6;2;Same;low;154;96;96;f;n;1;j;n;671.6899000002741
#10c6rd;109;False;3;P = T1?;ST2_high_1;2;Same;high;82;112;112;f;n;0;f;b;547.749900000781
#10c6rd;110;False;3;P = T2?;ST1_low_5;1;Same;low;96;154;96;f;n;0;f;b;1081.8139999992127
#10c6rd;111;False;3;P = T2?;ST1_high_4;1;Same;high;96;70;96;f;n;0;f;b;1058.8037999987137
#10c6rd;112;False;3;P = T1?;ST1_high_3;1;Same;high;70;96;70;f;n;0;j;b;747.072099999059
#10c6rd;113;False;3;P = T2?;ST2_high_1;2;Same;high;82;112;112;f;n;0;j;b;1430.2645000007033
#10c6rd;114;False;3;P = T1?;ST2_high_3;2;Same;high;70;96;96;f;n;1;j;b;2620.129100001577
#10c6rd;115;False;3;P = T1?;ST2_high_6;2;Same;high;132;96;96;f;n;0;f;b;2995.540300000357
#10c6rd;116;False;3;P = T2?;DT1_high_3;1;Different;high;70;96;60;f;n;1;j;b;470.66930000073626
#10c6rd;117;False;3;P = T1?;ST1_high_4;1;Same;high;96;70;96;f;n;0;j;b;1468.652599998677
#10c6rd;118;False;3;P = T2?;ST1_high_2;1;Same;high;112;82;112;f;n;0;f;b;503.36719999904744
#10c6rd;119;False;3;P = T2?;ST1_high_2;1;Same;high;112;82;112;f;n;1;j;b;989.1508999990037
#10c6rd;120;False;3;P = T2?;ST2_high_5;2;Same;high;96;132;132;f;n;0;j;b;763.3418999994319
#10c6rd;121;False;3;P = T1?;STb_7;0;Same;None;154;154;154;f;n;0;j;b;1809.3242999984795
#10c6rd;122;False;3;P = T2?;ST2_low_3;2;Same;low;70;112;112;f;n;1;f;b;683.6975999995047
#10c6rd;123;False;3;P = T1?;STb_8;0;Same;None;180;180;180;f;n;1;f;v;1231.2698000005184
#10c6rd;124;False;3;P = T2?;ST1_low_1;1;Same;low;82;132;82;f;n;1;j;b;829.4642999990174
#10c6rd;125;False;3;P = T1?;ST1_low_6;1;Same;low;154;96;154;f;n;1;f;b;764.3713999987085
#10c6rd;126;False;3;P = T1?;ST2_low_4;2;Same;low;112;70;70;f;n;1;j;b;1328.911500000686
#10c6rd;127;False;3;P = T1?;DT1_high_1;1;Different;high;82;112;70;f;n;1;j;b;809.7166999996261
#10c6rd;128;False;3;P = T2?;ST1_low_6;1;Same;low;154;96;154;f;n;1;j;b;661.8723000010505
#10c6rd;129;False;3;P = T2?;DT2_high_6;2;Different;high;132;96;82;f;n;1;j;v;2039.55809999934
#10c6rd;130;False;3;P = T1?;ST1_high_5;1;Same;high;96;132;96;f;n;1;f;v;607.7843999992183
#10c6rd;131;False;3;P = T1?;ST1_low_3;1;Same;low;70;112;70;f;n;1;f;v;721.9351000003371
#10c6rd;132;False;3;P = T1?;ST2_high_2;2;Same;high;112;82;82;f;n;0;f;v;813.7248000002728
#10c6rd;133;False;3;P = T1?;ST2_low_5;2;Same;low;96;154;154;f;n;1;j;b;682.9672000003484
#10c6rd;134;False;3;P = T2?;ST2_high_4;2;Same;high;96;70;70;f;n;0;j;b;1174.3101000010938
#10c6rd;135;False;3;P = T2?;ST1_high_3;1;Same;high;70;96;70;f;n;1;j;b;776.0480999986612
#10c6rd;136;False;3;P = T2?;ST2_low_6;2;Same;low;154;96;96;f;n;1;f;b;981.1614000009286
#10c6rd;137;False;3;P = T1?;ST2_high_2;2;Same;high;112;82;82;f;n;1;j;b;637.1894999992946
#10c6rd;138;False;3;P = T2?;ST1_high_3;1;Same;high;70;96;70;f;n;1;j;b;2042.6282000007632
#10c6rd;139;False;3;P = T2?;ST1_low_6;1;Same;low;154;96;154;f;n;1;j;b;676.8085999992763
#10c6rd;140;False;3;P = T2?;DT2_high_1;2;Different;high;82;112;132;f;n;1;j;b;702.5497999984509
#10c6rd;141;False;3;P = T2?;ST2_high_2;2;Same;high;112;82;82;f;n;0;j;b;1251.3306999990164
#10c6rd;142;False;3;P = T1?;ST2_high_5;2;Same;high;96;132;132;f;n;1;j;b;644.8629000005894
#10c6rd;143;False;3;P = T2?;ST2_high_5;2;Same;high;96;132;132;f;n;1;f;b;316.1303000015323
#10c6rd;144;False;3;P = T2?;ST2_low_1;2;Same;low;82;132;132;f;n;1;f;v;559.7366000001784
#10c6rd;145;False;3;P = T1?;STb_6;0;Same;None;132;132;132;f;n;1;f;v;943.8289999998233
#10c6rd;146;False;3;P = T1?;DT1_low_2;1;Different;low;132;82;154;f;n;1;j;b;656.0929000006581
#10c6rd;147;False;3;P = T1?;DT1_low_1;1;Different;low;82;132;70;f;n;1;j;b;547.1257000008336
#10c6rd;148;False;3;P = T1?;ST1_high_1;1;Same;high;82;112;82;f;n;1;f;v;550.7967999983521
#10c6rd;149;False;3;P = T2?;ST2_high_4;2;Same;high;96;70;70;f;n;1;f;v;919.5524000006117
#10c6rd;150;False;3;P = T1?;ST2_low_3;2;Same;low;70;112;112;f;n;1;j;b;626.4496000003419
#10c6rd;151;False;3;P = T1?;ST2_low_5;2;Same;low;96;154;154;f;n;0;f;v;1202.392899998813
#10c6rd;152;False;3;P = T1?;ST1_low_5;1;Same;low;96;154;96;f;n;0;j;b;946.2672999998176
#10c6rd;153;False;3;P = T2?;ST2_high_5;2;Same;high;96;132;132;f;n;1;f;b;856.8233000005421
#10c6rd;154;False;3;P = T2?;ST2_low_4;2;Same;low;112;70;70;f;n;1;f;b;631.2335999991774
#10c6rd;155;False;3;P = T1?;ST1_high_6;1;Same;high;132;96;132;f;n;1;f;b;3398.0580999996164
#10c6rd;156;False;3;P = T2?;ST1_low_3;1;Same;low;70;112;70;f;n;1;j;b;1108.6911000002146
#10c6rd;157;False;3;P = T1?;ST2_low_2;2;Same;low;132;82;82;f;n;0;f;b;743.2122999998683
#10c6rd;158;False;3;P = T2?;STb_1;0;Same;None;60;60;60;f;n;1;f;b;433.1341000015527
#10c6rd;159;False;3;P = T2?;ST2_low_5;2;Same;low;96;154;154;f;n;0;j;b;804.9736999982997
#10c6rd;160;False;3;P = T2?;ST1_low_5;1;Same;low;96;154;96;f;n;1;j;b;1493.2061999988946
#10c6rd;161;False;3;P = T1?;ST1_high_6;1;Same;high;132;96;132;f;n;1;f;b;674.6643000005861
#10c6rd;162;False;3;P = T2?;ST1_low_3;1;Same;low;70;112;70;f;n;0;f;b;769.5370000001276
#10c6rd;163;False;3;P = T2?;ST2_low_1;2;Same;low;82;132;132;f;n;1;f;b;342.1498999996402
#10c6rd;164;False;3;P = T1?;ST2_low_1;2;Same;low;82;132;132;f;n;0;f;b;347.32569999869156
#10c6rd;165;False;3;P = T1?;ST2_high_1;2;Same;high;82;112;112;f;n;0;f;b;719.2198000011558
#10c6rd;166;False;3;P = T1?;STb_3;0;Same;None;82;82;82;f;n;0;j;b;671.6593999990437
#10c6rd;167;False;3;P = T1?;ST2_high_2;2;Same;high;112;82;82;f;n;1;j;b;581.0643999993772
#10c6rd;168;False;3;P = T2?;ST1_high_1;1;Same;high;82;112;82;f;n;0;f;b;413.43329999835987
#10c6rd;169;False;3;P = T2?;STb_6;0;Same;None;132;132;132;f;n;1;f;b;953.56510000056
#10c6rd;170;False;3;P = T2?;ST2_low_4;2;Same;low;112;70;70;f;n;1;f;b;712.6091999998607
#10c6rd;171;False;3;P = T2?;ST2_high_1;2;Same;high;82;112;112;f;n;1;f;b;652.2279999990133
#10c6rd;172;False;3;P = T1?;ST2_high_6;2;Same;high;132;96;96;f;n;1;j;b;600.4824999999983
#10c6rd;173;False;3;P = T2?;ST1_low_1;1;Same;low;82;132;82;f;n;0;f;b;660.9671999995044
#10c6rd;174;False;3;P = T1?;ST1_high_1;1;Same;high;82;112;82;f;n;0;j;b;1601.7581000014616
#10c6rd;175;False;3;P = T2?;DT2_high_2;2;Different;high;112;82;70;f;n;1;j;b;519.0058999996836
#10c6rd;176;False;3;P = T1?;STb_2;0;Same;None;70;70;70;f;n;0;j;b;516.6564999999537
#10c6rd;1;True;4;P != T1?;DT2_low_1;2;Different;low;82;132;154;f;n;0;j;b;2273.800199998732
#10c6rd;2;True;4;P != T2?;ST1_high_6;1;Same;high;132;96;132;f;n;0;j;b;695.642399999997
#10c6rd;3;True;4;P != T1?;ST2_high_4;2;Same;high;96;70;70;f;n;1;f;b;1603.6683000002085
#10c6rd;4;True;4;P != T2?;DT1_low_5;1;Different;low;96;154;82;f;n;0;j;b;634.5737999999983
#10c6rd;5;True;4;P != T1?;DT1_low_1;1;Different;low;82;132;70;f;n;1;f;b;679.2513999989751
#10c6rd;6;True;4;P != T2?;ST2_high_3;2;Same;high;70;96;96;f;n;1;j;b;819.3160999999236
#10c6rd;7;True;4;P != T2?;DT1_low_2;1;Different;low;132;82;154;f;n;0;j;b;1413.3533999993233
#10c6rd;8;True;4;P != T2?;ST2_high_3;2;Same;high;70;96;96;f;n;1;j;b;555.2816999988863
#10c6rd;9;True;4;P != T1?;ST2_high_4;2;Same;high;96;70;70;f;n;1;f;b;1081.372000000556
#10c6rd;10;True;4;P != T1?;STb_1;0;Same;None;60;60;60;f;n;1;j;b;1013.6250000014115
#10c6rd;11;True;4;P != T1?;ST1_high_4;1;Same;high;96;70;96;f;n;1;j;b;535.9148000006826
#10c6rd;12;True;4;P != T2?;STb_6;0;Same;None;132;132;132;f;n;1;j;b;1102.8750000004948
#10c6rd;13;True;4;P != T2?;ST1_high_5;1;Same;high;96;132;96;f;n;0;j;b;897.8904999985389
#10c6rd;14;True;4;P != T2?;STb_2;0;Same;None;70;70;70;f;n;1;j;b;1071.926300000996
#10c6rd;15;True;4;P != T1?;STb_8;0;Same;None;180;180;180;f;n;0;f;b;1250.1936000007845
#10c6rd;16;True;4;P != T1?;ST1_low_5;1;Same;low;96;154;96;f;n;1;j;b;940.099100000225
#10c6rd;1;False;4;P != T2?;STb_6;0;Same;None;132;132;132;f;n;1;j;v;1145.9391999997024
#10c6rd;2;False;4;P != T1?;ST2_high_6;2;Same;high;132;96;96;f;n;0;j;b;796.6385999989143
#10c6rd;3;False;4;P != T2?;ST2_high_6;2;Same;high;132;96;96;f;n;1;j;b;1300.5701000001864
#10c6rd;4;False;4;P != T2?;DT2_low_1;2;Different;low;82;132;154;f;n;0;j;v;1097.137799999473
#10c6rd;5;False;4;P != T1?;ST2_low_5;2;Same;low;96;154;154;f;n;0;j;v;558.8982999997825
#10c6rd;6;False;4;P != T2?;ST2_low_2;2;Same;low;132;82;82;f;n;1;j;v;914.7328999988531
#10c6rd;7;False;4;P != T1?;ST2_high_3;2;Same;high;70;96;96;f;n;0;j;v;637.6822999991418
#10c6rd;8;False;4;P != T2?;ST1_high_5;1;Same;high;96;132;96;f;n;0;j;v;586.3634000015736
#10c6rd;9;False;4;P != T1?;ST1_high_3;1;Same;high;70;96;70;f;n;0;f;v;383.3441999995557
#10c6rd;10;False;4;P != T1?;DT1_high_3;1;Different;high;70;96;60;f;n;0;j;v;542.5245000005816
#10c6rd;11;False;4;P != T2?;ST1_low_4;1;Same;low;112;70;112;f;n;0;j;v;1848.0921000009403
#10c6rd;12;False;4;P != T1?;ST1_high_5;1;Same;high;96;132;96;f;n;0;f;v;1192.6681000004464
#10c6rd;13;False;4;P != T2?;ST2_high_2;2;Same;high;112;82;82;f;n;1;j;v;3339.105999999447
#10c6rd;14;False;4;P != T1?;ST1_high_2;1;Same;high;112;82;112;f;n;1;j;v;2062.0425999986765
#10c6rd;15;False;4;P != T2?;ST2_high_1;2;Same;high;82;112;112;f;n;1;j;v;1616.0290999996505
#10c6rd;16;False;4;P != T2?;ST2_low_4;2;Same;low;112;70;70;f;n;1;j;v;1797.6807999984885
#10c6rd;17;False;4;P != T2?;ST2_low_2;2;Same;low;132;82;82;f;n;1;j;v;1062.6225999985763
#10c6rd;18;False;4;P != T2?;DT2_high_5;2;Different;high;96;132;154;f;n;0;j;b;3757.5759000010294
#10c6rd;19;False;4;P != T2?;ST2_high_3;2;Same;high;70;96;96;f;n;1;j;b;953.2621999987896
#10c6rd;20;False;4;P != T1?;ST1_high_1;1;Same;high;82;112;82;f;n;0;f;b;1889.837599999737
#10c6rd;21;False;4;P != T1?;ST1_high_5;1;Same;high;96;132;96;f;n;1;j;b;1260.8147999999346
#10c6rd;22;False;4;P != T2?;ST2_high_4;2;Same;high;96;70;70;f;n;1;j;b;995.8286999990378
#10c6rd;23;False;4;P != T1?;ST2_high_1;2;Same;high;82;112;112;f;n;1;f;v;1259.2248000000836
#10c6rd;24;False;4;P != T2?;ST1_low_6;1;Same;low;154;96;154;f;n;1;f;b;1291.4239000001544
#10c6rd;25;False;4;P != T1?;DT2_low_5;2;Different;low;96;154;180;f;n;1;f;v;1584.3540000005305
#10c6rd;26;False;4;P != T2?;ST2_high_3;2;Same;high;70;96;96;f;n;1;j;b;1153.83490000022
#10c6rd;27;False;4;P != T1?;ST2_high_5;2;Same;high;96;132;132;f;n;1;f;b;1177.157599999191
#10c6rd;28;False;4;P != T1?;ST2_high_6;2;Same;high;132;96;96;f;n;1;f;b;3250.70389999928
#10c6rd;29;False;4;P != T1?;ST1_low_4;1;Same;low;112;70;112;f;n;1;j;b;1333.4933000005549
#10c6rd;30;False;4;P != T1?;ST1_low_3;1;Same;low;70;112;70;f;n;1;j;b;1581.3413999985642
#10c6rd;31;False;4;P != T2?;DT2_high_1;2;Different;high;82;112;132;f;n;1;f;b;1664.165200001662
#10c6rd;32;False;4;P != T1?;ST2_low_2;2;Same;low;132;82;82;f;n;1;f;b;1986.9523999986995
#10c6rd;33;False;4;P != T2?;ST2_high_5;2;Same;high;96;132;132;f;n;1;j;b;483.03800000030606
#10c6rd;34;False;4;P != T1?;ST2_low_3;2;Same;low;70;112;112;f;n;1;f;b;3462.7431000008073
#10c6rd;35;False;4;P != T1?;ST1_high_2;1;Same;high;112;82;112;f;n;1;j;b;1270.9243999997852
#10c6rd;36;False;4;P != T1?;ST2_high_2;2;Same;high;112;82;82;f;n;1;f;b;1530.9644999997545
#10c6rd;37;False;4;P != T1?;ST2_high_2;2;Same;high;112;82;82;f;n;1;f;b;6048.518100000365
#10c6rd;38;False;4;P != T1?;ST1_low_3;1;Same;low;70;112;70;f;n;1;j;b;473.9100000006147
#10c6rd;39;False;4;P != T1?;STb_6;0;Same;None;132;132;132;f;n;1;j;b;1366.7413999992277
#10c6rd;40;False;4;P != T2?;ST1_high_5;1;Same;high;96;132;96;f;n;0;j;b;1830.0433999993402
#10c6rd;41;False;4;P != T1?;ST2_low_6;2;Same;low;154;96;96;f;n;0;j;b;3050.676900000326
#10c6rd;42;False;4;P != T2?;ST2_low_1;2;Same;low;82;132;132;f;n;1;j;b;750.5805000000692
#10c6rd;43;False;4;P != T2?;ST1_low_3;1;Same;low;70;112;70;f;n;1;f;b;1541.5093999999954
#10c6rd;44;False;4;P != T2?;ST1_low_1;1;Same;low;82;132;82;f;n;0;j;b;1095.3576000010798
#10c6rd;45;False;4;P != T1?;STb_3;0;Same;None;82;82;82;f;n;1;j;b;1743.483500000366
#10c6rd;46;False;4;P != T2?;STb_4;0;Same;None;96;96;96;f;n;1;j;b;961.6217000002507
#10c6rd;47;False;4;P != T2?;ST2_high_2;2;Same;high;112;82;82;f;n;1;j;v;813.0150999986654
#10c6rd;48;False;4;P != T1?;ST1_low_5;1;Same;low;96;154;96;f;n;1;j;b;598.2980000007956
#10c6rd;49;False;4;P != T2?;ST2_low_6;2;Same;low;154;96;96;f;n;1;j;b;1235.6309999995574
#10c6rd;50;False;4;P != T2?;ST1_low_4;1;Same;low;112;70;112;f;n;0;j;b;3429.171800000404
#10c6rd;51;False;4;P != T2?;ST1_high_6;1;Same;high;132;96;132;f;n;1;f;b;1164.2921999991813
#10c6rd;52;False;4;P != T2?;ST2_low_6;2;Same;low;154;96;96;f;n;1;j;b;2024.5252000004257
#10c6rd;53;False;4;P != T1?;ST1_high_3;1;Same;high;70;96;70;f;n;1;j;b;535.0110999988829
#10c6rd;54;False;4;P != T2?;ST2_low_1;2;Same;low;82;132;132;f;n;0;f;n;2050.353600001472
#10c6rd;55;False;4;P != T2?;ST1_high_1;1;Same;high;82;112;82;f;n;0;j;b;440.1385000001028
#10c6rd;56;False;4;P != T2?;STb_8;0;Same;None;180;180;180;f;n;1;j;b;305.40669999936654
#10c6rd;57;False;4;P != T1?;DT2_low_6;2;Different;low;154;96;82;f;n;1;f;b;644.8504999989382
#10c6rd;58;False;4;P != T2?;ST1_low_5;1;Same;low;96;154;96;f;n;1;f;b;349.763800000801
#10c6rd;59;False;4;P != T1?;ST2_high_1;2;Same;high;82;112;112;f;n;0;j;b;566.6343999982928
#10c6rd;60;False;4;P != T2?;DT1_low_1;1;Different;low;82;132;70;f;n;1;f;b;1248.509600000034
#10c6rd;61;False;4;P != T1?;ST2_low_5;2;Same;low;96;154;154;f;n;0;j;b;1381.3909000000422
#10c6rd;62;False;4;P != T2?;ST1_high_2;1;Same;high;112;82;112;f;n;0;j;b;1309.1288000014174
#10c6rd;63;False;4;P != T2?;ST2_low_1;2;Same;low;82;132;132;f;n;0;f;b;793.6106999986805
#10c6rd;64;False;4;P != T1?;ST1_high_4;1;Same;high;96;70;96;f;n;0;f;b;571.0397999991983
#10c6rd;65;False;4;P != T1?;ST2_low_6;2;Same;low;154;96;96;f;n;1;f;b;895.4319999993459
#10c6rd;66;False;4;P != T1?;ST2_low_1;2;Same;low;82;132;132;f;n;1;f;b;944.1979000002902
#10c6rd;67;False;4;P != T2?;STb_5;0;Same;None;112;112;112;f;n;1;j;b;1597.2378999995271
#10c6rd;68;False;4;P != T2?;ST2_high_5;2;Same;high;96;132;132;f;n;1;j;b;553.7442000004376
#10c6rd;69;False;4;P != T2?;ST2_low_3;2;Same;low;70;112;112;f;n;0;f;v;885.1464999988821
#10c6rd;70;False;4;P != T1?;STb_4;0;Same;None;96;96;96;f;n;0;f;b;3207.1926000007807
#10c6rd;71;False;4;P != T1?;ST1_high_4;1;Same;high;96;70;96;f;n;1;j;b;1730.2481000006082
#10c6rd;72;False;4;P != T2?;ST2_high_4;2;Same;high;96;70;70;f;n;1;j;n;569.2910999987362
#10c6rd;73;False;4;P != T2?;ST2_low_4;2;Same;low;112;70;70;f;n;1;j;b;709.9631000000954
#10c6rd;74;False;4;P != T1?;ST2_low_2;2;Same;low;132;82;82;f;n;1;f;b;1178.0730999998923
#10c6rd;75;False;4;P != T2?;ST2_low_2;2;Same;low;132;82;82;f;n;1;j;b;680.091000000175
#10c6rd;76;False;4;P != T2?;ST1_low_2;1;Same;low;132;82;132;f;n;0;j;b;887.0717000008881
#10c6rd;77;False;4;P != T2?;ST1_low_1;1;Same;low;82;132;82;f;n;1;f;v;840.9243999994942
#10c6rd;78;False;4;P != T2?;ST2_low_6;2;Same;low;154;96;96;f;n;1;j;b;1033.2037999996828
#10c6rd;79;False;4;P != T1?;DT1_high_6;1;Different;high;132;96;154;f;n;0;j;b;1013.128599999618
#10c6rd;80;False;4;P != T2?;ST1_high_6;1;Same;high;132;96;132;f;n;1;f;v;1001.6123000004882
#10c6rd;81;False;4;P != T2?;DT2_low_4;2;Different;low;112;70;60;f;n;0;j;b;4096.4659999990545
#10c6rd;82;False;4;P != T1?;ST2_high_4;2;Same;high;96;70;70;f;n;1;f;b;1342.0246000005136
#10c6rd;83;False;4;P != T1?;ST2_low_4;2;Same;low;112;70;70;f;n;1;f;n;1212.2672999994393
#10c6rd;84;False;4;P != T2?;ST1_high_3;1;Same;high;70;96;70;f;n;1;f;b;852.7119999998831
#10c6rd;85;False;4;P != T1?;ST2_high_3;2;Same;high;70;96;96;f;n;0;j;b;1005.5738999999448
#10c6rd;86;False;4;P != T1?;ST1_high_6;1;Same;high;132;96;132;f;n;0;f;b;1282.4421999994229
#10c6rd;87;False;4;P != T2?;ST1_high_4;1;Same;high;96;70;96;f;n;1;f;b;2394.4891999999527
#10c6rd;88;False;4;P != T2?;ST1_low_6;1;Same;low;154;96;154;f;n;1;f;b;1387.6636999993934
#10c6rd;89;False;4;P != T1?;ST2_high_4;2;Same;high;96;70;70;f;n;1;f;v;1159.6019999997225
#10c6rd;90;False;4;P != T1?;ST2_high_2;2;Same;high;112;82;82;f;n;1;f;b;1042.6612999999634
#10c6rd;91;False;4;P != T2?;ST1_high_1;1;Same;high;82;112;82;f;n;1;f;b;1148.3349999998609
#10c6rd;92;False;4;P != T1?;DT2_low_3;2;Different;low;70;112;132;f;n;1;f;b;7750.158299999384
#10c6rd;93;False;4;P != T2?;ST2_high_4;2;Same;high;96;70;70;f;n;1;j;v;1920.4659000006359
#10c6rd;94;False;4;P != T1?;STb_2;0;Same;None;70;70;70;f;n;1;j;b;402.5719000001118
#10c6rd;95;False;4;P != T1?;ST2_high_1;2;Same;high;82;112;112;f;n;1;f;b;1219.1865999993752
#10c6rd;96;False;4;P != T1?;ST1_high_6;1;Same;high;132;96;132;f;n;1;j;b;2567.3483000009583
#10c6rd;97;False;4;P != T2?;ST2_low_3;2;Same;low;70;112;112;f;n;0;f;b;1862.8991000005044
#10c6rd;98;False;4;P != T1?;ST2_low_4;2;Same;low;112;70;70;f;n;1;f;v;1325.0748999998905
#10c6rd;99;False;4;P != T1?;ST2_low_6;2;Same;low;154;96;96;f;n;0;j;b;866.5295999999216
#10c6rd;100;False;4;P != T2?;ST2_low_5;2;Same;low;96;154;154;f;n;1;j;b;520.7991999996011
#10c6rd;101;False;4;P != T1?;ST1_low_2;1;Same;low;132;82;132;f;n;1;j;b;1052.0529999994324
#10c6rd;102;False;4;P != T2?;ST2_low_5;2;Same;low;96;154;154;f;n;1;j;b;803.5178999998607
#10c6rd;103;False;4;P != T1?;DT1_high_5;1;Different;high;96;132;82;f;n;0;j;b;520.4457999989245
#10c6rd;104;False;4;P != T2?;ST1_low_5;1;Same;low;96;154;96;f;n;1;f;b;1035.6730999992578
#10c6rd;105;False;4;P != T2?;ST1_low_4;1;Same;low;112;70;112;f;n;1;f;b;993.7437999997201
#10c6rd;106;False;4;P != T1?;ST2_low_1;2;Same;low;82;132;132;f;n;0;j;b;420.86860000017623
#10c6rd;107;False;4;P != T1?;ST2_high_5;2;Same;high;96;132;132;f;n;0;j;v;485.5169999991631
#10c6rd;108;False;4;P != T1?;ST1_high_1;1;Same;high;82;112;82;f;n;0;f;b;370.1978999997664
#10c6rd;109;False;4;P != T2?;ST2_high_1;2;Same;high;82;112;112;f;n;0;f;b;1299.815899999885
#10c6rd;110;False;4;P != T2?;STb_7;0;Same;None;154;154;154;f;n;0;f;b;1317.29710000036
#10c6rd;111;False;4;P != T1?;ST1_low_4;1;Same;low;112;70;112;f;n;1;j;b;500.215299998672
#10c6rd;112;False;4;P != T1?;ST1_low_6;1;Same;low;154;96;154;f;n;0;f;b;933.4011999999348
#10c6rd;113;False;4;P != T1?;ST1_high_4;1;Same;high;96;70;96;f;n;1;j;b;704.586300000301
#10c6rd;114;False;4;P != T2?;ST1_low_2;1;Same;low;132;82;132;f;n;0;j;b;799.637400001302
#10c6rd;115;False;4;P != T2?;DT1_low_2;1;Different;low;132;82;154;f;n;1;f;v;1147.842500000479
#10c6rd;116;False;4;P != T1?;ST1_low_6;1;Same;low;154;96;154;f;n;1;j;v;634.0393000009499
#10c6rd;117;False;4;P != T2?;ST1_high_3;1;Same;high;70;96;70;f;n;1;f;v;366.4361999999528
#10c6rd;118;False;4;P != T1?;ST2_low_3;2;Same;low;70;112;112;f;n;1;f;b;1556.5885999985767
#10c6rd;119;False;4;P != T2?;ST2_high_2;2;Same;high;112;82;82;f;n;1;j;b;1091.1646000004112
#10c6rd;120;False;4;P != T2?;ST2_high_1;2;Same;high;82;112;112;f;n;1;j;b;1383.191299999453
#10c6rd;121;False;4;P != T2?;ST2_high_6;2;Same;high;132;96;96;f;n;1;j;b;383.1344000009267
#10c6rd;122;False;4;P != T1?;ST1_low_3;1;Same;low;70;112;70;f;n;0;f;b;2085.9265999988565
#10c6rd;123;False;4;P != T1?;ST1_low_1;1;Same;low;82;132;82;f;n;1;j;b;1115.4045999992377
#10c6rd;124;False;4;P != T1?;ST2_high_3;2;Same;high;70;96;96;f;n;1;f;b;1845.1738000003388
#10c6rd;125;False;4;P != T1?;ST2_low_3;2;Same;low;70;112;112;f;n;1;f;b;1624.9692999990657
#10c6rd;126;False;4;P != T1?;ST1_low_2;1;Same;low;132;82;132;f;n;0;f;b;1002.9152999995858
#10c6rd;127;False;4;P != T1?;DT2_high_4;2;Different;high;96;70;60;f;n;0;j;b;1318.54949999979
#10c6rd;128;False;4;P != T2?;DT1_high_4;1;Different;high;96;70;112;f;n;0;j;b;1264.1892999999982
#10c6rd;129;False;4;P != T1?;ST1_high_3;1;Same;high;70;96;70;f;n;1;j;b;1403.066700000636
#10c6rd;130;False;4;P != T2?;ST1_low_2;1;Same;low;132;82;132;f;n;1;f;b;1144.867000000886
#10c6rd;131;False;4;P != T1?;ST1_high_2;1;Same;high;112;82;112;f;n;0;f;b;1072.7816999988136
#10c6rd;132;False;4;P != T2?;ST1_high_1;1;Same;high;82;112;82;f;n;0;j;b;526.8811000005371
#10c6rd;133;False;4;P != T1?;ST1_low_6;1;Same;low;154;96;154;f;n;1;j;b;558.4789999993518
#10c6rd;134;False;4;P != T2?;DT1_low_6;1;Different;low;154;96;180;f;n;1;f;b;879.9143000014737
#10c6rd;135;False;4;P != T2?;ST2_high_3;2;Same;high;70;96;96;f;n;1;j;b;876.7958000007638
#10c6rd;136;False;4;P != T1?;ST1_low_2;1;Same;low;132;82;132;f;n;1;j;b;1581.6904999992403
#10c6rd;137;False;4;P != T2?;ST1_low_3;1;Same;low;70;112;70;f;n;1;f;b;911.390900000697
#10c6rd;138;False;4;P != T1?;ST1_high_6;1;Same;high;132;96;132;f;n;1;j;b;627.3713999999018
#10c6rd;139;False;4;P != T2?;ST1_high_4;1;Same;high;96;70;96;f;n;1;f;b;957.4377000008099
#10c6rd;140;False;4;P != T2?;ST1_low_1;1;Same;low;82;132;82;f;n;1;f;b;984.9615000002814
#10c6rd;141;False;4;P != T1?;ST2_low_4;2;Same;low;112;70;70;f;n;0;j;b;1094.3714000004547
#10c6rd;142;False;4;P != T1?;STb_8;0;Same;None;180;180;180;f;n;1;j;b;366.52049999975134
#10c6rd;143;False;4;P != T1?;DT1_high_1;1;Different;high;82;112;70;f;n;1;f;b;329.7887999997329
#10c6rd;144;False;4;P != T1?;STb_5;0;Same;None;112;112;112;f;n;0;f;b;734.2750999996497
#10c6rd;145;False;4;P != T2?;ST1_high_2;1;Same;high;112;82;112;f;n;1;f;b;991.6538999987097
#10c6rd;146;False;4;P != T1?;ST2_low_1;2;Same;low;82;132;132;f;n;0;j;b;321.20299999951385
#10c6rd;147;False;4;P != T1?;ST2_high_6;2;Same;high;132;96;96;f;n;1;f;b;975.6068000006053
#10c6rd;148;False;4;P != T1?;ST2_high_4;2;Same;high;96;70;70;f;n;1;f;b;1039.3072000006214
#10c6rd;149;False;4;P != T2?;STb_1;0;Same;None;60;60;60;f;n;1;j;b;382.48860000021523
#10c6rd;150;False;4;P != T1?;ST1_high_1;1;Same;high;82;112;82;f;n;1;j;b;1035.5565000008937
#10c6rd;151;False;4;P != T1?;ST1_low_5;1;Same;low;96;154;96;f;n;0;f;b;1437.7735999987635
#10c6rd;152;False;4;P != T1?;ST2_high_5;2;Same;high;96;132;132;f;n;1;f;v;1341.4787000001525
#10c6rd;153;False;4;P != T2?;ST2_low_4;2;Same;low;112;70;70;f;n;1;j;b;705.235299999913
#10c6rd;154;False;4;P != T2?;ST1_low_6;1;Same;low;154;96;154;f;n;1;f;b;1115.0250000009692
#10c6rd;155;False;4;P != T1?;ST1_low_1;1;Same;low;82;132;82;f;n;0;f;b;402.8857000012067
#10c6rd;156;False;4;P != T2?;ST1_high_6;1;Same;high;132;96;132;f;n;0;j;b;1713.4139999998297
#10c6rd;157;False;4;P != T1?;ST1_high_5;1;Same;high;96;132;96;f;n;0;f;b;1088.1249999983993
#10c6rd;158;False;4;P != T2?;ST1_high_3;1;Same;high;70;96;70;f;n;1;f;b;1286.3906000002316
#10c6rd;159;False;4;P != T2?;ST1_low_3;1;Same;low;70;112;70;f;n;1;f;b;1018.9424999989569
#10c6rd;160;False;4;P != T1?;STb_7;0;Same;None;154;154;154;f;n;1;j;b;1104.8052000005555
#10c6rd;161;False;4;P != T2?;ST1_high_4;1;Same;high;96;70;96;f;n;0;j;b;1208.2580000005692
#10c6rd;162;False;4;P != T2?;ST1_high_5;1;Same;high;96;132;96;f;n;0;j;b;942.6569999995991
#10c6rd;163;False;4;P != T2?;ST2_low_5;2;Same;low;96;154;154;f;n;1;j;b;774.7175999993487
#10c6rd;164;False;4;P != T1?;ST1_low_5;1;Same;low;96;154;96;f;n;0;f;n;2188.1807999998273
#10c6rd;165;False;4;P != T2?;ST2_high_6;2;Same;high;132;96;96;f;n;1;j;b;966.8326999999408
#10c6rd;166;False;4;P != T1?;ST2_low_5;2;Same;low;96;154;154;f;n;1;f;v;711.9385000005423
#10c6rd;167;False;4;P != T2?;ST2_high_5;2;Same;high;96;132;132;f;n;0;f;v;2561.0491999996157
#10c6rd;168;False;4;P != T1?;ST1_low_4;1;Same;low;112;70;112;f;n;0;f;v;1788.607200000115
#10c6rd;169;False;4;P != T1?;ST1_low_1;1;Same;low;82;132;82;f;n;1;j;b;1112.2751999992033
#10c6rd;170;False;4;P != T1?;STb_1;0;Same;None;60;60;60;f;n;1;j;b;396.5678000004118
#10c6rd;171;False;4;P != T2?;ST1_high_2;1;Same;high;112;82;112;f;n;1;f;v;1172.5034000010055
#10c6rd;172;False;4;P != T2?;STb_3;0;Same;None;82;82;82;f;n;1;j;b;1301.3503000001947
#10c6rd;173;False;4;P != T2?;STb_2;0;Same;None;70;70;70;f;n;0;f;v;528.7862999994104
#10c6rd;174;False;4;P != T2?;ST2_low_3;2;Same;low;70;112;112;f;n;1;j;b;1027.0572999997967
#10c6rd;175;False;4;P != T1?;ST2_low_2;2;Same;low;132;82;82;f;n;1;f;v;778.252899999643
#10c6rd;176;False;4;P != T2?;ST1_low_5;1;Same;low;96;154;96;f;n;0;j;b;1590.1411000013468