p_code;trial_nr;practice;block;question;condition;seqPos;Same_or_Diff;ITS;T1_hz;T2_hz;P_hz;yes_key;sure_key;correct;yes_no;rating;resp_time
2wht38!;1;True;1;P != T1?;ST2_high_4;2;Same;high;96;70;70;j;v;1;j;v;6816.396499998518
2wht38!;2;True;1;P != T2?;ST2_high_2;2;Same;high;112;82;82;j;v;1;f;v;1928.4718000126304
2wht38!;3;True;1;P != T1?;STb_7;0;Same;None;154;154;154;j;v;1;f;b;1210.0415999884717
2wht38!;4;True;1;P != T1?;ST1_high_5;1;Same;high;96;132;96;j;v;1;f;n;4846.7757999897
2wht38!;5;True;1;P != T1?;DT1_low_6;1;Different;low;154;96;180;j;v;0;f;v;1663.9945000060834
2wht38!;6;True;1;P != T2?;DT1_low_2;1;Different;low;132;82;154;j;v;1;j;v;1866.5015000005951
2wht38!;7;True;1;P != T1?;DT2_high_1;2;Different;high;82;112;132;j;v;0;f;b;2399.497099992004
2wht38!;8;True;1;P != T2?;ST1_high_5;1;Same;high;96;132;96;j;v;1;j;v;1959.84419999877
2wht38!;9;True;1;P != T1?;ST1_low_3;1;Same;low;70;112;70;j;v;1;f;b;3032.3075000051176
2wht38!;10;True;1;P != T2?;STb_7;0;Same;None;154;154;154;j;v;1;f;b;3243.7089000013657
2wht38!;11;True;1;P != T2?;ST2_high_1;2;Same;high;82;112;112;j;v;1;f;b;2013.6077999923145
2wht38!;12;True;1;P != T1?;ST2_low_1;2;Same;low;82;132;132;j;v;0;f;v;1179.584600002272
2wht38!;13;True;1;P != T1?;STb_6;0;Same;None;132;132;132;j;v;1;f;b;1150.9026999992784
2wht38!;14;True;1;P != T2?;ST1_high_5;1;Same;high;96;132;96;j;v;0;f;b;1731.7040000052657
2wht38!;15;True;1;P != T2?;STb_8;0;Same;None;180;180;180;j;v;1;f;b;1573.0360000015935
2wht38!;16;True;1;P != T2?;DT2_low_3;2;Different;low;70;112;132;j;v;0;f;v;1313.1855000101496
p_code;trial_nr;practice;block;question;condition;seqPos;Same_or_Diff;ITS;T1_hz;T2_hz;P_hz;yes_key;sure_key;correct;yes_no;rating;resp_time
2wht38!;1;False;1;P != T1?;ST1_low_5;1;Same;low;96;154;96;j;v;1;f;b;2987.0125000015832
2wht38!;2;False;1;P != T2?;ST1_high_3;1;Same;high;70;96;70;j;v;0;f;b;1026.0892999940552
2wht38!;3;False;1;P != T2?;ST2_low_6;2;Same;low;154;96;96;j;v;0;j;n;2736.7192000092473
2wht38!;4;False;1;P != T1?;ST2_high_1;2;Same;high;82;112;112;j;v;0;f;b;4332.9469000018435
2wht38!;5;False;1;P != T2?;ST2_high_5;2;Same;high;96;132;132;j;v;0;j;v;3966.8033000052674
2wht38!;6;False;1;P != T2?;ST1_low_5;1;Same;low;96;154;96;j;v;0;f;b;5713.72899999551
2wht38!;7;False;1;P != T1?;ST2_high_2;2;Same;high;112;82;82;j;v;0;f;n;1963.0143000104
2wht38!;8;False;1;P != T2?;STb_8;0;Same;None;180;180;180;j;v;1;f;b;2942.5138999940827
2wht38!;9;False;1;P != T2?;STb_7;0;Same;None;154;154;154;j;v;1;f;b;1711.406900009024
2wht38!;10;False;1;P != T2?;STb_6;0;Same;None;132;132;132;j;v;1;f;b;2830.8390000020154
2wht38!;11;False;1;P != T2?;ST2_high_5;2;Same;high;96;132;132;j;v;0;j;v;1511.4007999945898
2wht38!;12;False;1;P != T1?;ST1_high_3;1;Same;high;70;96;70;j;v;1;f;v;1331.9398000021465
2wht38!;13;False;1;P != T1?;ST2_low_2;2;Same;low;132;82;82;j;v;1;j;b;2871.2954000075115
2wht38!;14;False;1;P != T2?;ST2_low_5;2;Same;low;96;154;154;j;v;1;f;b;1164.8485000041546
2wht38!;15;False;1;P != T1?;ST2_low_6;2;Same;low;154;96;96;j;v;1;j;n;6958.771200006595
2wht38!;16;False;1;P != T2?;ST1_high_5;1;Same;high;96;132;96;j;v;1;j;v;2319.8479999991832
2wht38!;17;False;1;P != T1?;ST2_low_5;2;Same;low;96;154;154;j;v;1;j;v;2037.8101999958744
2wht38!;18;False;1;P != T2?;ST2_high_3;2;Same;high;70;96;96;j;v;1;f;b;1732.5150000106078
2wht38!;19;False;1;P != T1?;STb_5;0;Same;None;112;112;112;j;v;1;f;n;2855.6996999977855
2wht38!;20;False;1;P != T2?;DT2_low_1;2;Different;low;82;132;154;j;v;0;f;b;1523.5190000094008
2wht38!;21;False;1;P != T2?;ST2_low_6;2;Same;low;154;96;96;j;v;0;j;b;1404.8604999989038
2wht38!;22;False;1;P != T2?;ST1_low_4;1;Same;low;112;70;112;j;v;0;f;v;3100.7412999897497
2wht38!;23;False;1;P != T2?;ST1_high_6;1;Same;high;132;96;132;j;v;0;f;v;1335.928000000422
2wht38!;24;False;1;P != T2?;ST2_low_1;2;Same;low;82;132;132;j;v;0;j;b;1725.3669999918202
2wht38!;25;False;1;P != T1?;ST1_low_6;1;Same;low;154;96;154;j;v;1;f;n;2683.3865999942645
2wht38!;26;False;1;P != T2?;ST1_high_5;1;Same;high;96;132;96;j;v;1;j;v;3171.252199987066
2wht38!;27;False;1;P != T2?;ST1_low_2;1;Same;low;132;82;132;j;v;1;j;v;4315.688100003172
2wht38!;28;False;1;P != T2?;STb_3;0;Same;None;82;82;82;j;v;1;f;b;1926.55219999142
2wht38!;29;False;1;P != T2?;ST1_low_1;1;Same;low;82;132;82;j;v;1;j;v;6655.747299999348
2wht38!;30;False;1;P != T1?;ST1_high_3;1;Same;high;70;96;70;j;v;1;f;b;4228.793099988252
2wht38!;31;False;1;P != T2?;ST2_low_5;2;Same;low;96;154;154;j;v;1;f;v;1871.7583999969065
2wht38!;32;False;1;P != T2?;ST1_low_1;1;Same;low;82;132;82;j;v;1;j;v;3822.6298999943538
2wht38!;33;False;1;P != T1?;ST1_high_4;1;Same;high;96;70;96;j;v;1;f;n;2494.166300006327
2wht38!;34;False;1;P != T2?;ST2_low_5;2;Same;low;96;154;154;j;v;1;f;v;2851.2304999894695
2wht38!;35;False;1;P != T2?;ST1_low_2;1;Same;low;132;82;132;j;v;1;j;v;2216.4131000026828
2wht38!;36;False;1;P != T1?;ST2_high_6;2;Same;high;132;96;96;j;v;1;j;v;2306.0006000014255
2wht38!;37;False;1;P != T2?;ST2_high_6;2;Same;high;132;96;96;j;v;1;f;v;4435.775499994634
2wht38!;38;False;1;P != T2?;ST2_high_5;2;Same;high;96;132;132;j;v;1;f;b;2427.9698000027565
2wht38!;39;False;1;P != T2?;ST2_low_2;2;Same;low;132;82;82;j;v;1;f;b;4727.812899989658
2wht38!;40;False;1;P != T2?;ST1_low_3;1;Same;low;70;112;70;j;v;1;j;v;2193.1417000014335
2wht38!;41;False;1;P != T1?;ST1_high_1;1;Same;high;82;112;82;j;v;1;f;b;2936.9688000006136
2wht38!;42;False;1;P != T2?;ST2_low_2;2;Same;low;132;82;82;j;v;1;f;b;2159.033799995086
2wht38!;43;False;1;P != T1?;ST2_low_5;2;Same;low;96;154;154;j;v;1;j;v;2539.1617999994196
2wht38!;44;False;1;P != T1?;ST2_high_5;2;Same;high;96;132;132;j;v;1;j;v;1444.8954999970738
2wht38!;45;False;1;P != T1?;DT2_low_3;2;Different;low;70;112;132;j;v;1;j;v;6333.835800003726
2wht38!;46;False;1;P != T1?;ST2_low_1;2;Same;low;82;132;132;j;v;1;j;v;1470.690200003446
2wht38!;47;False;1;P != T1?;ST1_high_5;1;Same;high;96;132;96;j;v;1;f;b;2266.796899988549
2wht38!;48;False;1;P != T1?;ST2_high_1;2;Same;high;82;112;112;j;v;1;j;b;3593.7885000021197
2wht38!;49;False;1;P != T2?;ST1_low_1;1;Same;low;82;132;82;j;v;1;j;v;1723.3061000006273
2wht38!;50;False;1;P != T1?;ST2_high_3;2;Same;high;70;96;96;j;v;0;f;n;4895.852000001469
2wht38!;51;False;1;P != T1?;ST1_high_5;1;Same;high;96;132;96;j;v;1;f;b;4222.777399991173
2wht38!;52;False;1;P != T1?;ST2_high_4;2;Same;high;96;70;70;j;v;0;f;n;5134.186299997964
2wht38!;53;False;1;P != T1?;ST2_high_2;2;Same;high;112;82;82;j;v;0;f;n;4222.6059999957215
2wht38!;54;False;1;P != T2?;ST2_low_3;2;Same;low;70;112;112;j;v;1;f;b;2351.610300000175
2wht38!;55;False;1;P != T2?;ST1_high_2;1;Same;high;112;82;112;j;v;1;j;v;2167.7114000049187
2wht38!;56;False;1;P != T2?;ST2_high_3;2;Same;high;70;96;96;j;v;0;j;b;3251.462799991714
2wht38!;57;False;1;P != T1?;ST2_low_6;2;Same;low;154;96;96;j;v;1;j;n;7540.487699996447
2wht38!;58;False;1;P != T2?;ST2_high_6;2;Same;high;132;96;96;j;v;1;f;b;1741.125500004273
2wht38!;59;False;1;P != T1?;ST2_low_1;2;Same;low;82;132;132;j;v;0;f;n;6297.421900002519
2wht38!;60;False;1;P != T1?;ST2_high_3;2;Same;high;70;96;96;j;v;0;f;v;2160.6712999928277
2wht38!;61;False;1;P != T1?;ST1_low_2;1;Same;low;132;82;132;j;v;0;j;n;6829.723900009412
2wht38!;62;False;1;P != T1?;ST1_low_4;1;Same;low;112;70;112;j;v;0;j;b;1869.0861000068253
2wht38!;63;False;1;P != T2?;ST2_low_1;2;Same;low;82;132;132;j;v;0;j;b;1335.347100000945
2wht38!;64;False;1;P != T2?;ST1_high_4;1;Same;high;96;70;96;j;v;1;j;b;1579.8475000046892
2wht38!;65;False;1;P != T1?;DT1_low_2;1;Different;low;132;82;154;j;v;0;f;v;1584.9580999929458
2wht38!;66;False;1;P != T1?;ST1_low_2;1;Same;low;132;82;132;j;v;1;f;b;5433.108600002015
2wht38!;67;False;1;P != T2?;ST2_high_3;2;Same;high;70;96;96;j;v;0;j;n;4391.940200002864
2wht38!;68;False;1;P != T1?;ST1_high_3;1;Same;high;70;96;70;j;v;1;f;n;7569.06500000332
2wht38!;69;False;1;P != T1?;ST1_low_3;1;Same;low;70;112;70;j;v;1;f;n;6232.899199996609
2wht38!;70;False;1;P != T1?;ST2_high_2;2;Same;high;112;82;82;j;v;1;j;v;2062.5694999907864
2wht38!;71;False;1;P != T1?;DT2_high_5;2;Different;high;96;132;154;j;v;1;j;v;1521.9537999946624
2wht38!;72;False;1;P != T1?;STb_8;0;Same;None;180;180;180;j;v;1;f;b;1729.061999998521
2wht38!;73;False;1;P != T2?;ST1_high_4;1;Same;high;96;70;96;j;v;0;f;b;6998.4532999951625
2wht38!;74;False;1;P != T1?;ST1_low_3;1;Same;low;70;112;70;j;v;1;f;n;5726.438600002439
2wht38!;75;False;1;P != T2?;ST1_low_6;1;Same;low;154;96;154;j;v;1;j;v;1871.6858999978285
2wht38!;76;False;1;P != T2?;ST1_low_3;1;Same;low;70;112;70;j;v;1;j;b;4748.424299992621
2wht38!;77;False;1;P != T1?;ST2_low_3;2;Same;low;70;112;112;j;v;1;j;v;1661.655999996583
2wht38!;78;False;1;P != T1?;STb_2;0;Same;None;70;70;70;j;v;1;f;b;1767.457000009017
2wht38!;79;False;1;P != T2?;ST1_low_5;1;Same;low;96;154;96;j;v;1;j;v;1660.9132000012323
2wht38!;80;False;1;P != T1?;STb_3;0;Same;None;82;82;82;j;v;1;f;b;2184.7253999876557
2wht38!;81;False;1;P != T1?;ST1_low_2;1;Same;low;132;82;132;j;v;1;f;b;3058.81769998814
2wht38!;82;False;1;P != T2?;DT2_low_6;2;Different;low;154;96;82;j;v;1;j;v;2410.5320000089705
2wht38!;83;False;1;P != T1?;ST2_low_5;2;Same;low;96;154;154;j;v;1;j;v;2048.487499996554
2wht38!;84;False;1;P != T2?;ST2_low_1;2;Same;low;82;132;132;j;v;1;f;n;6270.022900003823
2wht38!;85;False;1;P != T1?;ST1_low_1;1;Same;low;82;132;82;j;v;1;f;n;6782.005600005505
2wht38!;86;False;1;P != T1?;DT2_low_5;2;Different;low;96;154;180;j;v;1;j;v;1228.3222999976715
2wht38!;87;False;1;P != T2?;ST1_high_4;1;Same;high;96;70;96;j;v;0;f;b;2237.9901000094833
2wht38!;88;False;1;P != T1?;ST2_low_3;2;Same;low;70;112;112;j;v;0;f;n;7215.442500004428
2wht38!;89;False;1;P != T1?;ST2_high_6;2;Same;high;132;96;96;j;v;0;f;n;2297.056799987331
2wht38!;90;False;1;P != T2?;ST1_low_4;1;Same;low;112;70;112;j;v;1;j;v;3738.4244999993825
2wht38!;91;False;1;P != T2?;ST1_high_1;1;Same;high;82;112;82;j;v;1;j;n;2734.9516999966
2wht38!;92;False;1;P != T1?;ST1_low_5;1;Same;low;96;154;96;j;v;0;j;n;2657.5428000069223
2wht38!;93;False;1;P != T1?;ST2_low_4;2;Same;low;112;70;70;j;v;1;j;v;2104.0772999986075
2wht38!;94;False;1;P != T2?;ST2_high_4;2;Same;high;96;70;70;j;v;1;f;b;2881.1084999906598
2wht38!;95;False;1;P != T1?;ST2_low_2;2;Same;low;132;82;82;j;v;1;j;v;2705.607099996996
2wht38!;96;False;1;P != T2?;ST2_high_2;2;Same;high;112;82;82;j;v;1;f;n;9507.654599990929
2wht38!;97;False;1;P != T1?;STb_7;0;Same;None;154;154;154;j;v;1;f;b;1966.7207000020426
2wht38!;98;False;1;P != T2?;ST2_low_3;2;Same;low;70;112;112;j;v;1;f;b;1408.4845000033965
2wht38!;99;False;1;P != T1?;ST2_low_2;2;Same;low;132;82;82;j;v;1;j;v;2132.704999996349
2wht38!;100;False;1;P != T2?;ST2_high_6;2;Same;high;132;96;96;j;v;1;f;b;4587.028800000553
2wht38!;101;False;1;P != T2?;ST1_high_1;1;Same;high;82;112;82;j;v;0;f;n;11423.608900004183
2wht38!;102;False;1;P != T2?;ST1_high_3;1;Same;high;70;96;70;j;v;0;f;n;2877.3975999938557
2wht38!;103;False;1;P != T2?;DT1_low_2;1;Different;low;132;82;154;j;v;1;j;v;1767.1911000070395
2wht38!;104;False;1;P != T2?;ST1_high_3;1;Same;high;70;96;70;j;v;1;j;v;3036.2020999891683
2wht38!;105;False;1;P != T2?;ST2_high_4;2;Same;high;96;70;70;j;v;1;f;n;3509.7383999964222
2wht38!;106;False;1;P != T1?;ST2_high_5;2;Same;high;96;132;132;j;v;0;f;n;3871.051100009936
2wht38!;107;False;1;P != T2?;ST2_high_1;2;Same;high;82;112;112;j;v;1;f;b;1449.3652999954065
2wht38!;108;False;1;P != T2?;ST1_high_6;1;Same;high;132;96;132;j;v;0;f;n;3030.067300001974
2wht38!;109;False;1;P != T2?;ST1_low_2;1;Same;low;132;82;132;j;v;1;j;v;4126.753299991833
2wht38!;110;False;1;P != T1?;STb_4;0;Same;None;96;96;96;j;v;1;f;n;5668.4258000022965
2wht38!;111;False;1;P != T2?;ST1_low_6;1;Same;low;154;96;154;j;v;1;j;v;1539.939600013895
2wht38!;112;False;1;P != T2?;ST1_high_2;1;Same;high;112;82;112;j;v;1;j;b;10412.718999999925
2wht38!;113;False;1;P != T2?;ST1_high_5;1;Same;high;96;132;96;j;v;1;j;n;3346.6907999973046
2wht38!;114;False;1;P != T1?;ST1_high_4;1;Same;high;96;70;96;j;v;1;f;v;3468.5830999951577
2wht38!;115;False;1;P != T2?;ST2_high_1;2;Same;high;82;112;112;j;v;1;f;n;4675.143799991929
2wht38!;116;False;1;P != T2?;DT2_low_3;2;Different;low;70;112;132;j;v;1;j;n;10693.887500005076
2wht38!;117;False;1;P != T1?;ST1_high_2;1;Same;high;112;82;112;j;v;1;f;n;7869.099200004712
2wht38!;118;False;1;P != T1?;DT1_low_5;1;Different;low;96;154;82;j;v;0;f;b;1415.0215999979991
2wht38!;119;False;1;P != T1?;ST1_high_6;1;Same;high;132;96;132;j;v;1;f;b;1449.3033000035211
2wht38!;120;False;1;P != T2?;ST2_low_4;2;Same;low;112;70;70;j;v;1;f;v;1101.4559000032023
2wht38!;121;False;1;P != T1?;ST1_low_5;1;Same;low;96;154;96;j;v;0;j;n;7120.103699999163
2wht38!;122;False;1;P != T1?;ST2_high_5;2;Same;high;96;132;132;j;v;1;j;v;2777.4496999918483
2wht38!;123;False;1;P != T1?;ST1_high_6;1;Same;high;132;96;132;j;v;0;j;n;11346.30869999819
2wht38!;124;False;1;P != T2?;DT2_high_2;2;Different;high;112;82;70;j;v;0;f;v;1821.7665999982273
2wht38!;125;False;1;P != T1?;ST1_low_6;1;Same;low;154;96;154;j;v;1;f;v;2245.5388999951538
2wht38!;126;False;1;P != T1?;ST1_high_1;1;Same;high;82;112;82;j;v;0;j;b;4629.89799999923
2wht38!;127;False;1;P != T1?;ST2_low_6;2;Same;low;154;96;96;j;v;1;j;n;8187.322199999471
2wht38!;128;False;1;P != T1?;ST1_low_3;1;Same;low;70;112;70;j;v;1;f;n;8241.86429999827
2wht38!;129;False;1;P != T2?;ST1_low_6;1;Same;low;154;96;154;j;v;1;j;v;2171.5025000012247
2wht38!;130;False;1;P != T1?;ST1_high_1;1;Same;high;82;112;82;j;v;1;f;n;3854.076699994039
2wht38!;131;False;1;P != T1?;ST1_low_4;1;Same;low;112;70;112;j;v;1;f;b;3748.955000002752
2wht38!;132;False;1;P != T2?;STb_2;0;Same;None;70;70;70;j;v;1;f;b;3188.8622999977088
2wht38!;133;False;1;P != T1?;ST2_high_4;2;Same;high;96;70;70;j;v;0;f;b;4680.561200002558
2wht38!;134;False;1;P != T1?;DT2_low_2;2;Different;low;132;82;70;j;v;1;j;v;1232.027600010042
2wht38!;135;False;1;P != T1?;ST1_low_6;1;Same;low;154;96;154;j;v;0;j;b;2853.2568999944488
2wht38!;136;False;1;P != T2?;ST2_high_4;2;Same;high;96;70;70;j;v;0;j;b;1816.4921999996295
2wht38!;137;False;1;P != T1?;ST2_high_1;2;Same;high;82;112;112;j;v;1;j;n;1626.294700006838
2wht38!;138;False;1;P != T1?;ST2_low_3;2;Same;low;70;112;112;j;v;1;j;b;3845.5006000003777
2wht38!;139;False;1;P != T1?;ST2_high_6;2;Same;high;132;96;96;j;v;1;j;b;8181.008599989582
2wht38!;140;False;1;P != T2?;ST2_low_3;2;Same;low;70;112;112;j;v;1;f;n;10351.379100000486
2wht38!;141;False;1;P != T2?;ST1_low_5;1;Same;low;96;154;96;j;v;1;j;v;1301.1913999944227
2wht38!;142;False;1;P != T2?;ST2_low_2;2;Same;low;132;82;82;j;v;1;f;v;1129.2315000027884
2wht38!;143;False;1;P != T2?;ST2_high_1;2;Same;high;82;112;112;j;v;1;f;b;2764.437199992244
2wht38!;144;False;1;P != T2?;ST2_low_4;2;Same;low;112;70;70;j;v;1;f;v;1593.476299996837
2wht38!;145;False;1;P != T2?;ST1_low_4;1;Same;low;112;70;112;j;v;1;j;v;4435.294299997622
2wht38!;146;False;1;P != T2?;DT2_low_5;2;Different;low;96;154;180;j;v;0;f;v;3933.09120000049
2wht38!;147;False;1;P != T2?;ST1_high_2;1;Same;high;112;82;112;j;v;0;f;b;3645.5333000048995
2wht38!;148;False;1;P != T2?;ST2_high_2;2;Same;high;112;82;82;j;v;1;f;b;1614.0604999964125
2wht38!;149;False;1;P != T1?;ST1_low_4;1;Same;low;112;70;112;j;v;0;j;n;2860.761400006595
2wht38!;150;False;1;P != T1?;ST1_low_1;1;Same;low;82;132;82;j;v;1;f;v;4355.641800008016
2wht38!;151;False;1;P != T1?;DT1_low_3;1;Different;low;70;112;60;j;v;1;j;v;2153.7423000117997
2wht38!;152;False;1;P != T2?;STb_1;0;Same;None;60;60;60;j;v;1;f;v;1719.0707999980077
2wht38!;153;False;1;P != T1?;DT2_high_2;2;Different;high;112;82;70;j;v;1;j;b;6105.156400008127
2wht38!;154;False;1;P != T1?;ST2_high_3;2;Same;high;70;96;96;j;v;0;f;n;5231.413599991356
2wht38!;155;False;1;P != T2?;ST1_high_1;1;Same;high;82;112;82;j;v;0;f;n;7476.909900011378
2wht38!;156;False;1;P != T1?;ST2_low_4;2;Same;low;112;70;70;j;v;1;j;v;1757.1978000050876
2wht38!;157;False;1;P != T1?;ST2_low_4;2;Same;low;112;70;70;j;v;1;j;v;1961.8000999907963
2wht38!;158;False;1;P != T2?;STb_4;0;Same;None;96;96;96;j;v;1;f;v;4294.9757000023965
2wht38!;159;False;1;P != T1?;ST1_high_4;1;Same;high;96;70;96;j;v;0;j;n;4709.107799993944
2wht38!;160;False;1;P != T1?;ST2_low_1;2;Same;low;82;132;132;j;v;1;j;v;1613.0066000041552
2wht38!;161;False;1;P != T1?;STb_6;0;Same;None;132;132;132;j;v;1;f;b;2307.616299993242
2wht38!;162;False;1;P != T2?;DT1_high_5;1;Different;high;96;132;82;j;v;1;j;v;2264.1788000037195
2wht38!;163;False;1;P != T1?;ST2_high_4;2;Same;high;96;70;70;j;v;1;j;n;3066.8911000102526
2wht38!;164;False;1;P != T2?;STb_5;0;Same;None;112;112;112;j;v;1;f;n;5512.904100003652
2wht38!;165;False;1;P != T2?;ST1_low_3;1;Same;low;70;112;70;j;v;1;j;n;2183.415099992999
2wht38!;166;False;1;P != T1?;ST1_high_2;1;Same;high;112;82;112;j;v;1;f;b;2717.443799992907
2wht38!;167;False;1;P != T2?;ST2_high_2;2;Same;high;112;82;82;j;v;1;f;v;1392.9581999982474
2wht38!;168;False;1;P != T2?;ST1_high_6;1;Same;high;132;96;132;j;v;1;j;v;1817.0058999967296
2wht38!;169;False;1;P != T1?;ST1_high_5;1;Same;high;96;132;96;j;v;1;f;v;2496.8993999937084
2wht38!;170;False;1;P != T2?;ST2_low_4;2;Same;low;112;70;70;j;v;1;f;b;3917.3216999915894
2wht38!;171;False;1;P != T2?;DT2_high_4;2;Different;high;96;70;60;j;v;1;j;v;1303.5448000009637
2wht38!;172;False;1;P != T1?;ST1_high_2;1;Same;high;112;82;112;j;v;0;j;n;4877.429399988614
2wht38!;173;False;1;P != T1?;ST1_low_1;1;Same;low;82;132;82;j;v;1;f;b;2359.0417000086745
2wht38!;174;False;1;P != T2?;ST2_low_6;2;Same;low;154;96;96;j;v;0;j;b;1296.002100003534
2wht38!;175;False;1;P != T1?;STb_1;0;Same;None;60;60;60;j;v;1;f;b;2060.3795999923022
2wht38!;176;False;1;P != T1?;ST1_high_6;1;Same;high;132;96;132;j;v;1;f;v;1460.588399990229
2wht38!;1;True;2;P = T2?;STb_6;0;Same;None;132;132;132;j;v;1;j;v;1881.4587999950163
2wht38!;2;True;2;P = T2?;ST1_high_5;1;Same;high;96;132;96;j;v;1;f;v;1183.7807999982033
2wht38!;3;True;2;P = T1?;ST1_high_6;1;Same;high;132;96;132;j;v;0;f;b;2311.182099991129
2wht38!;4;True;2;P = T2?;STb_2;0;Same;None;70;70;70;j;v;1;j;b;1027.8581000020495
2wht38!;5;True;2;P = T1?;DT1_low_1;1;Different;low;82;132;70;j;v;0;j;n;3981.228100004955
2wht38!;6;True;2;P = T1?;ST2_low_5;2;Same;low;96;154;154;j;v;1;f;v;1454.1824000043562
2wht38!;7;True;2;P = T2?;DT2_low_2;2;Different;low;132;82;70;j;v;0;j;v;2039.3247000029078
2wht38!;8;True;2;P = T2?;ST1_high_6;1;Same;high;132;96;132;j;v;1;f;b;1312.4760999926366
2wht38!;9;True;2;P = T1?;ST1_low_4;1;Same;low;112;70;112;j;v;1;j;v;1034.3178999901284
2wht38!;10;True;2;P = T2?;DT2_high_4;2;Different;high;96;70;60;j;v;0;j;b;1073.0335999978706
2wht38!;11;True;2;P = T1?;ST2_low_4;2;Same;low;112;70;70;j;v;1;f;b;1225.1582000026247
2wht38!;12;True;2;P = T1?;STb_4;0;Same;None;96;96;96;j;v;0;f;n;1274.8703999968711
2wht38!;13;True;2;P = T2?;ST2_high_4;2;Same;high;96;70;70;j;v;1;j;b;1160.713899997063
2wht38!;14;True;2;P = T2?;ST2_high_1;2;Same;high;82;112;112;j;v;1;j;b;905.9258000052068
2wht38!;15;True;2;P = T1?;DT2_high_5;2;Different;high;96;132;154;j;v;1;f;v;1287.9528000048595
2wht38!;16;True;2;P = T1?;STb_1;0;Same;None;60;60;60;j;v;1;j;n;1662.1547999966424
2wht38!;1;False;2;P = T1?;STb_6;0;Same;None;132;132;132;j;v;1;j;b;3461.2323000037577
2wht38!;2;False;2;P = T1?;ST2_low_2;2;Same;low;132;82;82;j;v;1;f;v;1313.0100000125822
2wht38!;3;False;2;P = T1?;ST2_high_5;2;Same;high;96;132;132;j;v;1;f;v;1626.883999997517
2wht38!;4;False;2;P = T2?;ST2_high_6;2;Same;high;132;96;96;j;v;0;f;b;958.0512000102317
2wht38!;5;False;2;P = T2?;DT2_low_5;2;Different;low;96;154;180;j;v;1;f;b;2286.3940999959596
2wht38!;6;False;2;P = T2?;ST2_low_6;2;Same;low;154;96;96;j;v;1;j;b;1626.4882999967085
2wht38!;7;False;2;P = T1?;ST1_low_2;1;Same;low;132;82;132;j;v;1;j;v;1285.5204000079539
2wht38!;8;False;2;P = T1?;ST2_low_3;2;Same;low;70;112;112;j;v;1;f;v;1483.0131999915466
2wht38!;9;False;2;P = T1?;ST1_low_4;1;Same;low;112;70;112;j;v;1;j;n;2863.0596000002697
2wht38!;10;False;2;P = T1?;ST1_low_6;1;Same;low;154;96;154;j;v;1;j;v;2880.578299998888
2wht38!;11;False;2;P = T2?;ST2_low_1;2;Same;low;82;132;132;j;v;0;f;n;5927.2755999991205
2wht38!;12;False;2;P = T2?;ST1_high_5;1;Same;high;96;132;96;j;v;1;f;v;1809.510599996429
2wht38!;13;False;2;P = T2?;ST2_low_4;2;Same;low;112;70;70;j;v;0;f;v;1232.1051999897463
2wht38!;14;False;2;P = T2?;ST2_high_3;2;Same;high;70;96;96;j;v;0;f;n;1897.4763000005623
2wht38!;15;False;2;P = T1?;ST1_high_6;1;Same;high;132;96;132;j;v;1;j;v;2267.6332000119146
2wht38!;16;False;2;P = T2?;STb_4;0;Same;None;96;96;96;j;v;0;f;n;9605.186500004493
2wht38!;17;False;2;P = T1?;ST1_low_5;1;Same;low;96;154;96;j;v;1;j;v;1279.2324000038207
2wht38!;18;False;2;P = T2?;ST1_high_4;1;Same;high;96;70;96;j;v;0;j;n;1972.0615999976872
2wht38!;19;False;2;P = T2?;ST2_high_6;2;Same;high;132;96;96;j;v;1;j;b;4099.325500006671
2wht38!;20;False;2;P = T2?;ST1_low_1;1;Same;low;82;132;82;j;v;1;f;v;4506.628300005104
2wht38!;21;False;2;P = T2?;STb_8;0;Same;None;180;180;180;j;v;1;j;v;1378.142999994452
2wht38!;22;False;2;P = T1?;DT2_low_2;2;Different;low;132;82;70;j;v;1;f;v;1400.8066999958828
2wht38!;23;False;2;P = T1?;ST1_high_6;1;Same;high;132;96;132;j;v;1;j;b;1551.9275999977253
2wht38!;24;False;2;P = T1?;ST1_high_6;1;Same;high;132;96;132;j;v;1;j;n;5398.195999994641
2wht38!;25;False;2;P = T1?;ST2_high_5;2;Same;high;96;132;132;j;v;1;f;n;6071.120699998573
2wht38!;26;False;2;P = T1?;STb_4;0;Same;None;96;96;96;j;v;1;j;b;1227.5775999878533
2wht38!;27;False;2;P = T1?;ST1_low_4;1;Same;low;112;70;112;j;v;1;j;n;2653.339700002107
2wht38!;28;False;2;P = T2?;ST1_low_3;1;Same;low;70;112;70;j;v;0;j;n;2442.493700000341
2wht38!;29;False;2;P = T2?;ST1_high_4;1;Same;high;96;70;96;j;v;0;j;b;1437.49049998587
2wht38!;30;False;2;P = T2?;ST2_high_2;2;Same;high;112;82;82;j;v;1;j;n;1018.6576999985846
2wht38!;31;False;2;P = T2?;ST2_low_3;2;Same;low;70;112;112;j;v;0;f;n;2338.900399990962
2wht38!;32;False;2;P = T2?;ST1_low_2;1;Same;low;132;82;132;j;v;1;f;v;1291.418299995712
2wht38!;33;False;2;P = T2?;ST1_high_3;1;Same;high;70;96;70;j;v;0;j;b;1782.1569000079762
2wht38!;34;False;2;P = T2?;STb_7;0;Same;None;154;154;154;j;v;1;j;b;1154.3009000015445
2wht38!;35;False;2;P = T1?;ST2_low_5;2;Same;low;96;154;154;j;v;1;f;v;2733.0532999912975
2wht38!;36;False;2;P = T1?;ST1_low_2;1;Same;low;132;82;132;j;v;1;j;n;4610.471599997254
2wht38!;37;False;2;P = T2?;DT2_low_2;2;Different;low;132;82;70;j;v;0;j;b;2066.6862999933073
2wht38!;38;False;2;P = T1?;ST1_high_4;1;Same;high;96;70;96;j;v;0;f;b;1327.1830000012415
2wht38!;39;False;2;P = T1?;STb_5;0;Same;None;112;112;112;j;v;1;j;b;1145.0762999884319
2wht38!;40;False;2;P = T2?;ST2_low_5;2;Same;low;96;154;154;j;v;1;j;v;828.417000011541
2wht38!;41;False;2;P = T2?;DT2_high_2;2;Different;high;112;82;70;j;v;0;j;b;1022.8664000023855
2wht38!;42;False;2;P = T1?;ST1_high_5;1;Same;high;96;132;96;j;v;1;j;v;787.8233000083128
2wht38!;43;False;2;P = T1?;ST1_high_2;1;Same;high;112;82;112;j;v;0;f;v;1644.9396000098204
2wht38!;44;False;2;P = T2?;ST2_high_6;2;Same;high;132;96;96;j;v;1;j;b;809.9903999973321
2wht38!;45;False;2;P = T2?;ST2_high_4;2;Same;high;96;70;70;j;v;1;j;b;1118.6894000129541
2wht38!;46;False;2;P = T1?;ST2_high_1;2;Same;high;82;112;112;j;v;0;j;n;3536.3095000066096
2wht38!;47;False;2;P = T1?;ST2_low_1;2;Same;low;82;132;132;j;v;1;f;v;2553.7317999987863
2wht38!;48;False;2;P = T1?;ST2_low_3;2;Same;low;70;112;112;j;v;0;j;b;950.7117999892216
2wht38!;49;False;2;P = T2?;ST1_high_6;1;Same;high;132;96;132;j;v;1;f;b;1405.852000010782
2wht38!;50;False;2;P = T1?;DT1_low_1;1;Different;low;82;132;70;j;v;0;j;v;2500.557099992875
2wht38!;51;False;2;P = T1?;ST2_low_4;2;Same;low;112;70;70;j;v;1;f;b;2266.161599996849
2wht38!;52;False;2;P = T1?;ST2_high_3;2;Same;high;70;96;96;j;v;0;j;n;2240.382600008161
2wht38!;53;False;2;P = T2?;ST2_high_4;2;Same;high;96;70;70;j;v;1;j;n;3284.673100002692
2wht38!;54;False;2;P = T1?;ST2_high_1;2;Same;high;82;112;112;j;v;1;f;v;1294.58839999279
2wht38!;55;False;2;P = T1?;ST1_high_5;1;Same;high;96;132;96;j;v;1;j;v;999.2450000136159
2wht38!;56;False;2;P = T1?;STb_7;0;Same;None;154;154;154;j;v;0;f;n;3063.2187000010163
2wht38!;57;False;2;P = T1?;ST2_high_4;2;Same;high;96;70;70;j;v;0;j;b;1444.36529999075
2wht38!;58;False;2;P = T2?;STb_3;0;Same;None;82;82;82;j;v;1;j;n;5177.95820000174
2wht38!;59;False;2;P = T1?;ST1_low_1;1;Same;low;82;132;82;j;v;1;j;v;1233.086699998239
2wht38!;60;False;2;P = T2?;ST1_low_6;1;Same;low;154;96;154;j;v;1;f;v;1872.5563000043621
2wht38!;61;False;2;P = T1?;ST2_high_2;2;Same;high;112;82;82;j;v;1;f;b;2600.567300003604
2wht38!;62;False;2;P = T2?;ST1_high_4;1;Same;high;96;70;96;j;v;0;j;b;1428.5430000018096
2wht38!;63;False;2;P = T1?;STb_3;0;Same;None;82;82;82;j;v;1;j;b;1614.2643000057433
2wht38!;64;False;2;P = T1?;ST2_high_4;2;Same;high;96;70;70;j;v;0;j;b;1134.621100005461
2wht38!;65;False;2;P = T2?;ST1_low_6;1;Same;low;154;96;154;j;v;1;f;v;1546.718300000066
2wht38!;66;False;2;P = T2?;ST1_high_2;1;Same;high;112;82;112;j;v;0;j;b;1682.7016000024742
2wht38!;67;False;2;P = T2?;ST2_high_2;2;Same;high;112;82;82;j;v;0;f;n;1417.9592999862507
2wht38!;68;False;2;P = T2?;ST1_low_4;1;Same;low;112;70;112;j;v;1;f;v;1539.4908000016585
2wht38!;69;False;2;P = T1?;ST1_low_1;1;Same;low;82;132;82;j;v;1;j;b;1523.8478999963263
2wht38!;70;False;2;P = T1?;ST1_low_5;1;Same;low;96;154;96;j;v;1;j;v;2055.5243999988306
2wht38!;71;False;2;P = T2?;DT1_high_3;1;Different;high;70;96;60;j;v;1;f;v;5573.35890000104
2wht38!;72;False;2;P = T1?;STb_2;0;Same;None;70;70;70;j;v;1;j;b;1212.6451999938581
2wht38!;73;False;2;P = T2?;STb_2;0;Same;None;70;70;70;j;v;1;j;b;1329.9935999966692
2wht38!;74;False;2;P = T2?;ST1_low_4;1;Same;low;112;70;112;j;v;1;f;b;1363.1489000108559
2wht38!;75;False;2;P = T1?;ST1_high_1;1;Same;high;82;112;82;j;v;0;f;b;1915.9766000084346
2wht38!;76;False;2;P = T2?;ST2_low_6;2;Same;low;154;96;96;j;v;1;j;v;915.9152999927755
2wht38!;77;False;2;P = T2?;ST1_high_5;1;Same;high;96;132;96;j;v;1;f;v;2017.937399999937
2wht38!;78;False;2;P = T1?;ST1_low_6;1;Same;low;154;96;154;j;v;1;j;v;1213.5125000058906
2wht38!;79;False;2;P = T1?;ST1_high_3;1;Same;high;70;96;70;j;v;1;j;b;1147.449800002505
2wht38!;80;False;2;P = T2?;ST1_low_3;1;Same;low;70;112;70;j;v;1;f;v;1378.70909999765
2wht38!;81;False;2;P = T2?;ST2_low_3;2;Same;low;70;112;112;j;v;1;j;n;1454.9867000023369
2wht38!;82;False;2;P = T1?;ST2_low_1;2;Same;low;82;132;132;j;v;0;j;n;1167.7015999885043
2wht38!;83;False;2;P = T1?;ST1_low_6;1;Same;low;154;96;154;j;v;0;f;v;1938.1885000038892
2wht38!;84;False;2;P = T2?;ST2_high_3;2;Same;high;70;96;96;j;v;1;j;b;1936.80100000347
2wht38!;85;False;2;P = T2?;ST2_low_6;2;Same;low;154;96;96;j;v;0;f;v;1221.7519999976503
2wht38!;86;False;2;P = T1?;ST2_high_6;2;Same;high;132;96;96;j;v;1;f;b;1535.6102000077954
2wht38!;87;False;2;P = T1?;DT2_low_5;2;Different;low;96;154;180;j;v;1;f;v;1899.3976999918232
2wht38!;88;False;2;P = T1?;ST2_high_4;2;Same;high;96;70;70;j;v;0;j;n;1170.9928000054788
2wht38!;89;False;2;P = T2?;ST2_high_1;2;Same;high;82;112;112;j;v;1;j;n;1228.388299990911
2wht38!;90;False;2;P = T1?;ST2_high_2;2;Same;high;112;82;82;j;v;0;j;n;2865.354200010188
2wht38!;91;False;2;P = T2?;ST1_low_6;1;Same;low;154;96;154;j;v;1;f;v;1010.1398999977391
2wht38!;92;False;2;P = T1?;ST2_high_3;2;Same;high;70;96;96;j;v;0;j;b;1101.6323000076227
2wht38!;93;False;2;P = T2?;ST2_low_3;2;Same;low;70;112;112;j;v;0;f;b;1487.819000001764
2wht38!;94;False;2;P = T1?;ST1_high_5;1;Same;high;96;132;96;j;v;1;j;b;1071.3987999915844
2wht38!;95;False;2;P = T1?;DT1_high_5;1;Different;high;96;132;82;j;v;0;j;n;1641.8539000005694
2wht38!;96;False;2;P = T2?;ST2_low_2;2;Same;low;132;82;82;j;v;0;f;b;1307.8295000013895
2wht38!;97;False;2;P = T1?;ST2_high_3;2;Same;high;70;96;96;j;v;0;j;n;2504.7866000095382
2wht38!;98;False;2;P = T2?;ST2_high_2;2;Same;high;112;82;82;j;v;0;f;v;804.2227000114508
2wht38!;99;False;2;P = T2?;ST1_high_3;1;Same;high;70;96;70;j;v;1;f;v;1081.2526999943657
2wht38!;100;False;2;P = T2?;ST1_low_5;1;Same;low;96;154;96;j;v;1;f;v;2379.3418999994174
2wht38!;101;False;2;P = T1?;ST1_low_4;1;Same;low;112;70;112;j;v;0;f;b;3351.225499995053
2wht38!;102;False;2;P = T1?;ST2_low_1;2;Same;low;82;132;132;j;v;1;f;v;1318.9211999997497
2wht38!;103;False;2;P = T2?;ST1_high_6;1;Same;high;132;96;132;j;v;0;j;n;5068.645199993625
2wht38!;104;False;2;P = T2?;ST1_low_5;1;Same;low;96;154;96;j;v;1;f;v;1041.065500001423
2wht38!;105;False;2;P = T1?;ST2_high_6;2;Same;high;132;96;96;j;v;0;j;n;7344.457900006091
2wht38!;106;False;2;P = T1?;ST2_low_5;2;Same;low;96;154;154;j;v;0;j;n;1353.018499998143
2wht38!;107;False;2;P = T2?;ST2_low_1;2;Same;low;82;132;132;j;v;0;f;v;1122.3633000045083
2wht38!;108;False;2;P = T2?;ST2_high_1;2;Same;high;82;112;112;j;v;0;f;v;1054.4298000022536
2wht38!;109;False;2;P = T1?;ST1_high_2;1;Same;high;112;82;112;j;v;1;j;n;2416.76500000176
2wht38!;110;False;2;P = T2?;STb_6;0;Same;None;132;132;132;j;v;1;j;b;3075.9116999979597
2wht38!;111;False;2;P = T2?;ST1_high_3;1;Same;high;70;96;70;j;v;1;f;v;1280.1623999985168
2wht38!;112;False;2;P = T1?;ST1_low_3;1;Same;low;70;112;70;j;v;1;j;n;1492.904600003385
2wht38!;113;False;2;P = T1?;ST1_low_3;1;Same;low;70;112;70;j;v;1;j;b;3280.512400000589
2wht38!;114;False;2;P = T1?;DT2_high_4;2;Different;high;96;70;60;j;v;1;f;b;3895.842600002652
2wht38!;115;False;2;P = T1?;ST1_low_1;1;Same;low;82;132;82;j;v;1;j;b;1282.5184999965131
2wht38!;116;False;2;P = T1?;STb_8;0;Same;None;180;180;180;j;v;1;j;b;1264.4580000051064
2wht38!;117;False;2;P = T2?;ST2_high_5;2;Same;high;96;132;132;j;v;1;j;v;943.6669999995502
2wht38!;118;False;2;P = T2?;STb_1;0;Same;None;60;60;60;j;v;1;j;b;1071.3696999882814
2wht38!;119;False;2;P = T1?;DT1_high_2;1;Different;high;112;82;132;j;v;1;f;b;3664.903400000185
2wht38!;120;False;2;P = T2?;ST2_low_2;2;Same;low;132;82;82;j;v;1;j;n;2171.5968000062276
2wht38!;121;False;2;P = T1?;ST2_low_4;2;Same;low;112;70;70;j;v;1;f;n;2613.3925000031013
2wht38!;122;False;2;P = T2?;ST2_low_4;2;Same;low;112;70;70;j;v;0;f;b;2941.274600001634
2wht38!;123;False;2;P = T2?;ST1_high_5;1;Same;high;96;132;96;j;v;1;f;v;1128.6708999978146
2wht38!;124;False;2;P = T2?;ST2_high_5;2;Same;high;96;132;132;j;v;0;f;v;2416.060400006245
2wht38!;125;False;2;P = T1?;ST1_high_3;1;Same;high;70;96;70;j;v;1;j;b;2109.4815999967977
2wht38!;126;False;2;P = T1?;ST2_low_3;2;Same;low;70;112;112;j;v;1;f;v;3294.9859999935143
2wht38!;127;False;2;P = T2?;DT1_low_1;1;Different;low;82;132;70;j;v;1;f;v;909.9963999906322
2wht38!;128;False;2;P = T1?;ST1_high_1;1;Same;high;82;112;82;j;v;1;j;n;3993.334799990407
2wht38!;129;False;2;P = T2?;ST1_high_1;1;Same;high;82;112;82;j;v;0;j;n;7573.486900000717
2wht38!;130;False;2;P = T1?;ST1_high_1;1;Same;high;82;112;82;j;v;1;j;b;1145.3317999985302
2wht38!;131;False;2;P = T1?;ST2_low_5;2;Same;low;96;154;154;j;v;1;f;v;1168.3905999962008
2wht38!;132;False;2;P = T2?;ST2_high_3;2;Same;high;70;96;96;j;v;1;j;b;1760.0855000055162
2wht38!;133;False;2;P = T2?;ST2_high_1;2;Same;high;82;112;112;j;v;1;j;b;7737.640300008934
2wht38!;134;False;2;P = T1?;ST2_low_6;2;Same;low;154;96;96;j;v;1;f;v;1708.9864000008674
2wht38!;135;False;2;P = T2?;ST2_high_4;2;Same;high;96;70;70;j;v;1;j;b;1330.3406000050018
2wht38!;136;False;2;P = T2?;ST2_low_5;2;Same;low;96;154;154;j;v;1;j;v;1262.580300011905
2wht38!;137;False;2;P = T2?;ST2_high_5;2;Same;high;96;132;132;j;v;1;j;b;2146.6170999919996
2wht38!;138;False;2;P = T2?;ST1_high_6;1;Same;high;132;96;132;j;v;0;j;b;1403.5543000063626
2wht38!;139;False;2;P = T2?;ST2_low_1;2;Same;low;82;132;132;j;v;0;f;v;6242.587500004447
2wht38!;140;False;2;P = T2?;STb_5;0;Same;None;112;112;112;j;v;1;j;b;3693.4894000005443
2wht38!;141;False;2;P = T2?;ST2_low_2;2;Same;low;132;82;82;j;v;1;j;v;1129.1640999988886
2wht38!;142;False;2;P = T1?;ST2_high_2;2;Same;high;112;82;82;j;v;1;f;v;1351.968199989642
2wht38!;143;False;2;P = T2?;DT1_low_6;1;Different;low;154;96;180;j;v;1;f;v;2425.864699995145
2wht38!;144;False;2;P = T1?;ST1_low_2;1;Same;low;132;82;132;j;v;0;f;v;1085.4376000061166
2wht38!;145;False;2;P = T1?;ST1_high_4;1;Same;high;96;70;96;j;v;0;f;b;3599.5815000060247
2wht38!;146;False;2;P = T1?;DT1_high_1;1;Different;high;82;112;70;j;v;0;j;b;2690.493800007971
2wht38!;147;False;2;P = T1?;DT1_low_5;1;Different;low;96;154;82;j;v;1;f;v;1063.4043000027305
2wht38!;148;False;2;P = T1?;ST2_high_6;2;Same;high;132;96;96;j;v;0;j;n;1750.6143000064185
2wht38!;149;False;2;P = T1?;STb_1;0;Same;None;60;60;60;j;v;1;j;b;827.3318999999901
2wht38!;150;False;2;P = T2?;ST2_low_5;2;Same;low;96;154;154;j;v;1;j;b;3660.800300000119
2wht38!;151;False;2;P = T1?;ST1_low_3;1;Same;low;70;112;70;j;v;1;j;v;1096.3093000027584
2wht38!;152;False;2;P = T1?;ST2_high_5;2;Same;high;96;132;132;j;v;1;f;v;2966.2490999908186
2wht38!;153;False;2;P = T1?;ST2_low_6;2;Same;low;154;96;96;j;v;1;f;v;954.5064999983879
2wht38!;154;False;2;P = T1?;ST1_high_3;1;Same;high;70;96;70;j;v;1;j;v;913.12040000048
2wht38!;155;False;2;P = T1?;ST2_low_6;2;Same;low;154;96;96;j;v;1;f;v;1456.0978000081377
2wht38!;156;False;2;P = T2?;ST1_low_1;1;Same;low;82;132;82;j;v;1;f;n;5383.930399999372
2wht38!;157;False;2;P = T2?;DT1_high_1;1;Different;high;82;112;70;j;v;1;f;v;959.4314999994822
2wht38!;158;False;2;P = T2?;ST1_low_3;1;Same;low;70;112;70;j;v;1;f;v;1058.6368999938713
2wht38!;159;False;2;P = T2?;ST1_high_2;1;Same;high;112;82;112;j;v;1;f;b;1254.5329999993555
2wht38!;160;False;2;P = T2?;DT1_low_5;1;Different;low;96;154;82;j;v;1;f;b;1312.6078000059351
2wht38!;161;False;2;P = T1?;ST2_low_4;2;Same;low;112;70;70;j;v;1;f;v;1631.3718000019435
2wht38!;162;False;2;P = T1?;ST2_high_1;2;Same;high;82;112;112;j;v;1;f;v;1535.133900004439
2wht38!;163;False;2;P = T2?;ST1_high_1;1;Same;high;82;112;82;j;v;1;f;v;762.6708000025246
2wht38!;164;False;2;P = T1?;ST2_low_2;2;Same;low;132;82;82;j;v;1;f;v;1072.3671000014292
2wht38!;165;False;2;P = T2?;ST1_high_2;1;Same;high;112;82;112;j;v;1;f;v;878.6859000101686
2wht38!;166;False;2;P = T2?;ST1_low_2;1;Same;low;132;82;132;j;v;1;f;v;741.5917000034824
2wht38!;167;False;2;P = T2?;ST2_low_4;2;Same;low;112;70;70;j;v;0;f;v;684.8108999984106
2wht38!;168;False;2;P = T2?;ST1_low_2;1;Same;low;132;82;132;j;v;1;f;v;713.9643999980763
2wht38!;169;False;2;P = T1?;ST2_low_2;2;Same;low;132;82;82;j;v;1;f;v;1027.006899996195
2wht38!;170;False;2;P = T1?;ST1_high_4;1;Same;high;96;70;96;j;v;1;j;b;1116.9163000013214
2wht38!;171;False;2;P = T2?;ST1_low_4;1;Same;low;112;70;112;j;v;1;f;v;786.6208000050392
2wht38!;172;False;2;P = T2?;ST1_low_1;1;Same;low;82;132;82;j;v;1;f;v;740.4780000069877
2wht38!;173;False;2;P = T2?;ST1_high_1;1;Same;high;82;112;82;j;v;1;f;v;655.4462999920361
2wht38!;174;False;2;P = T2?;ST1_low_5;1;Same;low;96;154;96;j;v;1;f;v;994.7861999971792
2wht38!;175;False;2;P = T1?;ST1_low_5;1;Same;low;96;154;96;j;v;1;j;n;3806.8129000021145
2wht38!;176;False;2;P = T1?;ST1_high_2;1;Same;high;112;82;112;j;v;1;j;v;855.6642000039574
