p_code;trial_nr;practice;block;question;condition;seqPos;Same_or_Diff;ITS;T1_hz;T2_hz;P_hz;yes_key;sure_key;correct;yes_no;rating;resp_time
8a#9nu4;1;True;1;P != T1?;DT1_high_1;1;Different;high;82;112;70;f;n;1;f;b;7277.2226999513805
8a#9nu4;2;True;1;P != T1?;STb_4;0;Same;None;96;96;96;f;n;0;f;v;7248.538500047289
8a#9nu4;3;True;1;P != T2?;ST1_low_1;1;Same;low;82;132;82;f;n;1;f;b;3810.701600043103
8a#9nu4;4;True;1;P != T1?;STb_8;0;Same;None;180;180;180;f;n;1;j;v;6659.146700054407
8a#9nu4;5;True;1;P != T1?;ST1_high_5;1;Same;high;96;132;96;f;n;1;j;b;2832.407600013539
8a#9nu4;6;True;1;P != T2?;STb_5;0;Same;None;112;112;112;f;n;1;j;b;2216.473100008443
8a#9nu4;7;True;1;P != T1?;ST1_low_4;1;Same;low;112;70;112;f;n;1;j;b;1371.8126999447122
8a#9nu4;8;True;1;P != T2?;DT2_low_6;2;Different;low;154;96;82;f;n;0;j;b;1382.0614999858662
8a#9nu4;9;True;1;P != T1?;ST2_low_5;2;Same;low;96;154;154;f;n;0;j;b;1458.764599985443
8a#9nu4;10;True;1;P != T2?;ST2_low_6;2;Same;low;154;96;96;f;n;0;f;n;1819.4431000156328
8a#9nu4;11;True;1;P != T1?;ST2_high_5;2;Same;high;96;132;132;f;n;0;j;v;1317.4760000547394
8a#9nu4;12;True;1;P != T2?;ST2_low_5;2;Same;low;96;154;154;f;n;1;j;b;2773.1639000121504
8a#9nu4;13;True;1;P != T2?;DT2_high_1;2;Different;high;82;112;132;f;n;0;j;b;1379.8671999247745
8a#9nu4;14;True;1;P != T1?;DT2_low_6;2;Different;low;154;96;82;f;n;0;j;b;1468.4364000568166
8a#9nu4;15;True;1;P != T2?;STb_1;0;Same;None;60;60;60;f;n;0;f;b;1566.2807999178767
8a#9nu4;16;True;1;P != T2?;ST1_low_6;1;Same;low;154;96;154;f;n;0;j;n;1522.6623000344262
8a#9nu4;1;False;1;P != T1?;ST2_high_1;2;Same;high;82;112;112;f;n;1;f;v;4650.818399968557
8a#9nu4;2;False;1;P != T1?;ST2_high_3;2;Same;high;70;96;96;f;n;1;f;b;1190.1776000158861
8a#9nu4;3;False;1;P != T2?;ST1_high_5;1;Same;high;96;132;96;f;n;1;f;b;2317.0418000081554
8a#9nu4;4;False;1;P != T1?;ST1_high_6;1;Same;high;132;96;132;f;n;0;f;b;1723.0737999780104
8a#9nu4;5;False;1;P != T2?;DT1_high_1;1;Different;high;82;112;70;f;n;0;j;b;1509.8144999938086
8a#9nu4;6;False;1;P != T2?;ST2_low_1;2;Same;low;82;132;132;f;n;1;j;n;29390.554999932647
8a#9nu4;7;False;1;P != T1?;ST1_high_5;1;Same;high;96;132;96;f;n;0;f;b;3220.875799888745
8a#9nu4;8;False;1;P != T2?;ST1_high_5;1;Same;high;96;132;96;f;n;0;j;b;5018.761100014672
8a#9nu4;9;False;1;P != T2?;ST1_high_6;1;Same;high;132;96;132;f;n;1;f;b;1562.7898999955505
8a#9nu4;10;False;1;P != T2?;ST2_low_2;2;Same;low;132;82;82;f;n;1;j;b;3597.1338000381365
8a#9nu4;11;False;1;P != T1?;ST1_high_4;1;Same;high;96;70;96;f;n;0;f;b;3222.357999999076
8a#9nu4;12;False;1;P != T1?;ST2_low_6;2;Same;low;154;96;96;f;n;1;f;v;4135.907899937592
8a#9nu4;13;False;1;P != T2?;ST2_low_5;2;Same;low;96;154;154;f;n;0;f;b;4115.965100005269
8a#9nu4;14;False;1;P != T2?;ST2_low_4;2;Same;low;112;70;70;f;n;1;j;n;4920.557800098322
8a#9nu4;15;False;1;P != T1?;ST2_low_6;2;Same;low;154;96;96;f;n;1;f;b;2740.266100037843
8a#9nu4;16;False;1;P != T2?;ST1_low_5;1;Same;low;96;154;96;f;n;1;f;b;8790.718300035223
8a#9nu4;17;False;1;P != T2?;ST2_low_3;2;Same;low;70;112;112;f;n;0;f;b;6891.509699984454
8a#9nu4;18;False;1;P != T2?;ST2_low_6;2;Same;low;154;96;96;f;n;1;j;v;5539.747399976477
8a#9nu4;19;False;1;P != T1?;ST1_low_2;1;Same;low;132;82;132;f;n;0;f;b;2467.30550006032
8a#9nu4;20;False;1;P != T2?;DT2_high_4;2;Different;high;96;70;60;f;n;1;f;b;1783.1084999488667
8a#9nu4;21;False;1;P != T2?;ST2_low_5;2;Same;low;96;154;154;f;n;0;f;b;3474.8062000144273
8a#9nu4;22;False;1;P != T1?;ST2_high_5;2;Same;high;96;132;132;f;n;1;f;v;3139.2937999917194
8a#9nu4;23;False;1;P != T2?;ST1_low_2;1;Same;low;132;82;132;f;n;0;j;v;8281.141400104389
8a#9nu4;24;False;1;P != T1?;DT2_high_4;2;Different;high;96;70;60;f;n;1;f;v;3502.5078000035137
8a#9nu4;25;False;1;P != T1?;ST2_high_2;2;Same;high;112;82;82;f;n;1;f;b;1830.6330000050366
8a#9nu4;26;False;1;P != T2?;ST2_high_6;2;Same;high;132;96;96;f;n;0;f;b;2398.835300002247
8a#9nu4;27;False;1;P != T2?;ST1_high_2;1;Same;high;112;82;112;f;n;1;f;v;6711.333899991587
8a#9nu4;28;False;1;P != T2?;ST1_low_1;1;Same;low;82;132;82;f;n;1;f;b;4503.067500074394
8a#9nu4;29;False;1;P != T2?;ST1_high_2;1;Same;high;112;82;112;f;n;1;f;b;1752.1875000093132
8a#9nu4;30;False;1;P != T2?;ST2_low_4;2;Same;low;112;70;70;f;n;0;f;b;3152.6049999520183
8a#9nu4;31;False;1;P != T2?;ST2_low_3;2;Same;low;70;112;112;f;n;1;j;v;10154.558700043708
8a#9nu4;32;False;1;P != T1?;ST2_high_3;2;Same;high;70;96;96;f;n;0;j;b;2664.6771000232548
8a#9nu4;33;False;1;P != T2?;ST1_low_1;1;Same;low;82;132;82;f;n;1;f;b;2098.3249000273645
8a#9nu4;34;False;1;P != T2?;STb_6;0;Same;None;132;132;132;f;n;0;f;b;1808.0556000350043
8a#9nu4;35;False;1;P != T1?;ST1_low_4;1;Same;low;112;70;112;f;n;1;j;b;1860.305199981667
8a#9nu4;36;False;1;P != T2?;ST2_low_1;2;Same;low;82;132;132;f;n;0;f;b;2040.5952000292018
8a#9nu4;37;False;1;P != T1?;ST2_low_5;2;Same;low;96;154;154;f;n;1;f;b;7438.146300031804
8a#9nu4;38;False;1;P != T1?;ST2_low_2;2;Same;low;132;82;82;f;n;1;f;b;2105.2777000004426
8a#9nu4;39;False;1;P != T2?;ST2_high_1;2;Same;high;82;112;112;f;n;1;j;b;1897.70299999509
8a#9nu4;40;False;1;P != T2?;ST1_low_4;1;Same;low;112;70;112;f;n;1;f;b;2057.447100058198
8a#9nu4;41;False;1;P != T1?;ST1_high_4;1;Same;high;96;70;96;f;n;1;j;v;6825.293299974874
8a#9nu4;42;False;1;P != T1?;ST2_high_5;2;Same;high;96;132;132;f;n;1;f;v;1463.8315999181941
8a#9nu4;43;False;1;P != T1?;ST2_low_4;2;Same;low;112;70;70;f;n;1;f;b;1421.9389000209048
8a#9nu4;44;False;1;P != T1?;ST1_low_6;1;Same;low;154;96;154;f;n;1;j;v;8658.873199950904
8a#9nu4;45;False;1;P != T1?;ST1_high_6;1;Same;high;132;96;132;f;n;0;f;b;2273.4085998963565
8a#9nu4;46;False;1;P != T1?;DT1_high_1;1;Different;high;82;112;70;f;n;0;j;b;1373.4427000163123
8a#9nu4;47;False;1;P != T2?;ST1_low_4;1;Same;low;112;70;112;f;n;1;f;b;2605.752000003122
8a#9nu4;48;False;1;P != T1?;ST2_high_4;2;Same;high;96;70;70;f;n;1;f;v;13418.372599990107
8a#9nu4;49;False;1;P != T1?;STb_6;0;Same;None;132;132;132;f;n;1;j;v;6371.770299971104
8a#9nu4;50;False;1;P != T2?;ST2_high_1;2;Same;high;82;112;112;f;n;0;f;v;5107.9890000401065
8a#9nu4;51;False;1;P != T1?;ST2_high_3;2;Same;high;70;96;96;f;n;0;j;n;1810.4491999838501
8a#9nu4;52;False;1;P != T1?;ST1_low_1;1;Same;low;82;132;82;f;n;1;j;b;8009.869799949229
8a#9nu4;53;False;1;P != T2?;DT1_high_2;1;Different;high;112;82;132;f;n;0;j;b;2347.8009999962524
8a#9nu4;54;False;1;P != T2?;ST2_high_6;2;Same;high;132;96;96;f;n;1;j;b;2166.9472999637946
8a#9nu4;55;False;1;P != T2?;ST2_high_4;2;Same;high;96;70;70;f;n;1;j;v;12869.668900035322
8a#9nu4;56;False;1;P != T2?;STb_8;0;Same;None;180;180;180;f;n;1;j;b;2359.450999996625
8a#9nu4;57;False;1;P != T1?;STb_2;0;Same;None;70;70;70;f;n;1;j;b;3049.682699958794
8a#9nu4;58;False;1;P != T2?;STb_2;0;Same;None;70;70;70;f;n;0;f;v;2717.1220999443904
8a#9nu4;59;False;1;P != T1?;ST1_high_3;1;Same;high;70;96;70;f;n;1;j;v;5013.605000101961
8a#9nu4;60;False;1;P != T2?;ST2_low_6;2;Same;low;154;96;96;f;n;0;f;b;4081.0916000045836
8a#9nu4;61;False;1;P != T2?;ST2_low_5;2;Same;low;96;154;154;f;n;1;j;b;1579.1983000235632
8a#9nu4;62;False;1;P != T1?;ST1_low_6;1;Same;low;154;96;154;f;n;1;j;v;3812.426000018604
8a#9nu4;63;False;1;P != T1?;STb_8;0;Same;None;180;180;180;f;n;1;j;b;3760.027699987404
8a#9nu4;64;False;1;P != T2?;ST1_high_6;1;Same;high;132;96;132;f;n;0;j;b;1279.3862000107765
8a#9nu4;65;False;1;P != T1?;ST1_high_2;1;Same;high;112;82;112;f;n;1;j;b;1825.0170999672264
8a#9nu4;66;False;1;P != T1?;ST1_low_3;1;Same;low;70;112;70;f;n;0;f;v;2100.7838000077754
8a#9nu4;67;False;1;P != T1?;ST2_high_6;2;Same;high;132;96;96;f;n;0;j;b;5580.9958999743685
8a#9nu4;68;False;1;P != T2?;ST2_high_2;2;Same;high;112;82;82;f;n;0;f;v;8817.87779997103
8a#9nu4;69;False;1;P != T2?;ST2_high_5;2;Same;high;96;132;132;f;n;0;f;b;2507.4673999333754
8a#9nu4;70;False;1;P != T2?;ST2_high_3;2;Same;high;70;96;96;f;n;1;j;b;1242.9160000756383
8a#9nu4;71;False;1;P != T1?;ST2_low_4;2;Same;low;112;70;70;f;n;1;f;b;1444.4810999557376
8a#9nu4;72;False;1;P != T2?;ST1_low_5;1;Same;low;96;154;96;f;n;1;f;b;1252.9343999922276
8a#9nu4;73;False;1;P != T2?;ST2_high_3;2;Same;high;70;96;96;f;n;0;f;b;1398.4824999934062
8a#9nu4;74;False;1;P != T1?;ST2_low_2;2;Same;low;132;82;82;f;n;1;f;b;1647.6549999788404
8a#9nu4;75;False;1;P != T1?;ST2_low_1;2;Same;low;82;132;132;f;n;1;f;b;1233.2046999363229
8a#9nu4;76;False;1;P != T2?;STb_7;0;Same;None;154;154;154;f;n;1;j;b;1343.5126999393106
8a#9nu4;77;False;1;P != T1?;ST2_high_5;2;Same;high;96;132;132;f;n;0;j;b;1240.3164999559522
8a#9nu4;78;False;1;P != T1?;ST1_low_4;1;Same;low;112;70;112;f;n;0;f;b;2294.0617999993265
8a#9nu4;79;False;1;P != T1?;ST2_low_1;2;Same;low;82;132;132;f;n;0;j;b;2239.037199993618
8a#9nu4;80;False;1;P != T1?;ST1_low_1;1;Same;low;82;132;82;f;n;1;j;v;13189.609699998982
8a#9nu4;81;False;1;P != T1?;ST1_high_2;1;Same;high;112;82;112;f;n;0;f;b;1654.4665999244899
8a#9nu4;82;False;1;P != T2?;ST2_low_1;2;Same;low;82;132;132;f;n;0;f;v;3953.389500034973
8a#9nu4;83;False;1;P != T2?;ST1_low_3;1;Same;low;70;112;70;f;n;0;j;b;2966.033799923025
8a#9nu4;84;False;1;P != T1?;ST1_low_3;1;Same;low;70;112;70;f;n;1;j;b;2013.9287000056356
8a#9nu4;85;False;1;P != T2?;ST1_high_5;1;Same;high;96;132;96;f;n;1;f;b;2467.0945000834763
8a#9nu4;86;False;1;P != T1?;ST1_low_5;1;Same;low;96;154;96;f;n;0;f;b;1408.2598999375477
8a#9nu4;87;False;1;P != T1?;ST1_low_1;1;Same;low;82;132;82;f;n;0;f;b;2089.847299968824
8a#9nu4;88;False;1;P != T2?;ST1_high_3;1;Same;high;70;96;70;f;n;1;f;b;1449.2045999504626
8a#9nu4;89;False;1;P != T2?;ST1_low_4;1;Same;low;112;70;112;f;n;0;j;b;1251.0136000346392
8a#9nu4;90;False;1;P != T2?;ST1_high_1;1;Same;high;82;112;82;f;n;1;f;b;2327.931899926625
8a#9nu4;91;False;1;P != T1?;ST1_high_1;1;Same;high;82;112;82;f;n;1;j;b;2097.8786000050604
8a#9nu4;92;False;1;P != T1?;ST1_high_1;1;Same;high;82;112;82;f;n;1;j;b;2475.518799968995
8a#9nu4;93;False;1;P != T1?;DT2_low_3;2;Different;low;70;112;132;f;n;1;f;v;1995.6991999642923
8a#9nu4;94;False;1;P != T1?;STb_4;0;Same;None;96;96;96;f;n;1;j;v;1783.7468000361696
8a#9nu4;95;False;1;P != T1?;DT1_high_5;1;Different;high;96;132;82;f;n;0;j;v;15618.931400007568
8a#9nu4;96;False;1;P != T2?;ST2_high_4;2;Same;high;96;70;70;f;n;1;j;v;1605.2493000170216
8a#9nu4;97;False;1;P != T2?;ST2_low_6;2;Same;low;154;96;96;f;n;0;f;n;1304.610799998045
8a#9nu4;98;False;1;P != T1?;ST1_low_5;1;Same;low;96;154;96;f;n;1;j;n;1908.03029993549
8a#9nu4;99;False;1;P != T1?;ST1_high_1;1;Same;high;82;112;82;f;n;1;j;b;1766.183500061743
8a#9nu4;100;False;1;P != T2?;DT1_high_6;1;Different;high;132;96;154;f;n;1;f;n;2662.252099951729
8a#9nu4;101;False;1;P != T2?;STb_5;0;Same;None;112;112;112;f;n;1;j;b;1683.5358999669552
8a#9nu4;102;False;1;P != T2?;ST1_high_4;1;Same;high;96;70;96;f;n;1;f;b;1520.320100011304
8a#9nu4;103;False;1;P != T2?;ST1_high_3;1;Same;high;70;96;70;f;n;1;f;b;2828.8853999692947
8a#9nu4;104;False;1;P != T2?;ST1_low_2;1;Same;low;132;82;132;f;n;0;j;v;5112.408900051378
8a#9nu4;105;False;1;P != T2?;ST1_high_1;1;Same;high;82;112;82;f;n;0;j;v;1413.1624000146985
8a#9nu4;106;False;1;P != T1?;DT1_high_4;1;Different;high;96;70;112;f;n;0;j;b;1761.384699959308
8a#9nu4;107;False;1;P != T2?;DT1_low_6;1;Different;low;154;96;180;f;n;1;f;n;3573.656600085087
8a#9nu4;108;False;1;P != T2?;ST2_low_3;2;Same;low;70;112;112;f;n;1;j;v;22553.103600046597
8a#9nu4;109;False;1;P != T2?;ST2_low_2;2;Same;low;132;82;82;f;n;1;j;b;1516.3037000456825
8a#9nu4;110;False;1;P != T2?;STb_1;0;Same;None;60;60;60;f;n;1;j;b;1250.0872999662533
8a#9nu4;111;False;1;P != T2?;ST1_low_1;1;Same;low;82;132;82;f;n;1;f;n;1971.6001999331638
8a#9nu4;112;False;1;P != T2?;STb_4;0;Same;None;96;96;96;f;n;1;j;b;2769.0529000246897
8a#9nu4;113;False;1;P != T1?;ST1_high_5;1;Same;high;96;132;96;f;n;0;f;n;1824.0950000472367
8a#9nu4;114;False;1;P != T1?;ST2_low_2;2;Same;low;132;82;82;f;n;1;f;b;3770.3810000093654
8a#9nu4;115;False;1;P != T1?;DT2_low_5;2;Different;low;96;154;180;f;n;1;f;n;1540.3199999127537
8a#9nu4;116;False;1;P != T2?;ST1_high_6;1;Same;high;132;96;132;f;n;0;j;b;1769.3279000231996
8a#9nu4;117;False;1;P != T2?;DT1_high_5;1;Different;high;96;132;82;f;n;0;j;b;1759.8416999680921
8a#9nu4;118;False;1;P != T2?;ST1_low_2;1;Same;low;132;82;132;f;n;1;f;v;2893.52709997911
8a#9nu4;119;False;1;P != T1?;STb_5;0;Same;None;112;112;112;f;n;1;j;b;1632.9266000539064
8a#9nu4;120;False;1;P != T2?;ST2_low_2;2;Same;low;132;82;82;f;n;0;f;v;3443.494000006467
8a#9nu4;121;False;1;P != T1?;ST2_high_6;2;Same;high;132;96;96;f;n;1;f;b;3175.2696000039577
8a#9nu4;122;False;1;P != T1?;ST2_high_6;2;Same;high;132;96;96;f;n;0;j;b;1930.8756000827998
8a#9nu4;123;False;1;P != T1?;ST1_low_4;1;Same;low;112;70;112;f;n;1;j;n;2180.3789000259712
8a#9nu4;124;False;1;P != T1?;ST1_low_2;1;Same;low;132;82;132;f;n;0;f;v;7045.6667999969795
8a#9nu4;125;False;1;P != T1?;ST1_high_3;1;Same;high;70;96;70;f;n;1;j;n;1700.307600083761
8a#9nu4;126;False;1;P != T2?;ST2_high_1;2;Same;high;82;112;112;f;n;0;f;n;2409.070099936798
8a#9nu4;127;False;1;P != T1?;DT1_low_3;1;Different;low;70;112;60;f;n;1;f;n;2696.6150000225753
8a#9nu4;128;False;1;P != T1?;DT2_high_5;2;Different;high;96;132;154;f;n;0;j;b;3989.772000000812
8a#9nu4;129;False;1;P != T1?;ST2_low_3;2;Same;low;70;112;112;f;n;0;j;b;3317.7692000754178
8a#9nu4;130;False;1;P != T2?;ST1_high_2;1;Same;high;112;82;112;f;n;1;f;n;2552.2823999635875
8a#9nu4;131;False;1;P != T2?;ST2_high_4;2;Same;high;96;70;70;f;n;1;j;v;2305.4755000630394
8a#9nu4;132;False;1;P != T1?;ST2_high_2;2;Same;high;112;82;82;f;n;1;f;v;4046.6231000609696
8a#9nu4;133;False;1;P != T2?;ST1_low_3;1;Same;low;70;112;70;f;n;1;f;n;4021.5491000562906
8a#9nu4;134;False;1;P != T2?;ST1_low_3;1;Same;low;70;112;70;f;n;1;f;n;1514.4261999521405
8a#9nu4;135;False;1;P != T2?;ST1_high_1;1;Same;high;82;112;82;f;n;1;f;n;1992.9728000424802
8a#9nu4;136;False;1;P != T1?;ST2_low_4;2;Same;low;112;70;70;f;n;0;j;b;3043.488699942827
8a#9nu4;137;False;1;P != T2?;ST2_high_2;2;Same;high;112;82;82;f;n;1;j;v;2663.2314000744373
8a#9nu4;138;False;1;P != T1?;STb_3;0;Same;None;82;82;82;f;n;1;j;b;2030.865199980326
8a#9nu4;139;False;1;P != T2?;ST2_high_5;2;Same;high;96;132;132;f;n;1;j;v;2295.724799972959
8a#9nu4;140;False;1;P != T2?;ST2_high_5;2;Same;high;96;132;132;f;n;0;f;b;1523.4796999720857
8a#9nu4;141;False;1;P != T1?;ST2_high_1;2;Same;high;82;112;112;f;n;1;f;v;2351.109299925156
8a#9nu4;142;False;1;P != T1?;ST2_low_6;2;Same;low;154;96;96;f;n;0;j;v;9755.842300015502
8a#9nu4;143;False;1;P != T1?;ST2_high_4;2;Same;high;96;70;70;f;n;1;f;b;2463.5742000536993
8a#9nu4;144;False;1;P != T2?;ST1_high_4;1;Same;high;96;70;96;f;n;0;j;b;1548.2249000342563
8a#9nu4;145;False;1;P != T1?;ST1_high_3;1;Same;high;70;96;70;f;n;1;j;b;3848.849599948153
8a#9nu4;146;False;1;P != T1?;ST2_low_3;2;Same;low;70;112;112;f;n;0;j;b;1609.0220999903977
8a#9nu4;147;False;1;P != T2?;ST1_low_6;1;Same;low;154;96;154;f;n;1;f;n;2038.2486999733374
8a#9nu4;148;False;1;P != T1?;ST2_low_1;2;Same;low;82;132;132;f;n;1;f;v;2756.2147999415174
8a#9nu4;149;False;1;P != T1?;ST1_high_4;1;Same;high;96;70;96;f;n;1;j;v;3891.1742999916896
8a#9nu4;150;False;1;P != T2?;ST1_high_3;1;Same;high;70;96;70;f;n;1;f;b;1441.4627000223845
8a#9nu4;151;False;1;P != T2?;ST1_high_4;1;Same;high;96;70;96;f;n;1;f;v;2740.8619999187067
8a#9nu4;152;False;1;P != T1?;ST2_high_4;2;Same;high;96;70;70;f;n;1;f;v;1781.4685000339523
8a#9nu4;153;False;1;P != T1?;ST1_high_2;1;Same;high;112;82;112;f;n;1;j;v;3726.749200024642
8a#9nu4;154;False;1;P != T2?;DT2_low_2;2;Different;low;132;82;70;f;n;1;f;v;4118.100699968636
8a#9nu4;155;False;1;P != T2?;DT2_high_3;2;Different;high;70;96;112;f;n;1;f;v;14934.349399991333
8a#9nu4;156;False;1;P != T1?;ST1_high_5;1;Same;high;96;132;96;f;n;1;j;b;1976.7648000270128
8a#9nu4;157;False;1;P != T1?;ST2_low_5;2;Same;low;96;154;154;f;n;1;f;b;3800.307600060478
8a#9nu4;158;False;1;P != T1?;ST1_high_6;1;Same;high;132;96;132;f;n;1;j;b;2146.458499948494
8a#9nu4;159;False;1;P != T1?;ST2_low_5;2;Same;low;96;154;154;f;n;1;f;b;2450.677299988456
8a#9nu4;160;False;1;P != T2?;ST1_low_6;1;Same;low;154;96;154;f;n;0;j;v;8641.027999925427
8a#9nu4;161;False;1;P != T1?;ST1_low_2;1;Same;low;132;82;132;f;n;1;j;b;2026.747600059025
8a#9nu4;162;False;1;P != T2?;STb_3;0;Same;None;82;82;82;f;n;1;j;b;1655.2456999197602
8a#9nu4;163;False;1;P != T2?;ST1_low_6;1;Same;low;154;96;154;f;n;1;f;v;5080.378199927509
8a#9nu4;164;False;1;P != T2?;ST2_high_6;2;Same;high;132;96;96;f;n;1;j;v;22051.641799975187
8a#9nu4;165;False;1;P != T2?;ST2_high_2;2;Same;high;112;82;82;f;n;0;f;v;6590.582299977541
8a#9nu4;166;False;1;P != T1?;ST1_low_6;1;Same;low;154;96;154;f;n;1;j;n;1828.2277999678627
8a#9nu4;167;False;1;P != T1?;ST2_low_3;2;Same;low;70;112;112;f;n;0;j;b;3899.8141000047326
8a#9nu4;168;False;1;P != T1?;ST2_high_1;2;Same;high;82;112;112;f;n;0;j;b;2063.331199926324
8a#9nu4;169;False;1;P != T1?;ST1_low_3;1;Same;low;70;112;70;f;n;1;j;b;2368.9032000256702
8a#9nu4;170;False;1;P != T1?;ST1_low_5;1;Same;low;96;154;96;f;n;1;j;v;5388.063600054011
8a#9nu4;171;False;1;P != T2?;ST1_low_5;1;Same;low;96;154;96;f;n;1;f;n;3394.7891999268904
8a#9nu4;172;False;1;P != T2?;ST2_low_4;2;Same;low;112;70;70;f;n;0;f;n;1940.802299999632
8a#9nu4;173;False;1;P != T1?;STb_1;0;Same;None;60;60;60;f;n;0;f;v;5635.045300005004
8a#9nu4;174;False;1;P != T1?;STb_7;0;Same;None;154;154;154;f;n;1;j;b;2223.6676999600604
8a#9nu4;175;False;1;P != T2?;ST2_high_3;2;Same;high;70;96;96;f;n;1;j;b;2874.682700028643
8a#9nu4;176;False;1;P != T1?;ST2_high_2;2;Same;high;112;82;82;f;n;1;f;b;2554.8199999611825
8a#9nu4;1;True;2;P = T1?;STb_4;0;Same;None;96;96;96;f;n;1;f;v;8925.81769998651
8a#9nu4;2;True;2;P = T2?;ST2_low_4;2;Same;low;112;70;70;f;n;0;j;v;2428.1080999644473
8a#9nu4;3;True;2;P = T1?;ST2_low_3;2;Same;low;70;112;112;f;n;1;j;b;3126.855899929069
8a#9nu4;4;True;2;P = T1?;DT2_high_5;2;Different;high;96;132;154;f;n;1;j;n;1640.1207998860627
8a#9nu4;5;True;2;P = T2?;STb_5;0;Same;None;112;112;112;f;n;1;f;b;1133.7318000150844
8a#9nu4;6;True;2;P = T2?;DT1_high_1;1;Different;high;82;112;70;f;n;0;f;b;1999.1224000696093
8a#9nu4;7;True;2;P = T2?;ST1_high_1;1;Same;high;82;112;82;f;n;1;j;v;2002.8465000214055
8a#9nu4;8;True;2;P = T1?;ST1_low_3;1;Same;low;70;112;70;f;n;1;f;v;1663.550400058739
8a#9nu4;9;True;2;P = T1?;ST2_low_1;2;Same;low;82;132;132;f;n;1;j;b;2000.133299967274
8a#9nu4;10;True;2;P = T1?;STb_6;0;Same;None;132;132;132;f;n;1;f;b;1777.244700002484
8a#9nu4;11;True;2;P = T1?;DT1_high_5;1;Different;high;96;132;82;f;n;1;j;b;1550.9987999685109
8a#9nu4;12;True;2;P = T2?;ST1_low_5;1;Same;low;96;154;96;f;n;1;j;n;2492.542600026354
8a#9nu4;13;True;2;P = T2?;STb_1;0;Same;None;60;60;60;f;n;1;f;n;1697.9270000010729
8a#9nu4;14;True;2;P = T2?;ST2_high_1;2;Same;high;82;112;112;f;n;1;f;b;1449.3034000042826
8a#9nu4;15;True;2;P = T2?;DT2_low_4;2;Different;low;112;70;60;f;n;1;j;v;1902.720500016585
8a#9nu4;16;True;2;P = T1?;ST1_low_6;1;Same;low;154;96;154;f;n;0;j;v;3284.6931000240147
8a#9nu4;1;False;2;P = T1?;ST1_high_6;1;Same;high;132;96;132;f;n;1;f;b;1450.0280000502244
8a#9nu4;2;False;2;P = T1?;STb_7;0;Same;None;154;154;154;f;n;1;f;b;1151.8479000078514
8a#9nu4;3;False;2;P = T2?;ST2_high_3;2;Same;high;70;96;96;f;n;1;f;b;1486.5330000175163
8a#9nu4;4;False;2;P = T2?;ST1_high_2;1;Same;high;112;82;112;f;n;0;f;b;1177.8627999592572
8a#9nu4;5;False;2;P = T2?;ST2_low_5;2;Same;low;96;154;154;f;n;0;j;b;1545.5751999979839
8a#9nu4;6;False;2;P = T2?;DT2_high_2;2;Different;high;112;82;70;f;n;1;j;v;1784.2042000265792
8a#9nu4;7;False;2;P = T1?;ST2_low_1;2;Same;low;82;132;132;f;n;0;f;v;4370.2837999444455
8a#9nu4;8;False;2;P = T1?;ST2_low_6;2;Same;low;154;96;96;f;n;0;f;v;12143.274100031704
8a#9nu4;9;False;2;P = T1?;ST1_low_4;1;Same;low;112;70;112;f;n;1;f;b;1200.6828000303358
8a#9nu4;10;False;2;P = T1?;ST2_low_4;2;Same;low;112;70;70;f;n;1;j;n;1695.0028000865132
8a#9nu4;11;False;2;P = T2?;DT1_low_6;1;Different;low;154;96;180;f;n;1;j;n;2045.9743000101298
8a#9nu4;12;False;2;P = T2?;ST2_low_1;2;Same;low;82;132;132;f;n;1;f;n;1177.627999917604
8a#9nu4;13;False;2;P = T2?;ST2_high_3;2;Same;high;70;96;96;f;n;1;f;b;1594.9839999666438
8a#9nu4;14;False;2;P = T2?;ST2_high_6;2;Same;high;132;96;96;f;n;1;f;b;1099.1020000074059
8a#9nu4;15;False;2;P = T2?;ST2_low_4;2;Same;low;112;70;70;f;n;0;j;v;3994.403399992734
8a#9nu4;16;False;2;P = T1?;DT1_high_1;1;Different;high;82;112;70;f;n;1;j;n;1844.9315999168903
8a#9nu4;17;False;2;P = T2?;ST1_low_3;1;Same;low;70;112;70;f;n;1;j;b;3165.069300099276
8a#9nu4;18;False;2;P = T1?;ST2_high_3;2;Same;high;70;96;96;f;n;0;f;v;2909.813900012523
8a#9nu4;19;False;2;P = T2?;ST2_high_5;2;Same;high;96;132;132;f;n;0;j;b;2094.5391999557614
8a#9nu4;20;False;2;P = T1?;ST1_high_1;1;Same;high;82;112;82;f;n;1;f;v;5215.8185000298545
8a#9nu4;21;False;2;P = T1?;ST1_low_1;1;Same;low;82;132;82;f;n;1;f;b;1030.7263999711722
8a#9nu4;22;False;2;P = T2?;STb_7;0;Same;None;154;154;154;f;n;0;j;b;3108.3255999255925
8a#9nu4;23;False;2;P = T2?;ST2_high_1;2;Same;high;82;112;112;f;n;0;j;v;3642.078800010495
8a#9nu4;24;False;2;P = T1?;ST2_high_4;2;Same;high;96;70;70;f;n;1;j;v;2208.909099921584
8a#9nu4;25;False;2;P = T2?;ST1_low_6;1;Same;low;154;96;154;f;n;1;j;n;2565.1656000409275
8a#9nu4;26;False;2;P = T1?;ST2_high_4;2;Same;high;96;70;70;f;n;0;f;v;3220.627900096588
8a#9nu4;27;False;2;P = T1?;ST2_low_6;2;Same;low;154;96;96;f;n;1;j;n;3950.076600071043
8a#9nu4;28;False;2;P = T1?;ST1_high_3;1;Same;high;70;96;70;f;n;1;f;b;2804.070199956186
8a#9nu4;29;False;2;P = T2?;ST1_low_5;1;Same;low;96;154;96;f;n;1;j;n;1658.750099944882
8a#9nu4;30;False;2;P = T1?;DT2_high_4;2;Different;high;96;70;60;f;n;0;f;v;953.830000013113
8a#9nu4;31;False;2;P = T1?;ST2_low_3;2;Same;low;70;112;112;f;n;0;f;b;906.0787999769673
8a#9nu4;32;False;2;P = T1?;ST1_high_1;1;Same;high;82;112;82;f;n;1;f;v;2124.2635999806225
8a#9nu4;33;False;2;P = T1?;ST1_high_6;1;Same;high;132;96;132;f;n;1;f;v;1382.45009991806
8a#9nu4;34;False;2;P = T2?;ST2_low_3;2;Same;low;70;112;112;f;n;1;f;v;3183.0297999549657
8a#9nu4;35;False;2;P = T1?;ST2_low_5;2;Same;low;96;154;154;f;n;1;j;n;2036.293899989687
8a#9nu4;36;False;2;P = T2?;STb_3;0;Same;None;82;82;82;f;n;0;j;n;2014.837000053376
8a#9nu4;37;False;2;P = T1?;DT2_high_3;2;Different;high;70;96;112;f;n;1;j;n;1941.3319000741467
8a#9nu4;38;False;2;P = T1?;ST1_high_1;1;Same;high;82;112;82;f;n;1;f;v;3532.1984000038356
8a#9nu4;39;False;2;P = T1?;ST2_low_5;2;Same;low;96;154;154;f;n;1;j;n;2073.6095999600366
8a#9nu4;40;False;2;P = T2?;ST1_high_6;1;Same;high;132;96;132;f;n;1;j;n;3049.7347000055015
8a#9nu4;41;False;2;P = T1?;ST1_low_1;1;Same;low;82;132;82;f;n;1;f;n;893.1384000461549
8a#9nu4;42;False;2;P = T1?;ST2_high_4;2;Same;high;96;70;70;f;n;0;f;b;846.8931999523193
8a#9nu4;43;False;2;P = T1?;ST1_low_3;1;Same;low;70;112;70;f;n;1;f;v;1282.6432000147179
8a#9nu4;44;False;2;P = T2?;ST1_low_2;1;Same;low;132;82;132;f;n;1;j;n;1160.5617000022903
8a#9nu4;45;False;2;P = T2?;ST2_low_3;2;Same;low;70;112;112;f;n;0;j;n;1255.9482000069693
8a#9nu4;46;False;2;P = T1?;STb_4;0;Same;None;96;96;96;f;n;1;f;v;1017.6486000418663
8a#9nu4;47;False;2;P = T2?;ST1_low_2;1;Same;low;132;82;132;f;n;1;j;b;4236.173499957658
8a#9nu4;48;False;2;P = T1?;ST1_high_4;1;Same;high;96;70;96;f;n;1;f;v;1163.076899945736
8a#9nu4;49;False;2;P = T2?;STb_4;0;Same;None;96;96;96;f;n;1;f;b;1520.8731000311673
8a#9nu4;50;False;2;P = T1?;STb_8;0;Same;None;180;180;180;f;n;1;f;n;1144.636399927549
8a#9nu4;51;False;2;P = T2?;ST1_high_1;1;Same;high;82;112;82;f;n;0;f;n;1428.2788999844342
8a#9nu4;52;False;2;P = T1?;ST2_low_5;2;Same;low;96;154;154;f;n;1;j;n;1655.9415999799967
8a#9nu4;53;False;2;P = T2?;ST1_high_3;1;Same;high;70;96;70;f;n;0;f;b;1912.8938999492675
8a#9nu4;54;False;2;P = T1?;ST1_low_2;1;Same;low;132;82;132;f;n;1;f;b;1256.568199954927
8a#9nu4;55;False;2;P = T2?;ST1_low_1;1;Same;low;82;132;82;f;n;1;j;n;1603.7185000022873
8a#9nu4;56;False;2;P = T2?;ST1_low_4;1;Same;low;112;70;112;f;n;0;f;b;1188.6450999882072
8a#9nu4;57;False;2;P = T2?;STb_5;0;Same;None;112;112;112;f;n;1;f;b;1148.0573000153527
8a#9nu4;58;False;2;P = T1?;ST1_low_4;1;Same;low;112;70;112;f;n;0;j;v;4263.333300012164
8a#9nu4;59;False;2;P = T1?;ST2_high_6;2;Same;high;132;96;96;f;n;1;j;b;1837.896000011824
8a#9nu4;60;False;2;P = T2?;ST1_low_5;1;Same;low;96;154;96;f;n;1;j;n;1661.9640999706462
8a#9nu4;61;False;2;P = T1?;ST2_low_2;2;Same;low;132;82;82;f;n;1;j;b;5529.8287000041455
8a#9nu4;62;False;2;P = T1?;ST2_low_6;2;Same;low;154;96;96;f;n;1;j;b;3608.553700032644
8a#9nu4;63;False;2;P = T2?;ST1_high_6;1;Same;high;132;96;132;f;n;0;f;v;2826.4261999865994
8a#9nu4;64;False;2;P = T2?;ST1_high_3;1;Same;high;70;96;70;f;n;0;f;b;1156.6054999129847
8a#9nu4;65;False;2;P = T1?;STb_1;0;Same;None;60;60;60;f;n;1;f;v;3349.7054000617936
8a#9nu4;66;False;2;P = T1?;ST1_high_3;1;Same;high;70;96;70;f;n;1;f;b;1305.1958999130875
8a#9nu4;67;False;2;P = T1?;ST2_low_3;2;Same;low;70;112;112;f;n;0;f;v;6656.3892000122
8a#9nu4;68;False;2;P = T2?;ST1_high_1;1;Same;high;82;112;82;f;n;1;j;n;1175.3326000180095
8a#9nu4;69;False;2;P = T1?;ST1_low_5;1;Same;low;96;154;96;f;n;1;f;b;2020.0286000035703
8a#9nu4;70;False;2;P = T2?;STb_8;0;Same;None;180;180;180;f;n;0;j;n;1131.4444000599906
8a#9nu4;71;False;2;P = T2?;STb_6;0;Same;None;132;132;132;f;n;0;j;b;3460.455800057389
8a#9nu4;72;False;2;P = T2?;ST2_high_2;2;Same;high;112;82;82;f;n;0;j;b;1319.8735000332817
8a#9nu4;73;False;2;P = T2?;ST2_low_4;2;Same;low;112;70;70;f;n;1;f;b;2307.453399989754
8a#9nu4;74;False;2;P = T2?;ST2_high_5;2;Same;high;96;132;132;f;n;1;f;b;1189.547499991022
8a#9nu4;75;False;2;P = T2?;ST1_high_5;1;Same;high;96;132;96;f;n;1;j;n;1842.184399953112
8a#9nu4;76;False;2;P = T2?;ST2_low_5;2;Same;low;96;154;154;f;n;0;j;v;3039.6689000772312
8a#9nu4;77;False;2;P = T2?;ST2_low_2;2;Same;low;132;82;82;f;n;1;f;b;1369.5308999158442
8a#9nu4;78;False;2;P = T2?;DT1_high_6;1;Different;high;132;96;154;f;n;1;j;n;1432.542199967429
8a#9nu4;79;False;2;P = T1?;ST2_high_5;2;Same;high;96;132;132;f;n;0;f;v;1170.0772000476718
8a#9nu4;80;False;2;P = T1?;ST1_high_6;1;Same;high;132;96;132;f;n;1;f;v;2457.7001000288874
8a#9nu4;81;False;2;P = T1?;ST1_low_5;1;Same;low;96;154;96;f;n;1;f;b;1084.478099946864
8a#9nu4;82;False;2;P = T1?;DT1_low_3;1;Different;low;70;112;60;f;n;1;j;v;2015.3476999839768
8a#9nu4;83;False;2;P = T1?;ST2_high_5;2;Same;high;96;132;132;f;n;1;j;v;2272.239600075409
8a#9nu4;84;False;2;P = T2?;ST1_low_4;1;Same;low;112;70;112;f;n;1;j;n;1885.2124999975786
8a#9nu4;85;False;2;P = T2?;ST1_low_4;1;Same;low;112;70;112;f;n;1;j;b;1739.1870999708772
8a#9nu4;86;False;2;P = T1?;ST1_low_1;1;Same;low;82;132;82;f;n;1;f;n;1617.460299981758
8a#9nu4;87;False;2;P = T1?;ST2_high_2;2;Same;high;112;82;82;f;n;0;f;v;5441.823199973442
8a#9nu4;88;False;2;P = T1?;ST2_low_2;2;Same;low;132;82;82;f;n;1;j;b;1761.4704999141395
8a#9nu4;89;False;2;P = T1?;ST1_low_6;1;Same;low;154;96;154;f;n;1;f;b;2329.9085999606177
8a#9nu4;90;False;2;P = T1?;DT1_low_1;1;Different;low;82;132;70;f;n;0;f;b;3106.644400046207
8a#9nu4;91;False;2;P = T1?;ST1_low_2;1;Same;low;132;82;132;f;n;1;f;v;1316.7763999663293
8a#9nu4;92;False;2;P = T2?;ST1_high_1;1;Same;high;82;112;82;f;n;0;f;b;1045.6265999237075
8a#9nu4;93;False;2;P = T2?;DT2_low_3;2;Different;low;70;112;132;f;n;1;j;n;1301.8267001025379
8a#9nu4;94;False;2;P = T1?;ST2_low_2;2;Same;low;132;82;82;f;n;1;j;b;3234.705200069584
8a#9nu4;95;False;2;P = T1?;DT1_low_5;1;Different;low;96;154;82;f;n;0;f;b;1018.1952000129968
8a#9nu4;96;False;2;P = T2?;ST1_high_6;1;Same;high;132;96;132;f;n;1;j;n;1031.6953000146896
8a#9nu4;97;False;2;P = T1?;ST1_low_4;1;Same;low;112;70;112;f;n;1;f;b;987.5504000810906
8a#9nu4;98;False;2;P = T2?;ST2_low_6;2;Same;low;154;96;96;f;n;0;j;b;1700.2938999794424
8a#9nu4;99;False;2;P = T1?;ST1_high_5;1;Same;high;96;132;96;f;n;0;j;n;2211.4009999204427
8a#9nu4;100;False;2;P = T1?;ST1_high_5;1;Same;high;96;132;96;f;n;1;f;b;961.6399999940768
8a#9nu4;101;False;2;P = T2?;ST2_low_4;2;Same;low;112;70;70;f;n;0;j;v;4055.4931999649853
8a#9nu4;102;False;2;P = T1?;ST2_high_3;2;Same;high;70;96;96;f;n;0;f;v;2181.8321000318974
8a#9nu4;103;False;2;P = T1?;STb_2;0;Same;None;70;70;70;f;n;1;f;v;2563.8139999937266
8a#9nu4;104;False;2;P = T2?;ST1_high_4;1;Same;high;96;70;96;f;n;1;j;n;1223.6989999655634
8a#9nu4;105;False;2;P = T2?;ST2_high_5;2;Same;high;96;132;132;f;n;1;f;n;1261.4037999883294
8a#9nu4;106;False;2;P = T2?;ST1_low_1;1;Same;low;82;132;82;f;n;1;j;n;1950.202500098385
8a#9nu4;107;False;2;P = T2?;ST1_low_2;1;Same;low;132;82;132;f;n;1;j;v;1233.3452999591827
8a#9nu4;108;False;2;P = T1?;ST1_low_6;1;Same;low;154;96;154;f;n;1;f;n;2354.6475999755785
8a#9nu4;109;False;2;P = T2?;ST1_low_3;1;Same;low;70;112;70;f;n;1;j;v;2673.0678000021726
8a#9nu4;110;False;2;P = T1?;ST2_high_1;2;Same;high;82;112;112;f;n;0;f;b;926.2066000374034
8a#9nu4;111;False;2;P = T1?;ST2_high_6;2;Same;high;132;96;96;f;n;1;j;n;1798.9937999518588
8a#9nu4;112;False;2;P = T2?;ST1_high_4;1;Same;high;96;70;96;f;n;0;f;v;4938.293099985458
8a#9nu4;113;False;2;P = T1?;ST1_low_5;1;Same;low;96;154;96;f;n;1;f;b;1208.312299917452
8a#9nu4;114;False;2;P = T2?;ST1_high_5;1;Same;high;96;132;96;f;n;1;j;n;2550.4860000219196
8a#9nu4;115;False;2;P = T2?;ST1_low_5;1;Same;low;96;154;96;f;n;1;j;n;1663.7757000280544
8a#9nu4;116;False;2;P = T1?;ST1_high_4;1;Same;high;96;70;96;f;n;1;f;b;1069.7090000612661
8a#9nu4;117;False;2;P = T1?;ST1_low_3;1;Same;low;70;112;70;f;n;1;f;b;895.1708000386134
8a#9nu4;118;False;2;P = T2?;ST1_low_1;1;Same;low;82;132;82;f;n;1;j;b;2208.7695999071
8a#9nu4;119;False;2;P = T2?;ST1_high_5;1;Same;high;96;132;96;f;n;1;j;b;1381.405199994333
8a#9nu4;120;False;2;P = T1?;ST1_low_6;1;Same;low;154;96;154;f;n;1;f;n;1177.498699980788
8a#9nu4;121;False;2;P = T2?;ST1_low_3;1;Same;low;70;112;70;f;n;0;f;n;1980.9389000292867
8a#9nu4;122;False;2;P = T2?;ST2_high_4;2;Same;high;96;70;70;f;n;1;f;n;1144.439599942416
8a#9nu4;123;False;2;P = T1?;STb_6;0;Same;None;132;132;132;f;n;1;f;b;980.4574999725446
8a#9nu4;124;False;2;P = T1?;ST2_high_2;2;Same;high;112;82;82;f;n;0;f;b;896.5077999746427
8a#9nu4;125;False;2;P = T2?;ST1_low_6;1;Same;low;154;96;154;f;n;1;j;b;2062.3136999784037
8a#9nu4;126;False;2;P = T2?;ST2_high_6;2;Same;high;132;96;96;f;n;1;f;b;1233.3910999586806
8a#9nu4;127;False;2;P = T2?;ST1_high_2;1;Same;high;112;82;112;f;n;1;j;v;2748.209399986081
8a#9nu4;128;False;2;P = T2?;ST2_low_3;2;Same;low;70;112;112;f;n;0;j;v;1539.9353000102565
8a#9nu4;129;False;2;P = T1?;DT2_high_5;2;Different;high;96;132;154;f;n;1;j;n;1576.723999925889
8a#9nu4;130;False;2;P = T1?;ST2_low_4;2;Same;low;112;70;70;f;n;1;j;b;2238.9116999693215
8a#9nu4;131;False;2;P = T2?;ST1_low_6;1;Same;low;154;96;154;f;n;1;j;n;1155.8125999290496
8a#9nu4;132;False;2;P = T1?;ST1_high_5;1;Same;high;96;132;96;f;n;1;f;b;845.579499960877
8a#9nu4;133;False;2;P = T1?;ST2_high_2;2;Same;high;112;82;82;f;n;1;j;v;1250.8664999622852
8a#9nu4;134;False;2;P = T2?;ST2_high_1;2;Same;high;82;112;112;f;n;0;j;b;1201.8660999601707
8a#9nu4;135;False;2;P = T2?;ST1_high_2;1;Same;high;112;82;112;f;n;1;j;b;1119.7908000322059
8a#9nu4;136;False;2;P = T2?;ST2_high_2;2;Same;high;112;82;82;f;n;1;f;n;1605.2982000401244
8a#9nu4;137;False;2;P = T2?;ST2_low_5;2;Same;low;96;154;154;f;n;1;f;n;2569.436899968423
8a#9nu4;138;False;2;P = T1?;DT2_low_2;2;Different;low;132;82;70;f;n;1;j;n;1307.415600051172
8a#9nu4;139;False;2;P = T1?;ST2_low_1;2;Same;low;82;132;132;f;n;1;j;n;3179.4184000464156
8a#9nu4;140;False;2;P = T1?;STb_5;0;Same;None;112;112;112;f;n;1;f;v;7668.483500019647
8a#9nu4;141;False;2;P = T2?;ST2_low_6;2;Same;low;154;96;96;f;n;1;f;b;1581.5515000140294
8a#9nu4;142;False;2;P = T2?;ST2_high_4;2;Same;high;96;70;70;f;n;1;f;b;1061.578999971971
8a#9nu4;143;False;2;P = T1?;ST1_high_4;1;Same;high;96;70;96;f;n;1;f;v;2772.725800052285
8a#9nu4;144;False;2;P = T2?;STb_1;0;Same;None;60;60;60;f;n;1;f;b;1208.0427000764757
8a#9nu4;145;False;2;P = T2?;DT1_high_1;1;Different;high;82;112;70;f;n;0;f;b;2361.7794000310823
8a#9nu4;146;False;2;P = T1?;ST2_high_1;2;Same;high;82;112;112;f;n;1;j;b;1862.522799987346
8a#9nu4;147;False;2;P = T1?;ST2_high_3;2;Same;high;70;96;96;f;n;0;f;b;929.3429999379441
8a#9nu4;148;False;2;P = T2?;DT1_high_4;1;Different;high;96;70;112;f;n;0;f;b;1389.8850999539718
8a#9nu4;149;False;2;P = T1?;ST1_high_2;1;Same;high;112;82;112;f;n;1;f;v;1688.3057000814006
8a#9nu4;150;False;2;P = T2?;ST2_low_6;2;Same;low;154;96;96;f;n;1;f;v;9159.451199928299
8a#9nu4;151;False;2;P = T2?;ST2_low_2;2;Same;low;132;82;82;f;n;1;f;b;1245.3191000968218
8a#9nu4;152;False;2;P = T1?;ST1_high_2;1;Same;high;112;82;112;f;n;1;f;b;1113.1165999686345
8a#9nu4;153;False;2;P = T2?;ST1_high_4;1;Same;high;96;70;96;f;n;0;f;b;1192.1420999569818
8a#9nu4;154;False;2;P = T1?;ST2_low_4;2;Same;low;112;70;70;f;n;0;f;v;2182.985999970697
8a#9nu4;155;False;2;P = T1?;ST2_high_1;2;Same;high;82;112;112;f;n;1;j;b;1275.806299992837
8a#9nu4;156;False;2;P = T1?;ST2_low_3;2;Same;low;70;112;112;f;n;0;f;v;2855.3975000977516
8a#9nu4;157;False;2;P = T2?;ST2_low_2;2;Same;low;132;82;82;f;n;0;j;n;1172.9096000781283
8a#9nu4;158;False;2;P = T1?;ST1_high_2;1;Same;high;112;82;112;f;n;0;j;v;4052.5110999587923
8a#9nu4;159;False;2;P = T1?;ST1_low_2;1;Same;low;132;82;132;f;n;1;f;b;1105.5173999629915
8a#9nu4;160;False;2;P = T2?;DT2_high_1;2;Different;high;82;112;132;f;n;1;j;b;1256.8960000062361
8a#9nu4;161;False;2;P = T1?;ST1_low_3;1;Same;low;70;112;70;f;n;1;f;n;963.5426999302581
8a#9nu4;162;False;2;P = T1?;STb_3;0;Same;None;82;82;82;f;n;1;f;b;827.0992999896407
8a#9nu4;163;False;2;P = T2?;ST2_high_6;2;Same;high;132;96;96;f;n;1;f;b;3474.7539999661967
8a#9nu4;164;False;2;P = T1?;ST2_high_5;2;Same;high;96;132;132;f;n;1;j;n;1444.2020000424236
8a#9nu4;165;False;2;P = T1?;ST2_high_6;2;Same;high;132;96;96;f;n;1;j;n;1145.4631999367848
8a#9nu4;166;False;2;P = T2?;ST2_high_2;2;Same;high;112;82;82;f;n;0;j;v;2621.91550002899
8a#9nu4;167;False;2;P = T1?;ST2_low_1;2;Same;low;82;132;132;f;n;1;j;b;1646.1938000284135
8a#9nu4;168;False;2;P = T2?;ST2_low_1;2;Same;low;82;132;132;f;n;0;j;v;5476.736199925654
8a#9nu4;169;False;2;P = T2?;DT1_low_5;1;Different;low;96;154;82;f;n;1;j;b;3331.7503000143915
8a#9nu4;170;False;2;P = T2?;ST2_high_1;2;Same;high;82;112;112;f;n;1;f;v;5801.901399972849
8a#9nu4;171;False;2;P = T2?;ST2_high_3;2;Same;high;70;96;96;f;n;1;f;v;1653.886100044474
8a#9nu4;172;False;2;P = T2?;ST2_high_4;2;Same;high;96;70;70;f;n;0;j;v;1439.8635999532416
8a#9nu4;173;False;2;P = T1?;ST1_high_3;1;Same;high;70;96;70;f;n;1;f;v;1228.2229999545962
8a#9nu4;174;False;2;P = T2?;STb_2;0;Same;None;70;70;70;f;n;1;f;b;1973.999899928458
8a#9nu4;175;False;2;P = T2?;ST2_low_1;2;Same;low;82;132;132;f;n;0;j;b;1248.4648000681773
8a#9nu4;176;False;2;P = T2?;ST1_high_3;1;Same;high;70;96;70;f;n;1;j;v;1227.7113000163808