p_code;trial_nr;practice;block;question;condition;seqPos;Same_or_Diff;ITS;T1_hz;T2_hz;P_hz;yes_key;sure_key;correct;yes_no;rating;resp_time
3k0!xt7;1;True;1;P = T2?;DT2_low_6;2;Different;low;154;96;82;j;n;1;f;n;2318.575700002839
3k0!xt7;2;True;1;P = T1?;ST1_low_1;1;Same;low;82;132;82;j;n;1;j;b;3654.7589999972843
3k0!xt7;3;True;1;P = T1?;DT2_low_5;2;Different;low;96;154;180;j;n;0;j;n;1731.7839000024833
3k0!xt7;4;True;1;P = T1?;ST1_high_6;1;Same;high;132;96;132;j;n;1;j;b;4859.653299994534
3k0!xt7;5;True;1;P = T2?;ST2_high_3;2;Same;high;70;96;96;j;n;1;j;n;992.5776000018232
3k0!xt7;6;True;1;P = T2?;STb_4;0;Same;None;96;96;96;j;n;0;f;b;7236.53270000068
3k0!xt7;7;True;1;P = T1?;ST2_high_3;2;Same;high;70;96;96;j;n;1;f;b;2278.837100006058
3k0!xt7;8;True;1;P = T2?;DT1_high_6;1;Different;high;132;96;154;j;n;0;j;b;2687.450600002194
3k0!xt7;9;True;1;P = T2?;ST2_high_1;2;Same;high;82;112;112;j;n;1;j;v;1228.1694000121206
3k0!xt7;10;True;1;P = T1?;STb_7;0;Same;None;154;154;154;j;n;1;j;n;1413.6900000012247
3k0!xt7;11;True;1;P = T1?;ST2_low_5;2;Same;low;96;154;154;j;n;0;j;b;2939.654600006179
3k0!xt7;12;True;1;P = T2?;ST1_low_5;1;Same;low;96;154;96;j;n;1;f;n;1231.348400004208
3k0!xt7;13;True;1;P = T1?;DT1_high_3;1;Different;high;70;96;60;j;n;1;f;v;5291.8768000090495
3k0!xt7;14;True;1;P = T2?;STb_6;0;Same;None;132;132;132;j;n;1;j;n;1226.9952000060584
3k0!xt7;15;True;1;P = T2?;ST1_high_2;1;Same;high;112;82;112;j;n;0;j;n;1196.4639000070747
3k0!xt7;16;True;1;P = T1?;STb_2;0;Same;None;70;70;70;j;n;1;j;n;1727.850999988732
p_code;trial_nr;practice;block;question;condition;seqPos;Same_or_Diff;ITS;T1_hz;T2_hz;P_hz;yes_key;sure_key;correct;yes_no;rating;resp_time
3k0!xt7;1;False;1;P = T2?;ST2_low_6;2;Same;low;154;96;96;j;n;0;f;v;2640.393399997265
3k0!xt7;2;False;1;P = T1?;ST2_low_1;2;Same;low;82;132;132;j;n;1;f;v;761.9156000000658
3k0!xt7;3;False;1;P = T2?;ST1_high_6;1;Same;high;132;96;132;j;n;1;f;n;588.0467000097269
3k0!xt7;4;False;1;P = T1?;ST1_high_2;1;Same;high;112;82;112;j;n;1;j;n;637.0208000007551
3k0!xt7;5;False;1;P = T1?;ST1_low_3;1;Same;low;70;112;70;j;n;0;f;n;1783.1711000035284
3k0!xt7;6;False;1;P = T1?;ST2_high_6;2;Same;high;132;96;96;j;n;1;f;n;1620.873700012453
3k0!xt7;7;False;1;P = T1?;ST2_high_1;2;Same;high;82;112;112;j;n;0;j;b;1993.1367999961367
3k0!xt7;8;False;1;P = T1?;ST1_low_1;1;Same;low;82;132;82;j;n;0;f;b;1812.9399000026751
3k0!xt7;9;False;1;P = T2?;DT2_low_6;2;Different;low;154;96;82;j;n;0;j;n;3151.426700002048
3k0!xt7;10;False;1;P = T2?;ST1_low_5;1;Same;low;96;154;96;j;n;1;f;b;1454.1355999972438
3k0!xt7;11;False;1;P = T1?;ST1_low_2;1;Same;low;132;82;132;j;n;1;j;v;2937.104700002237
3k0!xt7;12;False;1;P = T1?;ST2_high_2;2;Same;high;112;82;82;j;n;1;f;n;1536.8133000010857
3k0!xt7;13;False;1;P = T2?;ST1_low_4;1;Same;low;112;70;112;j;n;0;j;n;2253.664800009574
3k0!xt7;14;False;1;P = T1?;ST2_low_3;2;Same;low;70;112;112;j;n;1;f;b;1169.1188999975566
3k0!xt7;15;False;1;P = T2?;ST2_high_6;2;Same;high;132;96;96;j;n;1;j;b;1286.402600002475
3k0!xt7;16;False;1;P = T1?;ST2_low_6;2;Same;low;154;96;96;j;n;0;j;b;1326.247199991485
3k0!xt7;17;False;1;P = T1?;ST1_high_3;1;Same;high;70;96;70;j;n;1;j;n;427.3811000020942
3k0!xt7;18;False;1;P = T1?;ST2_low_1;2;Same;low;82;132;132;j;n;1;f;n;1448.9483000070322
3k0!xt7;19;False;1;P = T1?;DT1_high_4;1;Different;high;96;70;112;j;n;0;j;b;2440.608599994448
3k0!xt7;20;False;1;P = T2?;ST2_high_5;2;Same;high;96;132;132;j;n;1;j;n;917.4509000004036
3k0!xt7;21;False;1;P = T2?;ST1_low_2;1;Same;low;132;82;132;j;n;0;j;n;608.167800004594
3k0!xt7;22;False;1;P = T1?;ST2_high_3;2;Same;high;70;96;96;j;n;0;j;n;697.4080000072718
3k0!xt7;23;False;1;P = T1?;ST2_high_5;2;Same;high;96;132;132;j;n;0;j;n;949.2747999902349
3k0!xt7;24;False;1;P = T2?;ST2_low_3;2;Same;low;70;112;112;j;n;1;j;n;843.8832000101684
3k0!xt7;25;False;1;P = T2?;ST2_high_3;2;Same;high;70;96;96;j;n;1;j;n;904.4307000003755
3k0!xt7;26;False;1;P = T2?;ST2_low_4;2;Same;low;112;70;70;j;n;1;j;n;1104.2174000031082
3k0!xt7;27;False;1;P = T1?;DT2_low_3;2;Different;low;70;112;132;j;n;0;j;b;1228.7552000052528
3k0!xt7;28;False;1;P = T2?;DT2_low_4;2;Different;low;112;70;60;j;n;0;j;n;877.5937000027625
3k0!xt7;29;False;1;P = T1?;ST1_high_6;1;Same;high;132;96;132;j;n;1;j;n;415.1426000025822
3k0!xt7;30;False;1;P = T2?;ST2_high_3;2;Same;high;70;96;96;j;n;1;j;n;566.1196000000928
3k0!xt7;31;False;1;P = T2?;STb_1;0;Same;None;60;60;60;j;n;1;j;n;314.380900003016
3k0!xt7;32;False;1;P = T2?;ST1_low_1;1;Same;low;82;132;82;j;n;0;j;b;956.0950999875786
3k0!xt7;33;False;1;P = T2?;ST2_low_3;2;Same;low;70;112;112;j;n;1;j;v;4680.572299999767
3k0!xt7;34;False;1;P = T1?;ST2_low_2;2;Same;low;132;82;82;j;n;1;f;v;1374.0322000085143
3k0!xt7;35;False;1;P = T2?;STb_7;0;Same;None;154;154;154;j;n;1;j;n;745.488500004285
3k0!xt7;36;False;1;P = T1?;ST2_high_4;2;Same;high;96;70;70;j;n;0;j;n;633.2345999981044
3k0!xt7;37;False;1;P = T2?;ST2_low_4;2;Same;low;112;70;70;j;n;1;j;n;682.64120000822
3k0!xt7;38;False;1;P = T1?;DT1_high_3;1;Different;high;70;96;60;j;n;0;j;n;1148.932700001751
3k0!xt7;39;False;1;P = T1?;ST1_high_3;1;Same;high;70;96;70;j;n;1;j;v;1607.392499994603
3k0!xt7;40;False;1;P = T2?;ST1_low_4;1;Same;low;112;70;112;j;n;1;f;v;3787.4541000055615
3k0!xt7;41;False;1;P = T2?;ST2_low_6;2;Same;low;154;96;96;j;n;1;j;b;2100.8883000031346
3k0!xt7;42;False;1;P = T2?;ST1_high_1;1;Same;high;82;112;82;j;n;1;f;v;1930.787399993278
3k0!xt7;43;False;1;P = T2?;ST1_high_4;1;Same;high;96;70;96;j;n;0;j;n;443.00830000429414
3k0!xt7;44;False;1;P = T1?;DT1_low_1;1;Different;low;82;132;70;j;n;1;f;n;3864.0957000025082
3k0!xt7;45;False;1;P = T1?;ST1_high_1;1;Same;high;82;112;82;j;n;1;j;n;1307.5458999956027
3k0!xt7;46;False;1;P = T2?;ST2_high_6;2;Same;high;132;96;96;j;n;1;j;b;3122.1459999942454
3k0!xt7;47;False;1;P = T2?;STb_8;0;Same;None;180;180;180;j;n;1;j;n;528.3957999927225
3k0!xt7;48;False;1;P = T2?;ST2_high_1;2;Same;high;82;112;112;j;n;1;j;b;1050.3352000087034
3k0!xt7;49;False;1;P = T2?;ST2_low_5;2;Same;low;96;154;154;j;n;1;j;n;1285.1281000039307
3k0!xt7;50;False;1;P = T1?;DT1_high_1;1;Different;high;82;112;70;j;n;0;j;n;1766.1081999976886
3k0!xt7;51;False;1;P = T2?;STb_5;0;Same;None;112;112;112;j;n;1;j;b;1108.1109999940963
3k0!xt7;52;False;1;P = T2?;ST2_high_3;2;Same;high;70;96;96;j;n;1;j;n;917.6085000071907
3k0!xt7;53;False;1;P = T2?;ST2_low_5;2;Same;low;96;154;154;j;n;1;j;n;924.2531999916537
3k0!xt7;54;False;1;P = T1?;ST2_low_6;2;Same;low;154;96;96;j;n;1;f;b;7629.385899999761
3k0!xt7;55;False;1;P = T2?;ST2_high_4;2;Same;high;96;70;70;j;n;1;j;n;573.3781000017188
3k0!xt7;56;False;1;P = T1?;STb_2;0;Same;None;70;70;70;j;n;1;j;n;646.9754999998258
3k0!xt7;57;False;1;P = T1?;ST1_high_1;1;Same;high;82;112;82;j;n;1;j;n;443.14430000667926
3k0!xt7;58;False;1;P = T1?;ST1_high_2;1;Same;high;112;82;112;j;n;1;j;n;427.9220000025816
3k0!xt7;59;False;1;P = T2?;ST2_low_2;2;Same;low;132;82;82;j;n;1;j;n;797.6741000020411
3k0!xt7;60;False;1;P = T1?;ST1_low_6;1;Same;low;154;96;154;j;n;1;j;n;653.365300007863
3k0!xt7;61;False;1;P = T1?;DT2_low_2;2;Different;low;132;82;70;j;n;1;f;n;1271.5549999993527
3k0!xt7;62;False;1;P = T2?;ST2_low_3;2;Same;low;70;112;112;j;n;1;j;n;348.36420000647195
3k0!xt7;63;False;1;P = T1?;ST2_low_3;2;Same;low;70;112;112;j;n;1;f;v;1071.3187000073958
3k0!xt7;64;False;1;P = T1?;ST2_low_4;2;Same;low;112;70;70;j;n;0;j;n;906.7364999937126
3k0!xt7;65;False;1;P = T1?;ST2_low_5;2;Same;low;96;154;154;j;n;1;f;n;1370.476800002507
3k0!xt7;66;False;1;P = T2?;ST1_low_3;1;Same;low;70;112;70;j;n;0;j;n;1583.1508999981452
3k0!xt7;67;False;1;P = T1?;ST2_high_4;2;Same;high;96;70;70;j;n;0;j;b;4285.96560000733
3k0!xt7;68;False;1;P = T2?;ST1_high_2;1;Same;high;112;82;112;j;n;0;j;n;530.1842999906512
3k0!xt7;69;False;1;P = T2?;ST1_low_6;1;Same;low;154;96;154;j;n;1;f;n;1192.210100009106
3k0!xt7;70;False;1;P = T1?;ST1_high_1;1;Same;high;82;112;82;j;n;1;j;b;3583.706700010225
3k0!xt7;71;False;1;P = T1?;STb_1;0;Same;None;60;60;60;j;n;1;j;n;674.5585999888135
3k0!xt7;72;False;1;P = T1?;ST2_high_2;2;Same;high;112;82;82;j;n;0;j;n;402.7212000073632
3k0!xt7;73;False;1;P = T2?;DT1_low_4;1;Different;low;112;70;132;j;n;0;j;b;1742.0614000002388
3k0!xt7;74;False;1;P = T2?;ST2_high_2;2;Same;high;112;82;82;j;n;1;j;n;807.8398999932688
3k0!xt7;75;False;1;P = T2?;ST1_low_2;1;Same;low;132;82;132;j;n;1;f;n;1941.8442000023788
3k0!xt7;76;False;1;P = T1?;ST1_high_6;1;Same;high;132;96;132;j;n;0;f;n;1310.507400005008
3k0!xt7;77;False;1;P = T1?;ST2_high_2;2;Same;high;112;82;82;j;n;0;j;n;507.1004999917932
3k0!xt7;78;False;1;P = T2?;ST2_low_5;2;Same;low;96;154;154;j;n;1;j;n;1002.1759999945061
3k0!xt7;79;False;1;P = T1?;ST2_high_5;2;Same;high;96;132;132;j;n;0;j;v;1561.944200002472
3k0!xt7;80;False;1;P = T1?;ST1_low_1;1;Same;low;82;132;82;j;n;0;f;n;1172.0457000046736
3k0!xt7;81;False;1;P = T2?;ST2_high_5;2;Same;high;96;132;132;j;n;1;j;n;1017.1580000023823
3k0!xt7;82;False;1;P = T1?;ST2_high_5;2;Same;high;96;132;132;j;n;1;f;n;2774.6245000016643
3k0!xt7;83;False;1;P = T1?;ST2_low_4;2;Same;low;112;70;70;j;n;0;j;n;1523.253300008946
3k0!xt7;84;False;1;P = T1?;STb_6;0;Same;None;132;132;132;j;n;1;j;n;346.26820000994485
3k0!xt7;85;False;1;P = T2?;ST1_high_1;1;Same;high;82;112;82;j;n;0;j;n;640.9711000014795
3k0!xt7;86;False;1;P = T1?;ST1_low_6;1;Same;low;154;96;154;j;n;1;j;b;1495.2526000124635
3k0!xt7;87;False;1;P = T2?;ST1_low_4;1;Same;low;112;70;112;j;n;1;f;n;1805.8986999967601
3k0!xt7;88;False;1;P = T2?;ST2_high_1;2;Same;high;82;112;112;j;n;1;j;n;1114.5988999924157
3k0!xt7;89;False;1;P = T1?;ST1_low_1;1;Same;low;82;132;82;j;n;1;j;v;2945.307000001776
3k0!xt7;90;False;1;P = T1?;ST2_high_3;2;Same;high;70;96;96;j;n;0;j;b;743.0843000038294
3k0!xt7;91;False;1;P = T1?;ST1_high_3;1;Same;high;70;96;70;j;n;1;j;n;1466.0121999913827
3k0!xt7;92;False;1;P = T2?;DT1_high_3;1;Different;high;70;96;60;j;n;1;f;v;1606.6475999978138
3k0!xt7;93;False;1;P = T2?;ST1_high_2;1;Same;high;112;82;112;j;n;0;j;b;4273.58870000171
3k0!xt7;94;False;1;P = T2?;ST1_low_1;1;Same;low;82;132;82;j;n;1;f;n;1239.315799990436
3k0!xt7;95;False;1;P = T1?;ST1_high_5;1;Same;high;96;132;96;j;n;1;j;b;423.7057999998797
3k0!xt7;96;False;1;P = T1?;ST1_low_3;1;Same;low;70;112;70;j;n;1;j;b;1552.410600008443
3k0!xt7;97;False;1;P = T1?;ST2_high_4;2;Same;high;96;70;70;j;n;0;j;n;757.1899000031408
3k0!xt7;98;False;1;P = T2?;ST1_low_6;1;Same;low;154;96;154;j;n;1;f;n;2426.7925000021933
3k0!xt7;99;False;1;P = T2?;ST2_low_6;2;Same;low;154;96;96;j;n;1;j;v;2760.418200006825
3k0!xt7;100;False;1;P = T1?;ST1_high_4;1;Same;high;96;70;96;j;n;1;j;b;1830.7817000022624
3k0!xt7;101;False;1;P = T2?;STb_4;0;Same;None;96;96;96;j;n;1;j;n;1191.2700999964727
3k0!xt7;102;False;1;P = T2?;ST1_high_4;1;Same;high;96;70;96;j;n;0;j;n;364.9262999970233
3k0!xt7;103;False;1;P = T2?;STb_6;0;Same;None;132;132;132;j;n;1;j;b;2281.0492999997223
3k0!xt7;104;False;1;P = T1?;STb_8;0;Same;None;180;180;180;j;n;1;j;n;1544.0266000077827
3k0!xt7;105;False;1;P = T1?;ST1_low_2;1;Same;low;132;82;132;j;n;1;j;b;1769.9557000014465
3k0!xt7;106;False;1;P = T2?;ST1_high_3;1;Same;high;70;96;70;j;n;0;j;n;1240.0487000122666
3k0!xt7;107;False;1;P = T1?;STb_7;0;Same;None;154;154;154;j;n;1;j;n;817.0637000002898
3k0!xt7;108;False;1;P = T2?;DT2_low_2;2;Different;low;132;82;70;j;n;0;j;b;2103.3586999983527
3k0!xt7;109;False;1;P = T1?;ST1_low_4;1;Same;low;112;70;112;j;n;0;f;n;2820.110200002091
3k0!xt7;110;False;1;P = T1?;ST1_high_2;1;Same;high;112;82;112;j;n;1;j;n;504.98379999771714
3k0!xt7;111;False;1;P = T1?;ST1_high_4;1;Same;high;96;70;96;j;n;1;j;n;537.5604000000749
3k0!xt7;112;False;1;P = T1?;ST1_low_6;1;Same;low;154;96;154;j;n;1;j;b;1020.9467999957269
3k0!xt7;113;False;1;P = T2?;ST2_high_2;2;Same;high;112;82;82;j;n;1;j;b;2354.585199995199
3k0!xt7;114;False;1;P = T1?;ST1_low_4;1;Same;low;112;70;112;j;n;0;f;n;1114.5262999925762
3k0!xt7;115;False;1;P = T1?;ST1_high_5;1;Same;high;96;132;96;j;n;0;f;b;1191.7714000010164
3k0!xt7;116;False;1;P = T1?;ST2_low_2;2;Same;low;132;82;82;j;n;1;f;n;1360.0396999972872
3k0!xt7;117;False;1;P = T2?;ST1_low_2;1;Same;low;132;82;132;j;n;0;j;b;2990.5655999900773
3k0!xt7;118;False;1;P = T1?;ST2_high_3;2;Same;high;70;96;96;j;n;0;j;n;1491.8735999963246
3k0!xt7;119;False;1;P = T2?;ST1_high_3;1;Same;high;70;96;70;j;n;0;j;n;640.0445000035688
3k0!xt7;120;False;1;P = T2?;ST1_high_5;1;Same;high;96;132;96;j;n;1;f;n;1247.520999997505
3k0!xt7;121;False;1;P = T2?;ST1_high_4;1;Same;high;96;70;96;j;n;0;j;b;1707.424499996705
3k0!xt7;122;False;1;P = T1?;ST2_high_1;2;Same;high;82;112;112;j;n;1;f;n;4535.312100008014
3k0!xt7;123;False;1;P = T1?;ST1_low_4;1;Same;low;112;70;112;j;n;1;j;b;1182.6463999896077
3k0!xt7;124;False;1;P = T2?;DT1_high_2;1;Different;high;112;82;132;j;n;0;j;n;1309.5824000047287
3k0!xt7;125;False;1;P = T1?;STb_3;0;Same;None;82;82;82;j;n;0;f;v;1654.6909000026062
3k0!xt7;126;False;1;P = T2?;ST1_high_3;1;Same;high;70;96;70;j;n;0;j;n;641.6908999963198
3k0!xt7;127;False;1;P = T1?;ST2_high_6;2;Same;high;132;96;96;j;n;1;f;n;1241.3008000003174
3k0!xt7;128;False;1;P = T2?;ST1_high_2;1;Same;high;112;82;112;j;n;0;j;b;3355.0023999996483
3k0!xt7;129;False;1;P = T1?;DT1_high_2;1;Different;high;112;82;132;j;n;0;j;v;3564.645600010408
3k0!xt7;130;False;1;P = T1?;ST2_low_2;2;Same;low;132;82;82;j;n;0;j;n;1241.8808999937028
3k0!xt7;131;False;1;P = T2?;ST2_low_1;2;Same;low;82;132;132;j;n;1;j;n;826.5232000121614
3k0!xt7;132;False;1;P = T2?;ST1_low_6;1;Same;low;154;96;154;j;n;1;f;n;1525.9516000078293
3k0!xt7;133;False;1;P = T2?;ST2_low_4;2;Same;low;112;70;70;j;n;1;j;n;1403.6641999991843
3k0!xt7;134;False;1;P = T1?;ST2_high_1;2;Same;high;82;112;112;j;n;1;f;n;2635.109900002135
3k0!xt7;135;False;1;P = T1?;ST1_high_6;1;Same;high;132;96;132;j;n;0;f;v;8091.1714999965625
3k0!xt7;136;False;1;P = T1?;ST2_high_6;2;Same;high;132;96;96;j;n;1;f;n;1331.8472000100883
3k0!xt7;137;False;1;P = T1?;ST1_high_4;1;Same;high;96;70;96;j;n;0;f;v;2049.5932000048924
3k0!xt7;138;False;1;P = T1?;ST2_low_5;2;Same;low;96;154;154;j;n;1;f;v;1748.800300003495
3k0!xt7;139;False;1;P = T2?;ST2_high_4;2;Same;high;96;70;70;j;n;1;j;n;345.01090001140255
3k0!xt7;140;False;1;P = T2?;ST1_high_6;1;Same;high;132;96;132;j;n;0;j;n;759.0213999937987
3k0!xt7;141;False;1;P = T1?;ST2_low_4;2;Same;low;112;70;70;j;n;0;j;n;1070.160000002943
3k0!xt7;142;False;1;P = T2?;ST1_low_5;1;Same;low;96;154;96;j;n;1;f;n;1104.3332000117516
3k0!xt7;143;False;1;P = T1?;ST1_high_5;1;Same;high;96;132;96;j;n;1;j;v;2001.912199993967
3k0!xt7;144;False;1;P = T2?;ST2_high_4;2;Same;high;96;70;70;j;n;1;j;n;364.433700000518
3k0!xt7;145;False;1;P = T2?;ST1_low_3;1;Same;low;70;112;70;j;n;1;f;b;1915.6387000111863
3k0!xt7;146;False;1;P = T2?;ST1_high_5;1;Same;high;96;132;96;j;n;1;f;n;1185.9044999873731
3k0!xt7;147;False;1;P = T1?;ST1_low_5;1;Same;low;96;154;96;j;n;1;j;n;1454.1863000049489
3k0!xt7;148;False;1;P = T2?;ST2_high_6;2;Same;high;132;96;96;j;n;1;j;v;854.3582999991486
3k0!xt7;149;False;1;P = T2?;ST1_high_1;1;Same;high;82;112;82;j;n;0;j;n;995.9420999948634
3k0!xt7;150;False;1;P = T2?;DT2_high_2;2;Different;high;112;82;70;j;n;0;j;b;1483.9255999977468
3k0!xt7;151;False;1;P = T1?;ST2_low_3;2;Same;low;70;112;112;j;n;0;j;n;1520.0168999872403
3k0!xt7;152;False;1;P = T1?;ST2_low_5;2;Same;low;96;154;154;j;n;1;f;v;3890.626299995347
3k0!xt7;153;False;1;P = T2?;STb_3;0;Same;None;82;82;82;j;n;1;j;n;1146.1967999930494
3k0!xt7;154;False;1;P = T1?;ST2_low_6;2;Same;low;154;96;96;j;n;0;j;n;841.1562999972375
3k0!xt7;155;False;1;P = T1?;ST1_low_5;1;Same;low;96;154;96;j;n;1;j;v;1582.34559999255
3k0!xt7;156;False;1;P = T2?;ST1_low_1;1;Same;low;82;132;82;j;n;1;f;n;1404.4896000123117
3k0!xt7;157;False;1;P = T1?;ST1_low_2;1;Same;low;132;82;132;j;n;0;f;n;1163.2665999932215
3k0!xt7;158;False;1;P = T1?;DT1_high_5;1;Different;high;96;132;82;j;n;1;f;v;2597.3573999945074
3k0!xt7;159;False;1;P = T2?;ST1_high_5;1;Same;high;96;132;96;j;n;0;j;b;1365.6728000059957
3k0!xt7;160;False;1;P = T1?;STb_5;0;Same;None;112;112;112;j;n;1;j;n;850.407499994617
3k0!xt7;161;False;1;P = T2?;ST2_low_1;2;Same;low;82;132;132;j;n;1;j;b;4246.474499988835
3k0!xt7;162;False;1;P = T2?;ST1_low_5;1;Same;low;96;154;96;j;n;1;f;n;3326.7052000010153
3k0!xt7;163;False;1;P = T1?;STb_4;0;Same;None;96;96;96;j;n;1;j;n;212.15570000640582
3k0!xt7;164;False;1;P = T2?;STb_2;0;Same;None;70;70;70;j;n;1;j;n;822.9968999949051
3k0!xt7;165;False;1;P = T2?;ST2_high_1;2;Same;high;82;112;112;j;n;1;j;v;6648.336899990682
3k0!xt7;166;False;1;P = T2?;ST1_high_6;1;Same;high;132;96;132;j;n;1;f;n;1068.2297000021208
3k0!xt7;167;False;1;P = T2?;ST2_low_1;2;Same;low;82;132;132;j;n;1;j;n;1689.1510999994352
3k0!xt7;168;False;1;P = T1?;ST1_low_5;1;Same;low;96;154;96;j;n;1;j;b;1772.525599997607
3k0!xt7;169;False;1;P = T2?;ST2_low_2;2;Same;low;132;82;82;j;n;1;j;b;1685.9605000063311
3k0!xt7;170;False;1;P = T1?;ST1_low_3;1;Same;low;70;112;70;j;n;1;j;v;4485.219700000016
3k0!xt7;171;False;1;P = T1?;ST2_low_1;2;Same;low;82;132;132;j;n;1;f;n;1045.5783999932464
3k0!xt7;172;False;1;P = T2?;ST1_low_3;1;Same;low;70;112;70;j;n;0;j;n;1755.776900012279
3k0!xt7;173;False;1;P = T2?;DT1_high_5;1;Different;high;96;132;82;j;n;1;f;b;3992.957300011767
3k0!xt7;174;False;1;P = T2?;ST2_low_2;2;Same;low;132;82;82;j;n;1;j;n;1553.9014000096358
3k0!xt7;175;False;1;P = T2?;ST2_high_5;2;Same;high;96;132;132;j;n;1;j;n;1250.3451999946265
3k0!xt7;176;False;1;P = T2?;ST2_high_2;2;Same;high;112;82;82;j;n;1;j;n;785.6238999956986
3k0!xt7;1;True;2;P != T1?;ST2_low_2;2;Same;low;132;82;82;j;n;1;j;n;2683.959199988749
3k0!xt7;2;True;2;P != T2?;ST2_high_5;2;Same;high;96;132;132;j;n;1;f;n;1747.5475999963237
3k0!xt7;3;True;2;P != T2?;ST1_low_4;1;Same;low;112;70;112;j;n;0;f;n;2615.1015000068583
3k0!xt7;4;True;2;P != T1?;DT1_low_6;1;Different;low;154;96;180;j;n;0;f;n;1695.4318999923998
3k0!xt7;5;True;2;P != T1?;ST1_high_6;1;Same;high;132;96;132;j;n;0;j;n;3988.2088999875123
3k0!xt7;6;True;2;P != T1?;STb_1;0;Same;None;60;60;60;j;n;1;f;n;397.1447000076296
3k0!xt7;7;True;2;P != T1?;STb_2;0;Same;None;70;70;70;j;n;1;f;n;504.4736000127159
3k0!xt7;8;True;2;P != T1?;ST1_high_2;1;Same;high;112;82;112;j;n;1;f;n;3275.731800007634
3k0!xt7;9;True;2;P != T1?;DT2_low_4;2;Different;low;112;70;60;j;n;1;j;n;2030.1472999999532
3k0!xt7;10;True;2;P != T2?;DT2_high_4;2;Different;high;96;70;60;j;n;0;f;n;1185.566199987079
3k0!xt7;11;True;2;P != T1?;ST2_high_3;2;Same;high;70;96;96;j;n;0;f;n;2451.084600004833
3k0!xt7;12;True;2;P != T2?;ST1_high_6;1;Same;high;132;96;132;j;n;1;j;n;1859.3808000005083
3k0!xt7;13;True;2;P != T2?;STb_5;0;Same;None;112;112;112;j;n;1;f;n;527.0765000022948
3k0!xt7;14;True;2;P != T2?;STb_7;0;Same;None;154;154;154;j;n;1;f;n;1393.0691999994451
3k0!xt7;15;True;2;P != T2?;ST2_low_3;2;Same;low;70;112;112;j;n;1;f;n;896.9714999984717
3k0!xt7;16;True;2;P != T2?;DT1_high_5;1;Different;high;96;132;82;j;n;1;j;n;1534.5622999884654
3k0!xt7;1;False;2;P != T1?;ST2_low_6;2;Same;low;154;96;96;j;n;1;j;n;1577.9406999936327
3k0!xt7;2;False;2;P != T1?;ST1_low_3;1;Same;low;70;112;70;j;n;1;f;v;4173.65849998896
3k0!xt7;3;False;2;P != T1?;ST2_low_5;2;Same;low;96;154;154;j;n;1;j;n;1230.9403999970527
3k0!xt7;4;False;2;P != T2?;ST1_low_1;1;Same;low;82;132;82;j;n;1;j;n;1152.2357000067132
3k0!xt7;5;False;2;P != T1?;ST2_high_1;2;Same;high;82;112;112;j;n;1;j;b;2919.858599998406
3k0!xt7;6;False;2;P != T2?;ST2_low_4;2;Same;low;112;70;70;j;n;1;f;n;1518.5165000002598
3k0!xt7;7;False;2;P != T2?;ST2_high_3;2;Same;high;70;96;96;j;n;1;f;n;1326.5940999990562
3k0!xt7;8;False;2;P != T2?;ST2_high_4;2;Same;high;96;70;70;j;n;1;f;b;4179.695900005754
3k0!xt7;9;False;2;P != T1?;ST2_high_4;2;Same;high;96;70;70;j;n;0;f;b;1820.0504999986151
3k0!xt7;10;False;2;P != T2?;ST1_high_3;1;Same;high;70;96;70;j;n;1;j;n;1424.5515999937197
3k0!xt7;11;False;2;P != T2?;ST2_high_5;2;Same;high;96;132;132;j;n;1;f;n;1679.6488000109093
3k0!xt7;12;False;2;P != T2?;ST2_low_3;2;Same;low;70;112;112;j;n;1;f;n;1577.3576999927172
3k0!xt7;13;False;2;P != T1?;ST2_high_1;2;Same;high;82;112;112;j;n;0;f;n;358.69749999255873
3k0!xt7;14;False;2;P != T2?;DT1_high_2;1;Different;high;112;82;132;j;n;0;f;n;408.24560000328347
3k0!xt7;15;False;2;P != T2?;ST1_low_4;1;Same;low;112;70;112;j;n;1;j;v;17391.854200002854
3k0!xt7;16;False;2;P != T1?;ST1_low_2;1;Same;low;132;82;132;j;n;1;f;b;895.2200000057928
3k0!xt7;17;False;2;P != T2?;ST1_low_3;1;Same;low;70;112;70;j;n;1;j;v;1452.187299990328
3k0!xt7;18;False;2;P != T1?;ST1_high_1;1;Same;high;82;112;82;j;n;1;f;n;2044.0296000015223
3k0!xt7;19;False;2;P != T1?;ST2_high_2;2;Same;high;112;82;82;j;n;1;j;n;1979.2997000040486
3k0!xt7;20;False;2;P != T1?;ST1_high_4;1;Same;high;96;70;96;j;n;1;f;n;870.0585999904433
3k0!xt7;21;False;2;P != T1?;ST2_high_6;2;Same;high;132;96;96;j;n;1;j;n;1179.1075999935856
3k0!xt7;22;False;2;P != T2?;ST2_low_4;2;Same;low;112;70;70;j;n;1;f;n;1385.0878999946872
3k0!xt7;23;False;2;P != T2?;ST1_low_5;1;Same;low;96;154;96;j;n;0;f;v;2267.6119999960065
3k0!xt7;24;False;2;P != T2?;ST2_high_1;2;Same;high;82;112;112;j;n;1;f;b;5404.67700001318
3k0!xt7;25;False;2;P != T1?;ST2_low_6;2;Same;low;154;96;96;j;n;1;j;n;1125.6730000022799
3k0!xt7;26;False;2;P != T1?;ST2_high_2;2;Same;high;112;82;82;j;n;0;f;n;380.29529999766964
3k0!xt7;27;False;2;P != T1?;ST1_high_3;1;Same;high;70;96;70;j;n;1;f;n;393.39660000405274
3k0!xt7;28;False;2;P != T2?;ST1_low_2;1;Same;low;132;82;132;j;n;0;f;b;3091.6304999991553
3k0!xt7;29;False;2;P != T2?;ST1_high_2;1;Same;high;112;82;112;j;n;0;f;n;1662.2306999925058
3k0!xt7;30;False;2;P != T2?;ST1_high_4;1;Same;high;96;70;96;j;n;0;f;n;460.4784999974072
3k0!xt7;31;False;2;P != T2?;DT2_low_1;2;Different;low;82;132;154;j;n;0;f;n;2304.2188999970676
3k0!xt7;32;False;2;P != T1?;STb_1;0;Same;None;60;60;60;j;n;1;f;n;738.0666000099154
3k0!xt7;33;False;2;P != T2?;ST1_low_2;1;Same;low;132;82;132;j;n;0;f;b;3422.17890000029
3k0!xt7;34;False;2;P != T2?;ST2_low_2;2;Same;low;132;82;82;j;n;1;f;n;1843.850500008557
3k0!xt7;35;False;2;P != T2?;ST2_low_3;2;Same;low;70;112;112;j;n;1;f;v;4160.069400008069
3k0!xt7;36;False;2;P != T1?;ST1_low_6;1;Same;low;154;96;154;j;n;1;f;b;1634.666500001913
3k0!xt7;37;False;2;P != T1?;ST1_high_2;1;Same;high;112;82;112;j;n;1;f;n;1796.4829999982612
3k0!xt7;38;False;2;P != T1?;ST2_high_5;2;Same;high;96;132;132;j;n;1;j;n;1227.3214999877382
3k0!xt7;39;False;2;P != T1?;ST1_high_3;1;Same;high;70;96;70;j;n;1;f;n;648.9508000086062
3k0!xt7;40;False;2;P != T2?;ST1_low_4;1;Same;low;112;70;112;j;n;0;f;n;4160.402499997872
3k0!xt7;41;False;2;P != T1?;ST2_high_6;2;Same;high;132;96;96;j;n;0;f;n;2015.5260000028647
3k0!xt7;42;False;2;P != T1?;ST2_low_2;2;Same;low;132;82;82;j;n;0;f;n;401.3429000042379
3k0!xt7;43;False;2;P != T2?;STb_7;0;Same;None;154;154;154;j;n;1;f;n;372.04729999939445
3k0!xt7;44;False;2;P != T2?;ST2_low_4;2;Same;low;112;70;70;j;n;1;f;b;8213.96910000476
3k0!xt7;45;False;2;P != T1?;ST1_low_4;1;Same;low;112;70;112;j;n;1;f;n;381.7764000123134
3k0!xt7;46;False;2;P != T2?;ST2_low_5;2;Same;low;96;154;154;j;n;1;f;n;1350.8761999983108
3k0!xt7;47;False;2;P != T1?;ST1_high_1;1;Same;high;82;112;82;j;n;1;f;b;2108.2711999915773
3k0!xt7;48;False;2;P != T1?;DT1_high_1;1;Different;high;82;112;70;j;n;0;f;b;5366.1601000058
3k0!xt7;49;False;2;P != T2?;ST1_low_6;1;Same;low;154;96;154;j;n;1;j;b;5453.044299996691
3k0!xt7;50;False;2;P != T1?;DT1_high_4;1;Different;high;96;70;112;j;n;0;f;v;8173.271599996951
3k0!xt7;51;False;2;P != T1?;ST1_low_2;1;Same;low;132;82;132;j;n;1;f;n;1681.308999992325
3k0!xt7;52;False;2;P != T1?;ST1_low_6;1;Same;low;154;96;154;j;n;0;j;v;1614.4341000035638
3k0!xt7;53;False;2;P != T1?;ST2_high_5;2;Same;high;96;132;132;j;n;0;f;n;714.0416999900481
3k0!xt7;54;False;2;P != T1?;STb_8;0;Same;None;180;180;180;j;n;1;f;n;487.3564000008628
3k0!xt7;55;False;2;P != T1?;STb_2;0;Same;None;70;70;70;j;n;1;f;n;633.7648000044283
3k0!xt7;56;False;2;P != T1?;ST2_low_2;2;Same;low;132;82;82;j;n;1;j;n;1975.9779000014532
3k0!xt7;57;False;2;P != T1?;ST1_low_4;1;Same;low;112;70;112;j;n;0;j;v;4759.181699992041
3k0!xt7;58;False;2;P != T2?;ST1_high_5;1;Same;high;96;132;96;j;n;0;f;b;2147.2710000089137
3k0!xt7;59;False;2;P != T2?;ST2_high_6;2;Same;high;132;96;96;j;n;1;f;b;8256.139200006146
3k0!xt7;60;False;2;P != T1?;ST2_high_5;2;Same;high;96;132;132;j;n;0;f;n;1297.3683000018355
3k0!xt7;61;False;2;P != T1?;ST1_low_5;1;Same;low;96;154;96;j;n;0;j;b;1620.889600002556
3k0!xt7;62;False;2;P != T1?;ST2_low_2;2;Same;low;132;82;82;j;n;0;f;b;1265.2644000045257
3k0!xt7;63;False;2;P != T2?;ST1_low_2;1;Same;low;132;82;132;j;n;0;f;n;1704.1643999982625
3k0!xt7;64;False;2;P != T2?;ST1_high_3;1;Same;high;70;96;70;j;n;0;f;n;558.0724999890663
3k0!xt7;65;False;2;P != T1?;ST2_high_3;2;Same;high;70;96;96;j;n;0;f;n;432.5286000093911
3k0!xt7;66;False;2;P != T1?;ST2_low_3;2;Same;low;70;112;112;j;n;1;j;v;2560.6845000002068
3k0!xt7;67;False;2;P != T2?;STb_8;0;Same;None;180;180;180;j;n;1;f;n;5250.529700002517
3k0!xt7;68;False;2;P != T2?;ST2_high_4;2;Same;high;96;70;70;j;n;1;f;n;500.99620000401046
3k0!xt7;69;False;2;P != T2?;ST2_low_6;2;Same;low;154;96;96;j;n;1;f;b;1751.0984999971697
3k0!xt7;70;False;2;P != T2?;ST1_low_1;1;Same;low;82;132;82;j;n;1;j;n;2103.629599994747
3k0!xt7;71;False;2;P != T2?;STb_6;0;Same;None;132;132;132;j;n;1;f;n;2747.1896999923047
3k0!xt7;72;False;2;P != T1?;DT2_low_5;2;Different;low;96;154;180;j;n;0;f;n;1453.2598000077996
3k0!xt7;73;False;2;P != T2?;ST1_high_5;1;Same;high;96;132;96;j;n;1;j;v;2081.426199991256
3k0!xt7;74;False;2;P != T2?;STb_5;0;Same;None;112;112;112;j;n;1;f;n;957.3709999967832
3k0!xt7;75;False;2;P != T1?;ST2_high_6;2;Same;high;132;96;96;j;n;0;f;b;2383.5436000081245
3k0!xt7;76;False;2;P != T2?;ST1_high_3;1;Same;high;70;96;70;j;n;0;f;n;1087.5150000065332
3k0!xt7;77;False;2;P != T2?;ST1_low_3;1;Same;low;70;112;70;j;n;1;j;n;2050.3046000085305
3k0!xt7;78;False;2;P != T2?;ST2_high_1;2;Same;high;82;112;112;j;n;1;f;b;2144.736300004297
3k0!xt7;79;False;2;P != T2?;ST2_low_2;2;Same;low;132;82;82;j;n;0;j;b;2791.4497000019765
3k0!xt7;80;False;2;P != T2?;ST1_low_5;1;Same;low;96;154;96;j;n;1;j;v;10159.612700008438
3k0!xt7;81;False;2;P != T1?;ST2_high_3;2;Same;high;70;96;96;j;n;0;f;n;1306.3082000007853
3k0!xt7;82;False;2;P != T2?;ST2_high_5;2;Same;high;96;132;132;j;n;1;f;n;2761.037899996154
3k0!xt7;83;False;2;P != T2?;ST1_low_6;1;Same;low;154;96;154;j;n;1;j;n;2178.0008999921847
3k0!xt7;84;False;2;P != T1?;ST1_high_5;1;Same;high;96;132;96;j;n;1;f;n;810.6786000134889
3k0!xt7;85;False;2;P != T2?;ST2_low_1;2;Same;low;82;132;132;j;n;1;f;v;10979.083199999877
3k0!xt7;86;False;2;P != T1?;ST1_high_6;1;Same;high;132;96;132;j;n;1;f;n;5228.687400012859
3k0!xt7;87;False;2;P != T1?;ST1_low_5;1;Same;low;96;154;96;j;n;1;f;n;3469.050800005789
3k0!xt7;88;False;2;P != T1?;ST1_high_2;1;Same;high;112;82;112;j;n;0;j;n;1752.7679999911925
3k0!xt7;89;False;2;P != T2?;ST1_high_4;1;Same;high;96;70;96;j;n;1;j;v;2244.082299992442
3k0!xt7;90;False;2;P != T2?;ST1_high_5;1;Same;high;96;132;96;j;n;0;f;b;4611.733300000196
3k0!xt7;91;False;2;P != T2?;STb_4;0;Same;None;96;96;96;j;n;1;f;b;1157.2184999968158
3k0!xt7;92;False;2;P != T1?;STb_6;0;Same;None;132;132;132;j;n;1;f;n;787.734300000011
3k0!xt7;93;False;2;P != T1?;DT1_low_2;1;Different;low;132;82;154;j;n;1;j;b;1033.8389999960782
3k0!xt7;94;False;2;P != T2?;DT2_high_5;2;Different;high;96;132;154;j;n;0;f;v;1926.3056000054348
3k0!xt7;95;False;2;P != T1?;STb_4;0;Same;None;96;96;96;j;n;1;f;n;634.532299998682
3k0!xt7;96;False;2;P != T1?;ST1_high_6;1;Same;high;132;96;132;j;n;1;f;v;3920.618399992236
3k0!xt7;97;False;2;P != T1?;ST2_high_3;2;Same;high;70;96;96;j;n;0;f;b;1742.5775000010617
3k0!xt7;98;False;2;P != T1?;ST1_high_4;1;Same;high;96;70;96;j;n;1;f;b;2058.257800003048
3k0!xt7;99;False;2;P != T2?;ST1_low_3;1;Same;low;70;112;70;j;n;1;j;n;4962.397399998736
3k0!xt7;100;False;2;P != T1?;ST2_low_6;2;Same;low;154;96;96;j;n;0;f;n;2003.1703999993624
3k0!xt7;101;False;2;P != T1?;ST2_low_5;2;Same;low;96;154;154;j;n;1;j;n;1239.3702999979723
3k0!xt7;102;False;2;P != T1?;ST1_high_3;1;Same;high;70;96;70;j;n;1;f;n;444.4233999965945
3k0!xt7;103;False;2;P != T2?;ST2_high_4;2;Same;high;96;70;70;j;n;1;f;v;3971.483300003456
3k0!xt7;104;False;2;P != T1?;ST1_high_5;1;Same;high;96;132;96;j;n;1;f;v;2798.3608999929857
3k0!xt7;105;False;2;P != T1?;ST1_low_3;1;Same;low;70;112;70;j;n;1;f;v;7788.390499990783
3k0!xt7;106;False;2;P != T1?;ST1_low_2;1;Same;low;132;82;132;j;n;0;j;b;2813.658700004453
3k0!xt7;107;False;2;P != T2?;STb_1;0;Same;None;60;60;60;j;n;1;f;n;429.1038999945158
3k0!xt7;108;False;2;P != T2?;ST2_low_6;2;Same;low;154;96;96;j;n;1;f;n;1277.6821999868844
3k0!xt7;109;False;2;P != T1?;ST1_high_5;1;Same;high;96;132;96;j;n;1;f;b;8234.883099998115
3k0!xt7;110;False;2;P != T1?;DT1_high_6;1;Different;high;132;96;154;j;n;0;f;b;4062.880599987693
3k0!xt7;111;False;2;P != T1?;ST1_low_5;1;Same;low;96;154;96;j;n;1;f;v;1772.0767999999225
3k0!xt7;112;False;2;P != T1?;ST2_high_4;2;Same;high;96;70;70;j;n;1;j;n;1591.7810999962967
3k0!xt7;113;False;2;P != T1?;DT2_high_1;2;Different;high;82;112;132;j;n;1;j;b;2742.590099995141
3k0!xt7;114;False;2;P != T1?;ST1_high_4;1;Same;high;96;70;96;j;n;0;j;n;4466.419100004714
3k0!xt7;115;False;2;P != T2?;ST2_high_1;2;Same;high;82;112;112;j;n;1;f;n;533.8613999920199
3k0!xt7;116;False;2;P != T2?;ST2_high_5;2;Same;high;96;132;132;j;n;1;f;n;1385.804100005771
3k0!xt7;117;False;2;P != T1?;ST1_low_3;1;Same;low;70;112;70;j;n;0;j;b;2499.2715999978827
3k0!xt7;118;False;2;P != T1?;ST2_high_2;2;Same;high;112;82;82;j;n;1;j;n;2071.7148999974597
3k0!xt7;119;False;2;P != T1?;ST1_low_4;1;Same;low;112;70;112;j;n;0;j;n;2557.6287000003504
3k0!xt7;120;False;2;P != T1?;ST1_low_6;1;Same;low;154;96;154;j;n;0;j;b;3112.0235999987926
3k0!xt7;121;False;2;P != T2?;ST2_low_5;2;Same;low;96;154;154;j;n;1;f;n;1826.2110999930883
3k0!xt7;122;False;2;P != T2?;ST1_high_2;1;Same;high;112;82;112;j;n;0;f;n;357.8369000024395
3k0!xt7;123;False;2;P != T2?;ST1_high_6;1;Same;high;132;96;132;j;n;1;j;n;1309.329700001399
3k0!xt7;124;False;2;P != T2?;ST1_low_5;1;Same;low;96;154;96;j;n;0;f;v;1145.5440999998245
3k0!xt7;125;False;2;P != T2?;DT2_low_6;2;Different;low;154;96;82;j;n;0;f;v;1792.4686999904225
3k0!xt7;126;False;2;P != T2?;ST2_high_2;2;Same;high;112;82;82;j;n;1;f;n;2274.117399996612
3k0!xt7;127;False;2;P != T1?;ST2_low_4;2;Same;low;112;70;70;j;n;1;j;v;8543.915700007346
3k0!xt7;128;False;2;P != T2?;ST2_high_3;2;Same;high;70;96;96;j;n;1;f;b;1521.5878000017256
3k0!xt7;129;False;2;P != T1?;STb_5;0;Same;None;112;112;112;j;n;0;j;v;2122.6085999951465
3k0!xt7;130;False;2;P != T2?;ST2_high_2;2;Same;high;112;82;82;j;n;1;f;n;338.6030999972718
3k0!xt7;131;False;2;P != T2?;ST1_low_1;1;Same;low;82;132;82;j;n;1;j;n;731.8271999974968
3k0!xt7;132;False;2;P != T2?;STb_3;0;Same;None;82;82;82;j;n;1;f;n;783.632899998338
3k0!xt7;133;False;2;P != T1?;ST2_low_3;2;Same;low;70;112;112;j;n;1;j;b;1670.5776000017067
3k0!xt7;134;False;2;P != T2?;ST2_low_1;2;Same;low;82;132;132;j;n;1;f;b;1424.9669999990147
3k0!xt7;135;False;2;P != T1?;ST2_low_3;2;Same;low;70;112;112;j;n;1;j;b;3025.967599998694
3k0!xt7;136;False;2;P != T1?;STb_7;0;Same;None;154;154;154;j;n;1;f;n;391.93040000100154
3k0!xt7;137;False;2;P != T2?;ST1_low_4;1;Same;low;112;70;112;j;n;0;f;n;1742.7258999960031
3k0!xt7;138;False;2;P != T1?;ST1_low_1;1;Same;low;82;132;82;j;n;0;j;v;1287.8766999929212
3k0!xt7;139;False;2;P != T2?;ST2_high_6;2;Same;high;132;96;96;j;n;1;f;n;6898.387299996102
3k0!xt7;140;False;2;P != T1?;ST2_low_5;2;Same;low;96;154;154;j;n;1;j;n;2016.8070000072476
3k0!xt7;141;False;2;P != T2?;DT2_high_6;2;Different;high;132;96;82;j;n;0;f;n;1464.5047999947565
3k0!xt7;142;False;2;P != T2?;ST1_high_1;1;Same;high;82;112;82;j;n;1;j;n;1209.6130999998422
3k0!xt7;143;False;2;P != T2?;ST1_low_6;1;Same;low;154;96;154;j;n;1;j;v;3411.5637999930186
3k0!xt7;144;False;2;P != T2?;ST1_high_6;1;Same;high;132;96;132;j;n;1;j;v;4652.078599989181
3k0!xt7;145;False;2;P != T1?;ST1_high_2;1;Same;high;112;82;112;j;n;1;f;n;1835.0610999914352
3k0!xt7;146;False;2;P != T1?;ST2_low_4;2;Same;low;112;70;70;j;n;1;j;b;1761.985299992375
3k0!xt7;147;False;2;P != T2?;STb_2;0;Same;None;70;70;70;j;n;1;f;n;502.46079999487847
3k0!xt7;148;False;2;P != T2?;ST2_low_5;2;Same;low;96;154;154;j;n;1;f;n;1179.0519999922253
3k0!xt7;149;False;2;P != T1?;ST2_low_1;2;Same;low;82;132;132;j;n;1;j;n;14529.96680000797
3k0!xt7;150;False;2;P != T2?;ST1_high_2;1;Same;high;112;82;112;j;n;0;f;n;379.9275000055786
3k0!xt7;151;False;2;P != T1?;STb_3;0;Same;None;82;82;82;j;n;1;f;n;741.1873999953968
3k0!xt7;152;False;2;P != T2?;ST1_high_1;1;Same;high;82;112;82;j;n;1;j;n;1095.7041999936337
3k0!xt7;153;False;2;P != T2?;ST1_high_1;1;Same;high;82;112;82;j;n;0;f;v;3513.0970000027446
3k0!xt7;154;False;2;P != T1?;ST2_low_4;2;Same;low;112;70;70;j;n;0;f;n;2104.4210999971256
3k0!xt7;155;False;2;P != T2?;ST2_high_2;2;Same;high;112;82;82;j;n;1;f;n;1579.7349000058603
3k0!xt7;156;False;2;P != T1?;ST2_low_1;2;Same;low;82;132;132;j;n;0;f;b;7995.736099997885
3k0!xt7;157;False;2;P != T2?;ST2_high_3;2;Same;high;70;96;96;j;n;1;f;n;2955.5793999898015
3k0!xt7;158;False;2;P != T1?;ST1_low_1;1;Same;low;82;132;82;j;n;1;f;v;3380.601500000921
3k0!xt7;159;False;2;P != T2?;ST2_high_6;2;Same;high;132;96;96;j;n;1;f;n;2150.378599995747
3k0!xt7;160;False;2;P != T2?;DT2_low_2;2;Different;low;132;82;70;j;n;0;f;n;1203.5063999937847
3k0!xt7;161;False;2;P != T1?;ST1_high_6;1;Same;high;132;96;132;j;n;1;f;n;1475.4204000055324
3k0!xt7;162;False;2;P != T1?;ST2_low_1;2;Same;low;82;132;132;j;n;1;j;n;4919.261699993513
3k0!xt7;163;False;2;P != T2?;ST1_high_6;1;Same;high;132;96;132;j;n;1;j;n;1263.4019000106491
3k0!xt7;164;False;2;P != T1?;ST1_high_1;1;Same;high;82;112;82;j;n;1;f;n;901.5319000027375
3k0!xt7;165;False;2;P != T1?;DT1_high_5;1;Different;high;96;132;82;j;n;1;j;n;939.7515000018757
3k0!xt7;166;False;2;P != T2?;ST2_low_3;2;Same;low;70;112;112;j;n;1;f;n;1437.4397999927169
3k0!xt7;167;False;2;P != T2?;ST2_low_6;2;Same;low;154;96;96;j;n;1;f;n;1265.056000003824
3k0!xt7;168;False;2;P != T1?;ST2_high_4;2;Same;high;96;70;70;j;n;0;f;b;2426.087500003632
3k0!xt7;169;False;2;P != T2?;ST1_high_4;1;Same;high;96;70;96;j;n;1;j;v;2509.7168999927817
3k0!xt7;170;False;2;P != T1?;ST1_low_1;1;Same;low;82;132;82;j;n;0;j;v;4009.506800008239
3k0!xt7;171;False;2;P != T1?;ST2_high_1;2;Same;high;82;112;112;j;n;1;j;v;4825.431299992488
3k0!xt7;172;False;2;P != T2?;ST2_low_2;2;Same;low;132;82;82;j;n;1;f;n;1838.6442000046372
3k0!xt7;173;False;2;P != T2?;DT1_low_5;1;Different;low;96;154;82;j;n;1;j;n;9108.490099999472
3k0!xt7;174;False;2;P != T1?;DT2_low_2;2;Different;low;132;82;70;j;n;1;j;n;1020.672900005593
3k0!xt7;175;False;2;P != T2?;ST2_low_1;2;Same;low;82;132;132;j;n;1;f;n;2485.0874000112526
3k0!xt7;176;False;2;P != T2?;DT1_low_1;1;Different;low;82;132;70;j;n;1;j;n;1478.6298999970313
