p_code;trial_nr;practice;block;question;condition;seqPos;Same_or_Diff;ITS;T1_hz;T2_hz;P_hz;yes_key;sure_key;correct;yes_no;rating;resp_time
6yu!v08;1;True;1;P != T2?;DT1_high_2;1;Different;high;112;82;132;j;n;1;j;b;1399.5001000002958
6yu!v08;2;True;1;P != T2?;ST2_high_3;2;Same;high;70;96;96;j;n;1;f;b;2144.088300000476
6yu!v08;3;True;1;P != T1?;ST1_high_2;1;Same;high;112;82;112;j;n;0;j;b;729.5204000001831
6yu!v08;4;True;1;P != T1?;ST2_high_6;2;Same;high;132;96;96;j;n;1;j;b;2137.917000000016
6yu!v08;5;True;1;P != T1?;STb_5;0;Same;None;112;112;112;j;n;0;j;b;1358.5461000002397
6yu!v08;6;True;1;P != T1?;DT2_high_5;2;Different;high;96;132;154;j;n;1;j;b;1036.2627000004068
6yu!v08;7;True;1;P != T1?;ST2_low_6;2;Same;low;154;96;96;j;n;0;f;b;879.5354000003499
6yu!v08;8;True;1;P != T1?;STb_1;0;Same;None;60;60;60;j;n;0;j;b;282.797799999571
6yu!v08;9;True;1;P != T2?;ST2_high_6;2;Same;high;132;96;96;j;n;0;j;b;1238.1006999994497
6yu!v08;10;True;1;P != T2?;DT2_low_1;2;Different;low;82;132;154;j;n;0;f;b;1221.2178999998287
6yu!v08;11;True;1;P != T2?;ST1_high_4;1;Same;high;96;70;96;j;n;0;f;b;1469.9102000004132
6yu!v08;12;True;1;P != T1?;ST1_high_6;1;Same;high;132;96;132;j;n;0;j;b;2411.843100000624
6yu!v08;13;True;1;P != T1?;DT2_high_4;2;Different;high;96;70;60;j;n;1;j;b;1613.1775000003472
6yu!v08;14;True;1;P != T2?;STb_1;0;Same;None;60;60;60;j;n;0;j;b;332.3804999999993
6yu!v08;15;True;1;P != T2?;ST1_high_2;1;Same;high;112;82;112;j;n;0;f;b;586.0598999997819
6yu!v08;16;True;1;P != T2?;STb_2;0;Same;None;70;70;70;j;n;1;f;b;1711.6266000002724
p_code;trial_nr;practice;block;question;condition;seqPos;Same_or_Diff;ITS;T1_hz;T2_hz;P_hz;yes_key;sure_key;correct;yes_no;rating;resp_time
6yu!v08;1;False;1;P != T1?;DT1_low_1;1;Different;low;82;132;70;j;n;1;j;b;451.49880000008125
6yu!v08;2;False;1;P != T1?;ST1_low_2;1;Same;low;132;82;132;j;n;0;j;b;1616.9864000003145
6yu!v08;3;False;1;P != T1?;ST2_high_3;2;Same;high;70;96;96;j;n;1;j;v;2663.978299999144
6yu!v08;4;False;1;P != T2?;ST2_low_1;2;Same;low;82;132;132;j;n;1;f;b;3217.981900000268
6yu!v08;5;False;1;P != T2?;ST2_high_5;2;Same;high;96;132;132;j;n;1;f;b;878.9103999997678
6yu!v08;6;False;1;P != T1?;DT2_low_6;2;Different;low;154;96;82;j;n;0;f;b;1242.7487000004476
6yu!v08;7;False;1;P != T2?;ST2_low_2;2;Same;low;132;82;82;j;n;1;f;b;1731.663600000502
6yu!v08;8;False;1;P != T1?;ST2_low_4;2;Same;low;112;70;70;j;n;0;f;b;1069.8338000001968
6yu!v08;9;False;1;P != T2?;STb_5;0;Same;None;112;112;112;j;n;0;j;b;1011.3031000000774
6yu!v08;10;False;1;P != T1?;STb_3;0;Same;None;82;82;82;j;n;0;j;n;2729.1760000007343
6yu!v08;11;False;1;P != T1?;ST2_low_1;2;Same;low;82;132;132;j;n;1;j;b;533.5812000002988
6yu!v08;12;False;1;P != T2?;ST2_high_4;2;Same;high;96;70;70;j;n;1;f;b;1170.9712000001673
6yu!v08;13;False;1;P != T2?;ST2_low_3;2;Same;low;70;112;112;j;n;1;f;n;1040.8495000001494
6yu!v08;14;False;1;P != T2?;ST2_low_5;2;Same;low;96;154;154;j;n;1;f;n;1230.7418000000325
6yu!v08;15;False;1;P != T1?;ST2_low_2;2;Same;low;132;82;82;j;n;0;f;n;2252.7681999999913
6yu!v08;16;False;1;P != T2?;ST2_low_2;2;Same;low;132;82;82;j;n;0;j;v;1685.3179999998247
6yu!v08;17;False;1;P != T1?;ST2_low_1;2;Same;low;82;132;132;j;n;1;j;b;3098.322900000312
6yu!v08;18;False;1;P != T2?;DT2_high_6;2;Different;high;132;96;82;j;n;1;j;b;1025.8591000001616
6yu!v08;19;False;1;P != T1?;ST2_high_6;2;Same;high;132;96;96;j;n;1;j;b;2022.7050000003146
6yu!v08;20;False;1;P != T2?;STb_3;0;Same;None;82;82;82;j;n;0;j;v;4494.791799999803
6yu!v08;21;False;1;P != T2?;ST2_low_5;2;Same;low;96;154;154;j;n;0;j;b;896.2056000000302
6yu!v08;22;False;1;P != T2?;ST1_low_6;1;Same;low;154;96;154;j;n;0;f;b;3456.6963999996005
6yu!v08;23;False;1;P != T1?;DT2_low_4;2;Different;low;112;70;60;j;n;0;f;n;1539.7011999993993
6yu!v08;24;False;1;P != T2?;ST2_high_2;2;Same;high;112;82;82;j;n;0;j;b;958.6460000000443
6yu!v08;25;False;1;P != T2?;ST2_high_6;2;Same;high;132;96;96;j;n;0;j;n;683.2334999999148
6yu!v08;26;False;1;P != T1?;ST2_high_6;2;Same;high;132;96;96;j;n;1;j;n;1919.4346000003861
6yu!v08;27;False;1;P != T1?;ST1_low_4;1;Same;low;112;70;112;j;n;0;j;n;980.3174000007857
6yu!v08;28;False;1;P != T1?;ST2_high_4;2;Same;high;96;70;70;j;n;0;f;n;608.1855000002179
6yu!v08;29;False;1;P != T2?;ST2_low_2;2;Same;low;132;82;82;j;n;0;j;n;466.00130000024365
6yu!v08;30;False;1;P != T1?;ST1_high_6;1;Same;high;132;96;132;j;n;1;f;b;1348.5227000001032
6yu!v08;31;False;1;P != T1?;DT2_high_3;2;Different;high;70;96;112;j;n;1;j;b;5080.17160000054
6yu!v08;32;False;1;P != T1?;ST2_low_3;2;Same;low;70;112;112;j;n;1;j;b;2113.742900000034
6yu!v08;33;False;1;P != T2?;ST1_high_1;1;Same;high;82;112;82;j;n;0;f;b;713.2189000003564
6yu!v08;34;False;1;P != T1?;ST1_high_3;1;Same;high;70;96;70;j;n;0;j;b;2009.2358000001695
6yu!v08;35;False;1;P != T2?;ST1_low_6;1;Same;low;154;96;154;j;n;0;f;b;750.836199999867
6yu!v08;36;False;1;P != T1?;STb_2;0;Same;None;70;70;70;j;n;0;j;n;1486.3594000007652
6yu!v08;37;False;1;P != T1?;ST2_high_5;2;Same;high;96;132;132;j;n;1;j;b;1705.0238000001627
6yu!v08;38;False;1;P != T2?;ST1_high_4;1;Same;high;96;70;96;j;n;0;f;v;1648.2702000002973
6yu!v08;39;False;1;P != T2?;ST1_low_2;1;Same;low;132;82;132;j;n;0;f;b;1798.8591000002998
6yu!v08;40;False;1;P != T1?;ST2_high_6;2;Same;high;132;96;96;j;n;0;f;v;1751.0843000000023
6yu!v08;41;False;1;P != T2?;ST1_high_5;1;Same;high;96;132;96;j;n;1;j;n;102.10630000074161
6yu!v08;42;False;1;P != T1?;ST1_low_6;1;Same;low;154;96;154;j;n;0;j;b;781.9317000003139
6yu!v08;43;False;1;P != T1?;ST1_low_3;1;Same;low;70;112;70;j;n;0;j;n;705.9272000005876
6yu!v08;44;False;1;P != T2?;DT2_high_3;2;Different;high;70;96;112;j;n;0;f;v;1154.8056000001452
6yu!v08;45;False;1;P != T1?;DT2_high_2;2;Different;high;112;82;70;j;n;0;f;v;470.5251000004864
6yu!v08;46;False;1;P != T1?;ST1_high_2;1;Same;high;112;82;112;j;n;0;j;b;508.3368999994491
6yu!v08;47;False;1;P != T1?;STb_4;0;Same;None;96;96;96;j;n;0;j;b;654.2008999995232
6yu!v08;48;False;1;P != T2?;ST1_low_2;1;Same;low;132;82;132;j;n;0;f;b;880.4801999995107
6yu!v08;49;False;1;P != T1?;ST2_low_6;2;Same;low;154;96;96;j;n;0;f;v;4557.495000000017
6yu!v08;50;False;1;P != T2?;DT2_low_4;2;Different;low;112;70;60;j;n;1;j;b;986.149899999873
6yu!v08;51;False;1;P != T2?;ST2_low_4;2;Same;low;112;70;70;j;n;0;j;n;248.8855000001422
6yu!v08;52;False;1;P != T1?;ST2_high_1;2;Same;high;82;112;112;j;n;1;j;n;462.71640000031766
6yu!v08;53;False;1;P != T2?;ST1_high_2;1;Same;high;112;82;112;j;n;1;j;n;718.1540999999925
6yu!v08;54;False;1;P != T2?;ST1_high_5;1;Same;high;96;132;96;j;n;0;f;b;762.4179000004006
6yu!v08;55;False;1;P != T1?;ST1_low_1;1;Same;low;82;132;82;j;n;0;j;b;1286.1429000004136
6yu!v08;56;False;1;P != T1?;ST2_low_1;2;Same;low;82;132;132;j;n;1;j;v;1456.629199999952
6yu!v08;57;False;1;P != T1?;ST1_high_1;1;Same;high;82;112;82;j;n;0;j;b;392.416200000298
6yu!v08;58;False;1;P != T2?;ST1_high_4;1;Same;high;96;70;96;j;n;0;f;b;746.9445999995514
6yu!v08;59;False;1;P != T2?;ST1_low_5;1;Same;low;96;154;96;j;n;0;f;b;1298.8418999993883
6yu!v08;60;False;1;P != T1?;ST2_low_5;2;Same;low;96;154;154;j;n;0;f;v;1004.1701000000103
6yu!v08;61;False;1;P != T1?;ST2_low_4;2;Same;low;112;70;70;j;n;0;f;b;2634.2211000001043
6yu!v08;62;False;1;P != T2?;ST1_low_2;1;Same;low;132;82;132;j;n;0;f;v;2237.6846999995905
6yu!v08;63;False;1;P != T1?;ST2_low_5;2;Same;low;96;154;154;j;n;1;j;b;1640.4709000007642
6yu!v08;64;False;1;P != T1?;ST2_low_3;2;Same;low;70;112;112;j;n;1;j;v;4262.914699999783
6yu!v08;65;False;1;P != T1?;ST2_high_2;2;Same;high;112;82;82;j;n;1;j;b;1542.8078000004462
6yu!v08;66;False;1;P != T2?;ST2_high_5;2;Same;high;96;132;132;j;n;1;f;b;2402.0283999998355
6yu!v08;67;False;1;P != T1?;STb_6;0;Same;None;132;132;132;j;n;0;j;b;865.404899999703
6yu!v08;68;False;1;P != T1?;STb_5;0;Same;None;112;112;112;j;n;0;j;b;2038.2358999995631
6yu!v08;69;False;1;P != T1?;ST1_low_5;1;Same;low;96;154;96;j;n;0;j;b;1528.0312000004415
6yu!v08;70;False;1;P != T2?;ST1_high_1;1;Same;high;82;112;82;j;n;0;f;b;547.9142000003776
6yu!v08;71;False;1;P != T2?;ST1_high_3;1;Same;high;70;96;70;j;n;0;f;b;891.6440000002694
6yu!v08;72;False;1;P != T2?;ST2_high_3;2;Same;high;70;96;96;j;n;1;f;b;918.3333000000857
6yu!v08;73;False;1;P != T1?;ST1_high_4;1;Same;high;96;70;96;j;n;0;j;n;268.57449999988603
6yu!v08;74;False;1;P != T1?;ST1_high_4;1;Same;high;96;70;96;j;n;0;j;b;1241.6190999992978
6yu!v08;75;False;1;P != T1?;ST2_high_1;2;Same;high;82;112;112;j;n;1;j;b;769.0141000002768
6yu!v08;76;False;1;P != T2?;ST2_high_4;2;Same;high;96;70;70;j;n;0;j;n;217.83080000022892
6yu!v08;77;False;1;P != T2?;ST1_low_1;1;Same;low;82;132;82;j;n;0;f;n;1153.5359999998036
6yu!v08;78;False;1;P != T2?;ST2_low_3;2;Same;low;70;112;112;j;n;0;j;b;1051.8853000003219
6yu!v08;79;False;1;P != T2?;DT1_high_1;1;Different;high;82;112;70;j;n;1;j;b;854.0239000003567
6yu!v08;80;False;1;P != T2?;ST1_high_5;1;Same;high;96;132;96;j;n;0;f;b;647.4084999999832
6yu!v08;81;False;1;P != T2?;ST2_high_1;2;Same;high;82;112;112;j;n;1;f;b;3343.775199999982
6yu!v08;82;False;1;P != T1?;ST2_high_4;2;Same;high;96;70;70;j;n;0;f;n;903.6135999995167
6yu!v08;83;False;1;P != T2?;ST1_high_6;1;Same;high;132;96;132;j;n;0;f;b;5446.640000000116
6yu!v08;84;False;1;P != T1?;ST1_low_4;1;Same;low;112;70;112;j;n;0;j;b;4477.756000000227
6yu!v08;85;False;1;P != T2?;ST1_low_4;1;Same;low;112;70;112;j;n;0;f;b;1664.8598000001584
6yu!v08;86;False;1;P != T2?;STb_1;0;Same;None;60;60;60;j;n;0;j;n;622.6676000005682
6yu!v08;87;False;1;P != T1?;ST1_high_3;1;Same;high;70;96;70;j;n;0;j;n;558.0633999998099
6yu!v08;88;False;1;P != T1?;ST1_high_1;1;Same;high;82;112;82;j;n;0;j;b;1086.0909999992145
6yu!v08;89;False;1;P != T2?;ST1_high_2;1;Same;high;112;82;112;j;n;1;j;b;788.6636999992334
6yu!v08;90;False;1;P != T2?;ST2_high_4;2;Same;high;96;70;70;j;n;0;j;b;6346.241899999768
6yu!v08;91;False;1;P != T2?;STb_6;0;Same;None;132;132;132;j;n;1;f;b;989.4778000007136
6yu!v08;92;False;1;P != T1?;ST1_high_1;1;Same;high;82;112;82;j;n;0;j;v;1107.1140000003652
6yu!v08;93;False;1;P != T2?;ST2_high_2;2;Same;high;112;82;82;j;n;0;j;n;280.1956000002974
6yu!v08;94;False;1;P != T1?;DT1_low_3;1;Different;low;70;112;60;j;n;0;f;b;733.6319999994885
6yu!v08;95;False;1;P != T1?;STb_8;0;Same;None;180;180;180;j;n;0;j;n;253.11920000058308
6yu!v08;96;False;1;P != T2?;ST2_low_1;2;Same;low;82;132;132;j;n;1;f;b;859.3547000000399
6yu!v08;97;False;1;P != T2?;ST2_low_4;2;Same;low;112;70;70;j;n;0;j;b;1023.8884000000326
6yu!v08;98;False;1;P != T1?;ST2_low_3;2;Same;low;70;112;112;j;n;0;f;v;3890.343799999755
6yu!v08;99;False;1;P != T1?;ST1_high_2;1;Same;high;112;82;112;j;n;0;j;b;547.067400000742
6yu!v08;100;False;1;P != T1?;ST1_high_5;1;Same;high;96;132;96;j;n;0;j;b;1324.6555999994598
6yu!v08;101;False;1;P != T1?;ST1_low_2;1;Same;low;132;82;132;j;n;0;j;b;5372.272900000098
6yu!v08;102;False;1;P != T2?;ST2_low_6;2;Same;low;154;96;96;j;n;0;j;v;2111.649899999975
6yu!v08;103;False;1;P != T2?;ST2_low_4;2;Same;low;112;70;70;j;n;0;j;n;527.2921000005226
6yu!v08;104;False;1;P != T1?;ST2_high_5;2;Same;high;96;132;132;j;n;0;f;b;915.8716000001732
6yu!v08;105;False;1;P != T2?;ST1_low_3;1;Same;low;70;112;70;j;n;0;f;b;732.1726999998646
6yu!v08;106;False;1;P != T2?;ST1_high_4;1;Same;high;96;70;96;j;n;1;j;b;1622.3328000005495
6yu!v08;107;False;1;P != T2?;ST1_high_3;1;Same;high;70;96;70;j;n;0;f;n;1568.635099999483
6yu!v08;108;False;1;P != T1?;ST2_high_5;2;Same;high;96;132;132;j;n;0;f;v;12293.778999999631
6yu!v08;109;False;1;P != T1?;STb_1;0;Same;None;60;60;60;j;n;0;j;n;296.72690000006696
6yu!v08;110;False;1;P != T2?;ST1_high_6;1;Same;high;132;96;132;j;n;1;j;b;2857.1382000000085
6yu!v08;111;False;1;P != T2?;ST1_high_3;1;Same;high;70;96;70;j;n;0;f;b;914.2486999999164
6yu!v08;112;False;1;P != T2?;ST1_low_1;1;Same;low;82;132;82;j;n;0;f;b;869.4308999993154
6yu!v08;113;False;1;P != T2?;DT1_low_6;1;Different;low;154;96;180;j;n;0;f;b;1279.3476999995619
6yu!v08;114;False;1;P != T2?;STb_4;0;Same;None;96;96;96;j;n;1;f;v;642.6033999996434
6yu!v08;115;False;1;P != T2?;ST1_low_1;1;Same;low;82;132;82;j;n;0;f;b;1746.390799999972
6yu!v08;116;False;1;P != T1?;ST2_low_5;2;Same;low;96;154;154;j;n;1;j;b;732.1487999997771
6yu!v08;117;False;1;P != T2?;ST2_low_6;2;Same;low;154;96;96;j;n;1;f;b;4623.416000000361
6yu!v08;118;False;1;P != T1?;ST1_low_5;1;Same;low;96;154;96;j;n;1;f;v;1289.7313000003123
6yu!v08;119;False;1;P != T2?;ST1_low_3;1;Same;low;70;112;70;j;n;1;j;b;2996.635900000001
6yu!v08;120;False;1;P != T2?;ST2_high_3;2;Same;high;70;96;96;j;n;0;j;b;973.5835999999836
6yu!v08;121;False;1;P != T1?;DT1_high_2;1;Different;high;112;82;132;j;n;1;j;v;2719.5535999999265
6yu!v08;122;False;1;P != T2?;STb_2;0;Same;None;70;70;70;j;n;0;j;n;175.74260000037611
6yu!v08;123;False;1;P != T1?;ST1_low_5;1;Same;low;96;154;96;j;n;0;j;b;536.3501000001634
6yu!v08;124;False;1;P != T1?;STb_7;0;Same;None;154;154;154;j;n;0;j;b;1566.0765000002357
6yu!v08;125;False;1;P != T1?;ST2_high_2;2;Same;high;112;82;82;j;n;0;f;b;1220.8768000000418
6yu!v08;126;False;1;P != T2?;ST2_high_1;2;Same;high;82;112;112;j;n;0;j;b;1822.618600000169
6yu!v08;127;False;1;P != T1?;DT1_low_4;1;Different;low;112;70;132;j;n;1;j;b;430.6741999998849
6yu!v08;128;False;1;P != T2?;ST2_high_6;2;Same;high;132;96;96;j;n;1;f;b;606.7487999998775
6yu!v08;129;False;1;P != T1?;ST2_high_4;2;Same;high;96;70;70;j;n;1;j;v;6385.7976999997845
6yu!v08;130;False;1;P != T2?;ST1_low_5;1;Same;low;96;154;96;j;n;0;f;b;2943.361900000127
6yu!v08;131;False;1;P != T1?;ST1_high_5;1;Same;high;96;132;96;j;n;0;j;b;1635.1872999994157
6yu!v08;132;False;1;P != T2?;ST1_high_6;1;Same;high;132;96;132;j;n;0;f;b;1355.8372000006784
6yu!v08;133;False;1;P != T2?;ST1_low_3;1;Same;low;70;112;70;j;n;0;f;b;673.9540000007764
6yu!v08;134;False;1;P != T2?;ST2_high_2;2;Same;high;112;82;82;j;n;1;f;v;640.3558000001794
6yu!v08;135;False;1;P != T1?;ST1_low_3;1;Same;low;70;112;70;j;n;1;f;b;2229.5702999999776
6yu!v08;136;False;1;P != T1?;ST1_low_3;1;Same;low;70;112;70;j;n;0;j;b;778.4597999998368
6yu!v08;137;False;1;P != T1?;ST1_high_3;1;Same;high;70;96;70;j;n;0;j;v;3218.631299999288
6yu!v08;138;False;1;P != T1?;ST2_low_2;2;Same;low;132;82;82;j;n;1;j;b;2647.713900000781
6yu!v08;139;False;1;P != T1?;ST2_high_3;2;Same;high;70;96;96;j;n;1;j;n;373.8755000003948
6yu!v08;140;False;1;P != T2?;ST1_low_4;1;Same;low;112;70;112;j;n;0;f;b;4720.3160999997635
6yu!v08;141;False;1;P != T2?;ST2_low_6;2;Same;low;154;96;96;j;n;0;j;b;5720.350700000381
6yu!v08;142;False;1;P != T1?;ST2_high_3;2;Same;high;70;96;96;j;n;1;j;n;999.623600000632
6yu!v08;143;False;1;P != T1?;ST1_high_6;1;Same;high;132;96;132;j;n;0;j;n;3013.472100000399
6yu!v08;144;False;1;P != T1?;ST2_low_4;2;Same;low;112;70;70;j;n;1;j;v;1085.6567000000723
6yu!v08;145;False;1;P != T1?;ST1_low_1;1;Same;low;82;132;82;j;n;0;j;b;298.90489999979764
6yu!v08;146;False;1;P != T2?;ST1_low_6;1;Same;low;154;96;154;j;n;0;f;n;1237.8372000002855
6yu!v08;147;False;1;P != T1?;ST2_low_6;2;Same;low;154;96;96;j;n;0;f;n;929.6133999996528
6yu!v08;148;False;1;P != T2?;STb_7;0;Same;None;154;154;154;j;n;0;j;v;1888.6365999996997
6yu!v08;149;False;1;P != T1?;ST1_low_2;1;Same;low;132;82;132;j;n;0;j;b;2341.9913000007
6yu!v08;150;False;1;P != T2?;ST2_high_5;2;Same;high;96;132;132;j;n;0;j;b;3502.8137999997853
6yu!v08;151;False;1;P != T2?;ST2_low_1;2;Same;low;82;132;132;j;n;1;f;b;4890.972999999576
6yu!v08;152;False;1;P != T1?;ST1_high_5;1;Same;high;96;132;96;j;n;1;f;b;918.4611999999106
6yu!v08;153;False;1;P != T2?;ST2_high_6;2;Same;high;132;96;96;j;n;0;j;v;873.1507000002239
6yu!v08;154;False;1;P != T1?;ST1_high_2;1;Same;high;112;82;112;j;n;0;j;b;1820.8481000001484
6yu!v08;155;False;1;P != T2?;ST1_low_5;1;Same;low;96;154;96;j;n;0;f;n;708.1678999993528
6yu!v08;156;False;1;P != T1?;ST2_high_1;2;Same;high;82;112;112;j;n;1;j;n;288.4639000003517
6yu!v08;157;False;1;P != T2?;ST2_low_5;2;Same;low;96;154;154;j;n;1;f;n;541.1473999993177
6yu!v08;158;False;1;P != T2?;ST2_low_3;2;Same;low;70;112;112;j;n;1;f;b;927.9372999999396
6yu!v08;159;False;1;P != T2?;ST2_high_3;2;Same;high;70;96;96;j;n;0;j;b;877.4966999999378
6yu!v08;160;False;1;P != T2?;ST1_high_2;1;Same;high;112;82;112;j;n;1;j;v;1801.0851999997612
6yu!v08;161;False;1;P != T1?;ST1_low_1;1;Same;low;82;132;82;j;n;0;j;b;4308.910700000524
6yu!v08;162;False;1;P != T2?;ST2_high_1;2;Same;high;82;112;112;j;n;0;j;n;306.7198999997345
6yu!v08;163;False;1;P != T1?;ST1_high_6;1;Same;high;132;96;132;j;n;0;j;v;8766.659300000356
6yu!v08;164;False;1;P != T2?;DT1_low_2;1;Different;low;132;82;154;j;n;0;f;b;798.8637999997081
6yu!v08;165;False;1;P != T1?;ST2_high_2;2;Same;high;112;82;82;j;n;1;j;v;3377.5288000006185
6yu!v08;166;False;1;P != T1?;ST1_low_6;1;Same;low;154;96;154;j;n;0;j;b;448.0007000001933
6yu!v08;167;False;1;P != T2?;STb_8;0;Same;None;180;180;180;j;n;1;f;b;6468.219399999725
6yu!v08;168;False;1;P != T1?;ST1_low_6;1;Same;low;154;96;154;j;n;0;j;b;4853.993699999592
6yu!v08;169;False;1;P != T2?;ST1_high_1;1;Same;high;82;112;82;j;n;0;f;v;1271.7204000000493
6yu!v08;170;False;1;P != T1?;ST1_low_4;1;Same;low;112;70;112;j;n;0;j;b;1200.9188000001814
6yu!v08;171;False;1;P != T2?;ST1_low_4;1;Same;low;112;70;112;j;n;0;f;b;887.2246999999334
6yu!v08;172;False;1;P != T2?;DT2_high_2;2;Different;high;112;82;70;j;n;1;j;b;995.0152000001253
6yu!v08;173;False;1;P != T1?;ST2_low_6;2;Same;low;154;96;96;j;n;1;j;v;7835.811400000239
6yu!v08;174;False;1;P != T1?;ST1_high_4;1;Same;high;96;70;96;j;n;1;f;b;850.6688000006761
6yu!v08;175;False;1;P != T1?;ST2_low_2;2;Same;low;132;82;82;j;n;1;j;b;1152.103100000204
6yu!v08;176;False;1;P != T2?;DT1_high_4;1;Different;high;96;70;112;j;n;0;f;b;781.5732999997635
6yu!v08;1;True;2;P = T2?;ST2_high_5;2;Same;high;96;132;132;j;n;1;j;n;694.5493000002898
6yu!v08;2;True;2;P = T1?;ST2_low_4;2;Same;low;112;70;70;j;n;1;f;n;879.2500999998083
6yu!v08;3;True;2;P = T1?;DT1_low_5;1;Different;low;96;154;82;j;n;0;j;n;526.645599999938
6yu!v08;4;True;2;P = T2?;STb_3;0;Same;None;82;82;82;j;n;0;f;v;1829.3328999998266
6yu!v08;5;True;2;P = T2?;ST2_low_6;2;Same;low;154;96;96;j;n;0;f;b;4440.4365000000325
6yu!v08;6;True;2;P = T1?;ST1_high_6;1;Same;high;132;96;132;j;n;1;j;n;1969.251799999256
6yu!v08;7;True;2;P = T2?;ST1_low_1;1;Same;low;82;132;82;j;n;1;f;b;1340.4947999997603
6yu!v08;8;True;2;P = T2?;DT2_low_4;2;Different;low;112;70;60;j;n;0;j;n;2052.619699999923
6yu!v08;9;True;2;P = T2?;DT1_high_5;1;Different;high;96;132;82;j;n;1;f;b;3682.257899999968
6yu!v08;10;True;2;P = T1?;DT1_low_3;1;Different;low;70;112;60;j;n;0;j;b;1054.518700000699
6yu!v08;11;True;2;P = T1?;ST2_low_2;2;Same;low;132;82;82;j;n;1;f;v;2102.115500000764
6yu!v08;12;True;2;P = T1?;STb_3;0;Same;None;82;82;82;j;n;1;j;n;114.55250000017259
6yu!v08;13;True;2;P = T2?;STb_2;0;Same;None;70;70;70;j;n;1;j;b;3315.6324000001405
6yu!v08;14;True;2;P = T2?;ST1_high_5;1;Same;high;96;132;96;j;n;1;f;b;1087.8406000001632
6yu!v08;15;True;2;P = T1?;ST1_high_3;1;Same;high;70;96;70;j;n;1;j;v;994.590799999969
6yu!v08;16;True;2;P = T1?;STb_2;0;Same;None;70;70;70;j;n;1;j;n;428.3252999994147
6yu!v08;1;False;2;P = T1?;ST1_low_5;1;Same;low;96;154;96;j;n;1;j;b;468.71289999944565
6yu!v08;2;False;2;P = T2?;ST1_high_1;1;Same;high;82;112;82;j;n;1;f;b;5175.550100000692
6yu!v08;3;False;2;P = T1?;ST1_high_6;1;Same;high;132;96;132;j;n;0;f;b;623.5043000006044
6yu!v08;4;False;2;P = T2?;ST2_high_6;2;Same;high;132;96;96;j;n;1;j;b;1067.8508999999394
6yu!v08;5;False;2;P = T1?;ST2_high_6;2;Same;high;132;96;96;j;n;0;j;b;4.014699999970617
6yu!v08;6;False;2;P = T2?;DT2_low_1;2;Different;low;82;132;154;j;n;1;f;b;1979.8676000000341
6yu!v08;7;False;2;P = T2?;ST1_low_5;1;Same;low;96;154;96;j;n;1;f;b;6331.877699999495
6yu!v08;8;False;2;P = T2?;ST2_high_3;2;Same;high;70;96;96;j;n;1;j;n;446.7037000003984
6yu!v08;9;False;2;P = T2?;ST2_high_2;2;Same;high;112;82;82;j;n;0;f;v;6389.8927000000185
6yu!v08;10;False;2;P = T1?;ST1_low_2;1;Same;low;132;82;132;j;n;1;j;b;562.2448000003715
6yu!v08;11;False;2;P = T1?;STb_7;0;Same;None;154;154;154;j;n;1;j;b;563.1201999995028
6yu!v08;12;False;2;P = T2?;STb_1;0;Same;None;60;60;60;j;n;1;j;n;262.5221000007514
6yu!v08;13;False;2;P = T2?;DT2_high_3;2;Different;high;70;96;112;j;n;1;f;b;1274.2352000004757
6yu!v08;14;False;2;P = T2?;ST2_high_3;2;Same;high;70;96;96;j;n;1;j;b;706.4922999998089
6yu!v08;15;False;2;P = T1?;ST2_low_6;2;Same;low;154;96;96;j;n;1;f;b;901.0091999998622
6yu!v08;16;False;2;P = T1?;ST1_low_5;1;Same;low;96;154;96;j;n;1;j;v;2016.1910000006174
6yu!v08;17;False;2;P = T1?;ST1_low_6;1;Same;low;154;96;154;j;n;1;j;b;2240.643600000112
6yu!v08;18;False;2;P = T2?;ST2_low_5;2;Same;low;96;154;154;j;n;0;f;b;646.7986999996356
6yu!v08;19;False;2;P = T2?;ST2_low_2;2;Same;low;132;82;82;j;n;0;f;v;2218.321299999843
6yu!v08;20;False;2;P = T2?;ST1_high_5;1;Same;high;96;132;96;j;n;1;f;v;5275.988499999585
6yu!v08;21;False;2;P = T2?;ST2_high_2;2;Same;high;112;82;82;j;n;0;f;b;1327.8054000002157
6yu!v08;22;False;2;P = T1?;ST2_low_5;2;Same;low;96;154;154;j;n;0;j;b;3713.180900000225
6yu!v08;23;False;2;P = T2?;STb_8;0;Same;None;180;180;180;j;n;0;f;v;1133.0297000004066
6yu!v08;24;False;2;P = T1?;ST2_high_3;2;Same;high;70;96;96;j;n;0;j;v;768.7405999995462
6yu!v08;25;False;2;P = T2?;ST2_low_4;2;Same;low;112;70;70;j;n;1;j;n;627.9795000000377
6yu!v08;26;False;2;P = T1?;ST1_high_3;1;Same;high;70;96;70;j;n;1;j;b;1564.1633999994156
6yu!v08;27;False;2;P = T2?;ST2_high_4;2;Same;high;96;70;70;j;n;0;f;b;1522.5337000001673
6yu!v08;28;False;2;P = T1?;ST2_low_6;2;Same;low;154;96;96;j;n;1;f;b;4250.48120000065
6yu!v08;29;False;2;P = T2?;ST1_low_1;1;Same;low;82;132;82;j;n;0;j;v;317.0921000000817
6yu!v08;30;False;2;P = T1?;ST2_high_2;2;Same;high;112;82;82;j;n;0;j;n;903.852100000222
6yu!v08;31;False;2;P = T1?;ST1_high_2;1;Same;high;112;82;112;j;n;1;j;n;1867.5865000004706
6yu!v08;32;False;2;P = T2?;STb_6;0;Same;None;132;132;132;j;n;1;j;v;3017.922200000612
6yu!v08;33;False;2;P = T2?;ST2_high_5;2;Same;high;96;132;132;j;n;0;f;b;2695.5552999997963
6yu!v08;34;False;2;P = T2?;ST1_high_4;1;Same;high;96;70;96;j;n;1;f;b;780.3223999999318
6yu!v08;35;False;2;P = T1?;ST2_low_2;2;Same;low;132;82;82;j;n;0;j;b;640.4216999999335
6yu!v08;36;False;2;P = T1?;ST2_high_6;2;Same;high;132;96;96;j;n;0;j;n;626.4930999996068
6yu!v08;37;False;2;P = T1?;STb_4;0;Same;None;96;96;96;j;n;1;j;b;1518.0093000008128
6yu!v08;38;False;2;P = T2?;ST2_low_4;2;Same;low;112;70;70;j;n;0;f;b;1658.3677999997235
6yu!v08;39;False;2;P = T2?;DT2_high_4;2;Different;high;96;70;60;j;n;1;f;v;2204.951099999562
6yu!v08;40;False;2;P = T2?;STb_7;0;Same;None;154;154;154;j;n;1;j;n;806.4024000004792
6yu!v08;41;False;2;P = T1?;STb_6;0;Same;None;132;132;132;j;n;1;j;b;819.1729999998643
6yu!v08;42;False;2;P = T1?;ST1_high_3;1;Same;high;70;96;70;j;n;0;f;b;682.9642000002423
6yu!v08;43;False;2;P = T2?;ST2_high_5;2;Same;high;96;132;132;j;n;0;f;b;2704.615699999522
6yu!v08;44;False;2;P = T1?;ST1_low_4;1;Same;low;112;70;112;j;n;1;j;v;674.0764999995008
6yu!v08;45;False;2;P = T1?;ST1_high_1;1;Same;high;82;112;82;j;n;1;j;n;1313.0098999999973
6yu!v08;46;False;2;P = T1?;ST1_high_2;1;Same;high;112;82;112;j;n;1;j;n;287.69199999987904
6yu!v08;47;False;2;P = T2?;ST1_high_5;1;Same;high;96;132;96;j;n;1;f;b;13348.77140000026
6yu!v08;48;False;2;P = T1?;ST2_low_4;2;Same;low;112;70;70;j;n;1;f;n;922.6880000005622
6yu!v08;49;False;2;P = T2?;ST1_low_6;1;Same;low;154;96;154;j;n;1;f;b;637.96850000017
6yu!v08;50;False;2;P = T2?;ST2_high_4;2;Same;high;96;70;70;j;n;1;j;n;632.877400000325
6yu!v08;51;False;2;P = T2?;DT2_high_5;2;Different;high;96;132;154;j;n;0;j;v;1628.702200000589
6yu!v08;52;False;2;P = T2?;ST2_low_6;2;Same;low;154;96;96;j;n;1;j;b;4198.418099999799
6yu!v08;53;False;2;P = T2?;ST1_low_4;1;Same;low;112;70;112;j;n;1;f;b;582.5496999996176
6yu!v08;54;False;2;P = T1?;ST1_high_6;1;Same;high;132;96;132;j;n;1;j;n;528.4102000005078
6yu!v08;55;False;2;P = T2?;ST1_low_2;1;Same;low;132;82;132;j;n;0;j;n;1668.1484999999157
6yu!v08;56;False;2;P = T1?;ST1_low_3;1;Same;low;70;112;70;j;n;1;j;n;687.7862999999707
6yu!v08;57;False;2;P = T2?;STb_3;0;Same;None;82;82;82;j;n;1;j;n;350.59689999980037
6yu!v08;58;False;2;P = T2?;ST1_high_4;1;Same;high;96;70;96;j;n;1;f;n;1877.4826999997458
6yu!v08;59;False;2;P = T2?;ST1_high_6;1;Same;high;132;96;132;j;n;1;f;b;560.6197999995857
6yu!v08;60;False;2;P = T1?;ST1_high_3;1;Same;high;70;96;70;j;n;1;j;n;298.35240000011254
6yu!v08;61;False;2;P = T2?;ST2_low_6;2;Same;low;154;96;96;j;n;0;f;n;4770.929799999976
6yu!v08;62;False;2;P = T1?;ST1_high_6;1;Same;high;132;96;132;j;n;1;j;n;1307.8845000000001
6yu!v08;63;False;2;P = T2?;STb_5;0;Same;None;112;112;112;j;n;0;f;n;1359.4869999997172
6yu!v08;64;False;2;P = T2?;ST1_high_6;1;Same;high;132;96;132;j;n;1;f;n;3063.737699999365
6yu!v08;65;False;2;P = T2?;ST1_high_1;1;Same;high;82;112;82;j;n;1;f;b;822.3121999999421
6yu!v08;66;False;2;P = T2?;ST1_high_3;1;Same;high;70;96;70;j;n;1;f;b;618.5226999996303
6yu!v08;67;False;2;P = T1?;ST2_low_3;2;Same;low;70;112;112;j;n;0;j;v;2167.8464999995413
6yu!v08;68;False;2;P = T2?;ST2_low_3;2;Same;low;70;112;112;j;n;1;j;n;2500.62059999982
6yu!v08;69;False;2;P = T1?;STb_3;0;Same;None;82;82;82;j;n;1;j;b;912.2749999996813
6yu!v08;70;False;2;P = T1?;STb_2;0;Same;None;70;70;70;j;n;1;j;n;334.80469999994966
6yu!v08;71;False;2;P = T2?;ST2_low_2;2;Same;low;132;82;82;j;n;1;j;n;1284.3426999997973
6yu!v08;72;False;2;P = T1?;ST2_high_3;2;Same;high;70;96;96;j;n;0;j;n;288.30459999971936
6yu!v08;73;False;2;P = T2?;ST1_low_1;1;Same;low;82;132;82;j;n;1;f;b;4931.053299999803
6yu!v08;74;False;2;P = T2?;ST2_low_1;2;Same;low;82;132;132;j;n;1;j;v;1577.3378000003504
6yu!v08;75;False;2;P = T2?;ST1_low_2;1;Same;low;132;82;132;j;n;0;j;n;297.07950000010896
6yu!v08;76;False;2;P = T1?;ST1_high_1;1;Same;high;82;112;82;j;n;1;j;n;547.255700000278
6yu!v08;77;False;2;P = T1?;ST2_high_1;2;Same;high;82;112;112;j;n;1;f;b;3945.2377999996315
6yu!v08;78;False;2;P = T1?;DT1_high_3;1;Different;high;70;96;60;j;n;0;j;n;528.3623999994234
6yu!v08;79;False;2;P = T2?;ST1_high_3;1;Same;high;70;96;70;j;n;1;f;b;626.9698999994944
6yu!v08;80;False;2;P = T2?;ST1_low_3;1;Same;low;70;112;70;j;n;1;f;n;770.8661999995456
6yu!v08;81;False;2;P = T1?;ST1_low_4;1;Same;low;112;70;112;j;n;1;j;n;411.9061999999758
6yu!v08;82;False;2;P = T2?;ST1_low_6;1;Same;low;154;96;154;j;n;1;f;b;485.6993000003058
6yu!v08;83;False;2;P = T1?;ST1_high_5;1;Same;high;96;132;96;j;n;0;f;n;978.606700000455
6yu!v08;84;False;2;P = T1?;ST2_high_2;2;Same;high;112;82;82;j;n;1;f;n;1399.1408000001684
6yu!v08;85;False;2;P = T2?;ST2_low_2;2;Same;low;132;82;82;j;n;1;j;b;1982.1170000004713
6yu!v08;86;False;2;P = T1?;DT1_high_5;1;Different;high;96;132;82;j;n;0;j;n;336.18399999977555
6yu!v08;87;False;2;P = T2?;STb_2;0;Same;None;70;70;70;j;n;0;f;b;4498.521399999845
6yu!v08;88;False;2;P = T2?;ST2_high_6;2;Same;high;132;96;96;j;n;1;j;v;3519.398000000365
6yu!v08;89;False;2;P = T1?;ST2_low_4;2;Same;low;112;70;70;j;n;1;f;b;1043.7519999995857
6yu!v08;90;False;2;P = T2?;ST1_low_6;1;Same;low;154;96;154;j;n;1;f;b;5712.545600001249
6yu!v08;91;False;2;P = T2?;ST2_high_2;2;Same;high;112;82;82;j;n;0;f;b;6385.218399998848
6yu!v08;92;False;2;P = T1?;ST1_high_2;1;Same;high;112;82;112;j;n;1;j;n;273.86459999979706
6yu!v08;93;False;2;P = T2?;DT2_high_6;2;Different;high;132;96;82;j;n;0;j;b;905.6026999987807
6yu!v08;94;False;2;P = T1?;ST2_high_1;2;Same;high;82;112;112;j;n;0;j;b;773.2955000010406
6yu!v08;95;False;2;P = T1?;ST1_low_1;1;Same;low;82;132;82;j;n;1;j;n;2553.1893000006676
6yu!v08;96;False;2;P = T1?;DT2_high_3;2;Different;high;70;96;112;j;n;0;j;n;308.2570000005944
6yu!v08;97;False;2;P = T2?;ST1_high_2;1;Same;high;112;82;112;j;n;1;f;n;1229.7660000003816
6yu!v08;98;False;2;P = T1?;ST2_high_5;2;Same;high;96;132;132;j;n;0;j;n;513.852300000508
6yu!v08;99;False;2;P = T1?;ST2_high_5;2;Same;high;96;132;132;j;n;1;f;b;3525.0679999990098
6yu!v08;100;False;2;P = T1?;STb_1;0;Same;None;60;60;60;j;n;1;j;n;349.15689999979804
6yu!v08;101;False;2;P = T1?;ST2_high_4;2;Same;high;96;70;70;j;n;0;j;n;417.1868000012182
6yu!v08;102;False;2;P = T1?;DT1_low_1;1;Different;low;82;132;70;j;n;0;j;n;498.11659999977564
6yu!v08;103;False;2;P = T1?;ST2_low_3;2;Same;low;70;112;112;j;n;0;j;n;574.582699999155
6yu!v08;104;False;2;P = T1?;ST2_high_2;2;Same;high;112;82;82;j;n;0;j;n;732.0215999989159
6yu!v08;105;False;2;P = T2?;ST1_low_3;1;Same;low;70;112;70;j;n;1;f;b;1710.1876000015181
6yu!v08;106;False;2;P = T1?;ST1_low_6;1;Same;low;154;96;154;j;n;1;j;n;415.60979999849224
6yu!v08;107;False;2;P = T1?;ST1_high_1;1;Same;high;82;112;82;j;n;1;j;b;1095.0996999999916
6yu!v08;108;False;2;P = T2?;ST1_high_6;1;Same;high;132;96;132;j;n;1;f;v;1948.3065999993414
6yu!v08;109;False;2;P = T1?;DT2_low_6;2;Different;low;154;96;82;j;n;1;f;n;4716.992899999241
6yu!v08;110;False;2;P = T2?;ST1_low_1;1;Same;low;82;132;82;j;n;1;f;n;1901.2187999996968
6yu!v08;111;False;2;P = T1?;ST1_high_4;1;Same;high;96;70;96;j;n;1;j;b;1375.4288000000088
6yu!v08;112;False;2;P = T1?;ST2_high_4;2;Same;high;96;70;70;j;n;0;j;n;1602.7582999995502
6yu!v08;113;False;2;P = T1?;ST2_low_2;2;Same;low;132;82;82;j;n;0;j;n;5313.563000001523
6yu!v08;114;False;2;P = T1?;ST2_low_6;2;Same;low;154;96;96;j;n;0;j;b;1031.1443000009604
6yu!v08;115;False;2;P = T1?;ST2_high_5;2;Same;high;96;132;132;j;n;0;j;v;1317.2101000000112
6yu!v08;116;False;2;P = T2?;ST2_high_1;2;Same;high;82;112;112;j;n;1;j;n;1051.3955999995233
6yu!v08;117;False;2;P = T2?;ST2_high_6;2;Same;high;132;96;96;j;n;0;f;b;725.2294000008987
6yu!v08;118;False;2;P = T1?;ST2_low_2;2;Same;low;132;82;82;j;n;1;f;b;976.6201999991608
6yu!v08;119;False;2;P = T2?;ST1_low_2;1;Same;low;132;82;132;j;n;1;f;b;1406.821000000491
6yu!v08;120;False;2;P = T1?;ST1_high_4;1;Same;high;96;70;96;j;n;1;j;n;4126.5586000008625
6yu!v08;121;False;2;P = T2?;ST1_high_3;1;Same;high;70;96;70;j;n;1;f;v;1069.844199999352
6yu!v08;122;False;2;P = T1?;ST2_low_1;2;Same;low;82;132;132;j;n;1;f;v;2935.301100000288
6yu!v08;123;False;2;P = T1?;DT2_high_2;2;Different;high;112;82;70;j;n;1;f;v;1039.9978999994346
6yu!v08;124;False;2;P = T2?;ST2_high_4;2;Same;high;96;70;70;j;n;1;j;n;304.37650000021677
6yu!v08;125;False;2;P = T2?;ST1_low_5;1;Same;low;96;154;96;j;n;1;f;b;807.3888999988412
6yu!v08;126;False;2;P = T1?;DT1_high_1;1;Different;high;82;112;70;j;n;0;j;b;6506.2820999992255
6yu!v08;127;False;2;P = T1?;ST2_low_4;2;Same;low;112;70;70;j;n;1;f;n;646.8834999996034
6yu!v08;128;False;2;P = T2?;ST1_high_5;1;Same;high;96;132;96;j;n;1;f;b;726.2594999992871
6yu!v08;129;False;2;P = T1?;ST1_low_4;1;Same;low;112;70;112;j;n;1;j;b;1363.0680000005668
6yu!v08;130;False;2;P = T2?;ST2_low_3;2;Same;low;70;112;112;j;n;1;j;n;552.9084000008879
6yu!v08;131;False;2;P = T1?;ST2_low_3;2;Same;low;70;112;112;j;n;0;j;v;3083.313700000872
6yu!v08;132;False;2;P = T1?;ST1_low_2;1;Same;low;132;82;132;j;n;1;j;n;550.1704999987851
6yu!v08;133;False;2;P = T2?;ST2_low_5;2;Same;low;96;154;154;j;n;0;f;b;1562.7270999993925
6yu!v08;134;False;2;P = T2?;ST1_high_4;1;Same;high;96;70;96;j;n;0;j;n;392.5123999997595
6yu!v08;135;False;2;P = T2?;ST1_high_2;1;Same;high;112;82;112;j;n;1;f;b;785.0327000014659
6yu!v08;136;False;2;P = T1?;ST1_low_1;1;Same;low;82;132;82;j;n;1;j;n;835.2451999999175
6yu!v08;137;False;2;P = T2?;ST1_high_1;1;Same;high;82;112;82;j;n;1;f;b;510.1171999995131
6yu!v08;138;False;2;P = T1?;ST1_low_2;1;Same;low;132;82;132;j;n;1;j;n;863.6957000016992
6yu!v08;139;False;2;P = T1?;ST1_low_1;1;Same;low;82;132;82;j;n;1;j;n;889.0878999991401
6yu!v08;140;False;2;P = T1?;ST1_high_4;1;Same;high;96;70;96;j;n;1;j;n;762.3749000013049
6yu!v08;141;False;2;P = T1?;ST1_low_6;1;Same;low;154;96;154;j;n;1;j;n;682.9139000001305
6yu!v08;142;False;2;P = T2?;ST2_low_1;2;Same;low;82;132;132;j;n;1;j;v;1499.9631000009686
6yu!v08;143;False;2;P = T2?;ST2_high_1;2;Same;high;82;112;112;j;n;0;f;b;571.3373999988107
6yu!v08;144;False;2;P = T2?;ST1_low_3;1;Same;low;70;112;70;j;n;1;f;n;707.4941999999282
6yu!v08;145;False;2;P = T2?;DT1_high_1;1;Different;high;82;112;70;j;n;0;j;v;393.13880000008794
6yu!v08;146;False;2;P = T2?;ST2_low_6;2;Same;low;154;96;96;j;n;0;f;n;715.1560999991489
6yu!v08;147;False;2;P = T1?;ST2_high_6;2;Same;high;132;96;96;j;n;0;j;n;270.377599999847
6yu!v08;148;False;2;P = T1?;ST1_low_3;1;Same;low;70;112;70;j;n;0;f;v;6324.162000000797
6yu!v08;149;False;2;P = T1?;ST1_low_5;1;Same;low;96;154;96;j;n;1;j;b;645.5989999994927
6yu!v08;150;False;2;P = T2?;ST1_low_4;1;Same;low;112;70;112;j;n;1;f;n;3704.0754000008747
6yu!v08;151;False;2;P = T2?;ST2_low_4;2;Same;low;112;70;70;j;n;1;j;n;618.47250000028
6yu!v08;152;False;2;P = T2?;ST2_low_3;2;Same;low;70;112;112;j;n;0;f;b;674.5186999996804
6yu!v08;153;False;2;P = T1?;DT1_low_5;1;Different;low;96;154;82;j;n;0;j;n;1967.0071000000462
6yu!v08;154;False;2;P = T2?;ST2_low_5;2;Same;low;96;154;154;j;n;0;f;b;484.6292000001995
6yu!v08;155;False;2;P = T2?;ST2_low_1;2;Same;low;82;132;132;j;n;0;f;n;13134.873800001515
6yu!v08;156;False;2;P = T1?;STb_5;0;Same;None;112;112;112;j;n;1;j;n;6898.063600001478
6yu!v08;157;False;2;P = T2?;ST1_low_5;1;Same;low;96;154;96;j;n;1;f;n;665.8122000008007
6yu!v08;158;False;2;P = T2?;ST2_high_5;2;Same;high;96;132;132;j;n;0;f;n;1817.1744000010221
6yu!v08;159;False;2;P = T1?;ST2_low_5;2;Same;low;96;154;154;j;n;0;j;n;521.6737999999168
6yu!v08;160;False;2;P = T2?;ST2_high_3;2;Same;high;70;96;96;j;n;0;f;n;688.6221999993722
6yu!v08;161;False;2;P = T1?;ST1_high_5;1;Same;high;96;132;96;j;n;1;j;b;861.9277000016154
6yu!v08;162;False;2;P = T2?;DT2_low_3;2;Different;low;70;112;132;j;n;0;j;n;315.32139999944775
6yu!v08;163;False;2;P = T1?;ST2_low_5;2;Same;low;96;154;154;j;n;0;j;b;854.5641000000614
6yu!v08;164;False;2;P = T2?;STb_4;0;Same;None;96;96;96;j;n;0;f;n;1370.5231999992975
6yu!v08;165;False;2;P = T1?;STb_8;0;Same;None;180;180;180;j;n;1;j;n;314.7446000002674
6yu!v08;166;False;2;P = T2?;DT1_low_1;1;Different;low;82;132;70;j;n;1;f;n;1369.9374999996508
6yu!v08;167;False;2;P = T1?;ST2_high_4;2;Same;high;96;70;70;j;n;0;j;n;1158.9545999995607
6yu!v08;168;False;2;P = T1?;ST2_high_3;2;Same;high;70;96;96;j;n;0;j;n;502.7924999994866
6yu!v08;169;False;2;P = T2?;ST1_high_2;1;Same;high;112;82;112;j;n;0;j;n;961.5874999999505
6yu!v08;170;False;2;P = T2?;ST2_high_1;2;Same;high;82;112;112;j;n;0;f;n;689.4743000011658
6yu!v08;171;False;2;P = T1?;ST2_low_1;2;Same;low;82;132;132;j;n;0;j;n;426.2918999993417
6yu!v08;172;False;2;P = T1?;ST2_high_1;2;Same;high;82;112;112;j;n;0;j;n;816.1239000000933
6yu!v08;173;False;2;P = T1?;ST1_high_5;1;Same;high;96;132;96;j;n;0;f;b;677.5530999984767
6yu!v08;174;False;2;P = T2?;ST1_low_4;1;Same;low;112;70;112;j;n;1;f;v;1451.4022999992449
6yu!v08;175;False;2;P = T1?;ST1_low_3;1;Same;low;70;112;70;j;n;1;j;b;752.0985999999539
6yu!v08;176;False;2;P = T1?;ST2_low_1;2;Same;low;82;132;132;j;n;0;j;b;2501.7258999996557
