,pcode,practice,trial,block,questionType,condition,question,PTS,TargetPosition,AccessoryPosition,TNS,T1_hz,T1_amp,T2_hz,T2_amp,P_hz,P_amp,response_dicho,response_rating,response_sdt,rt,P_correct
0,my9!h78,True,1,1,unequal,DT2_high_1_a1,P != T2?,Different,2,1,high,82,1.4,112,1.01,132,0.79,No,quiteSure,cr,23.92597198486328,NA
1,my9!h78,True,2,1,unequal,DT2_high_1_a1,P != T1?,Different,2,1,high,82,1.52,112,1.13,132,0.83,Yes,quiteSure,hit,3.796739101409912,NA
2,my9!h78,True,3,1,unequal,ST2_high_4_a1,P != T1?,Same,2,1,high,96,1.35,70,1.54,70,1.92,Yes,quiteSure,hit,6.426274061203003,NA
3,my9!h78,True,4,1,unequal,STb_5_a1,P != T2?,Same,0,1,None,112,1.01,112,1.36,112,1.13,No,quiteSure,cr,4.836221933364868,NA
4,my9!h78,True,5,1,unequal,ST1_low_3_a1,P != T1?,Same,1,1,low,70,1.51,112,1.12,70,1.28,No,sure,cr,3.663782835006714,NA
5,my9!h78,True,6,1,unequal,ST2_low_4_a1,P != T2?,Same,2,1,low,112,1.15,70,1.6,70,1.52,No,quiteSure,cr,6.24806022644043,NA
6,my9!h78,True,7,1,unequal,STb_4_a2,P != T2?,Same,0,2,None,96,1.43,96,1.13,96,1.57,No,quiteSure,cr,2.1982080936431885,NA
7,my9!h78,True,8,1,unequal,ST1_low_4_a1,P != T2?,Same,1,1,low,112,1.25,70,1.69,112,0.96,No,quiteSure,miss,4.474764108657837,NA
8,my9!h78,True,9,1,unequal,ST2_low_5_a2,P != T1?,Same,2,2,low,96,0.97,154,0.73,154,0.82,Yes,sure,hit,2.0000967979431152,NA
9,my9!h78,True,10,1,unequal,ST1_low_2_a2,P != T1?,Same,1,2,low,132,1.01,82,1.4,132,0.89,No,quiteSure,cr,3.8237829208374023,NA
10,my9!h78,True,11,1,unequal,ST1_high_6_a1,P != T2?,Same,1,1,high,132,0.85,96,1.53,132,0.96,No,quiteSure,miss,3.9915988445281982,NA
11,my9!h78,True,12,1,unequal,STb_4_a2,P != T1?,Same,0,2,None,96,1.01,96,1.2,96,1.22,No,sure,cr,3.0308749675750732,NA
12,my9!h78,True,13,1,unequal,ST2_low_1_a1,P != T2?,Same,2,1,low,82,1.47,132,0.75,132,0.9,No,unsure,cr,7.9200990200042725,NA
13,my9!h78,True,14,1,unequal,DT1_low_6_a1,P != T1?,Different,1,1,low,154,0.95,96,1.27,180,0.81,No,sure,cr,1.7935600280761719,NA
14,my9!h78,True,15,1,unequal,STb_7_a1,P != T1?,Same,0,1,None,154,0.77,154,0.82,154,0.83,No,sure,cr,1.5299477577209473,NA
15,my9!h78,True,16,1,unequal,DT1_high_4_a1,P != T2?,Different,1,1,high,96,1.31,70,1.62,112,0.92,Yes,quiteSure,hit,3.9567339420318604,0.75
16,my9!h78,False,1,1,unequal,ST2_high_5_a2,P != T1?,Same,2,2,high,96,1.3,132,0.95,132,0.9,Yes,sure,hit,2.2915539741516113,NA
17,my9!h78,False,2,1,unequal,ST2_low_3_a1,P != T1?,Same,2,1,low,70,1.74,112,1.14,112,1.17,Yes,unsure,hit,5.032757997512817,NA
18,my9!h78,False,3,1,unequal,ST2_high_2_a1,P != T1?,Same,2,1,high,112,1.03,82,1.56,82,1.41,Yes,quiteSure,hit,1.8643171787261963,NA
19,my9!h78,False,4,1,unequal,DT1_high_6_a2,P != T1?,Different,1,2,high,132,0.96,96,1.07,154,0.79,No,quiteSure,cr,5.548293828964233,NA
20,my9!h78,False,5,1,unequal,ST1_high_6_a2,P != T1?,Same,1,2,high,132,0.92,96,1.15,132,0.88,No,sure,cr,19.137370109558105,NA
21,my9!h78,False,6,1,unequal,ST1_high_5_a1,P != T1?,Same,1,1,high,96,1.28,132,0.88,96,1.35,No,sure,cr,2.4474029541015625,NA
22,my9!h78,False,7,1,unequal,ST1_high_2_a1,P != T1?,Same,1,1,high,112,1.06,82,1.51,112,1.11,No,quiteSure,cr,6.406222105026245,NA
23,my9!h78,False,8,1,unequal,ST1_high_5_a1,P != T2?,Same,1,1,high,96,1.4,132,0.93,96,1.3,Yes,sure,hit,11.12749695777893,NA
24,my9!h78,False,9,1,unequal,STb_6_a1,P != T1?,Same,0,1,None,132,0.96,132,0.82,132,1.02,No,sure,cr,9.08237886428833,NA
25,my9!h78,False,10,1,unequal,ST1_low_1_a2,P != T1?,Same,1,2,low,82,1.61,132,0.78,82,1.48,No,sure,cr,3.1211440563201904,NA
26,my9!h78,False,11,1,unequal,ST2_high_6_a1,P != T2?,Same,2,1,high,132,0.84,96,1.15,96,1.11,No,sure,cr,2.9176278114318848,NA
27,my9!h78,False,12,1,unequal,STb_8_a2,P != T1?,Same,0,2,None,180,0.95,180,0.82,180,0.86,No,sure,cr,2.424133777618408,NA
28,my9!h78,False,13,1,unequal,ST2_low_5_a1,P != T2?,Same,2,1,low,96,1.23,154,0.88,154,0.85,No,quiteSure,cr,9.197566986083984,NA
29,my9!h78,False,14,1,unequal,ST2_low_4_a2,P != T1?,Same,2,2,low,112,1.03,70,1.79,70,1.45,No,sure,miss,4.111454010009766,NA
30,my9!h78,False,15,1,unequal,ST1_high_4_a2,P != T2?,Same,1,2,high,96,1.21,70,1.38,96,1.06,No,sure,miss,2.5605881214141846,NA
31,my9!h78,False,16,1,unequal,ST1_high_4_a2,P != T1?,Same,1,2,high,96,1.21,70,1.61,96,1.12,No,quiteSure,cr,2.9208991527557373,NA
32,my9!h78,False,17,1,unequal,ST1_high_1_a2,P != T1?,Same,1,2,high,82,1.37,112,1.06,82,1.4,No,unsure,cr,11.626751899719238,NA
33,my9!h78,False,18,1,unequal,ST1_low_2_a1,P != T2?,Same,1,1,low,132,0.82,82,1.48,132,0.94,Yes,quiteSure,hit,12.480879783630371,NA
34,my9!h78,False,19,1,unequal,ST2_low_2_a2,P != T2?,Same,2,2,low,132,0.82,82,1.26,82,1.58,No,sure,cr,3.7298200130462646,NA
35,my9!h78,False,20,1,unequal,ST2_high_4_a2,P != T1?,Same,2,2,high,96,1.28,70,1.7,70,1.6,Yes,sure,hit,2.6747000217437744,NA
36,my9!h78,False,21,1,unequal,ST1_low_3_a2,P != T2?,Same,1,2,low,70,1.54,112,1.14,70,1.61,Yes,quiteSure,hit,7.7548747062683105,NA
37,my9!h78,False,22,1,unequal,ST2_high_2_a2,P != T1?,Same,2,2,high,112,1.1,82,1.39,82,1.37,Yes,sure,hit,2.2195088863372803,NA
38,my9!h78,False,23,1,unequal,ST1_low_3_a1,P != T2?,Same,1,1,low,70,1.8,112,1.12,70,1.55,Yes,sure,hit,5.552355051040649,NA
39,my9!h78,False,24,1,unequal,ST1_low_6_a1,P != T1?,Same,1,1,low,154,0.76,96,1.27,154,0.83,No,quiteSure,cr,2.8524551391601562,NA
40,my9!h78,False,25,1,unequal,STb_5_a1,P != T1?,Same,0,1,None,112,1.07,112,1.0,112,1.0,No,sure,cr,3.3033175468444824,NA
41,my9!h78,False,26,1,unequal,ST2_high_3_a2,P != T1?,Same,2,2,high,70,1.79,96,1.38,96,1.16,Yes,unsure,hit,9.732411861419678,NA
42,my9!h78,False,27,1,unequal,ST1_low_5_a1,P != T2?,Same,1,1,low,96,1.27,154,0.87,96,1.25,Yes,quiteSure,hit,5.686632871627808,NA
43,my9!h78,False,28,1,unequal,ST1_low_4_a1,P != T2?,Same,1,1,low,112,1.02,70,1.51,112,1.2,Yes,quiteSure,hit,7.735319137573242,NA
44,my9!h78,False,29,1,unequal,ST1_low_3_a2,P != T1?,Same,1,2,low,70,1.77,112,1.01,70,1.54,No,sure,cr,2.9308488368988037,NA
45,my9!h78,False,30,1,unequal,ST2_high_4_a2,P != T1?,Same,2,2,high,96,1.12,70,1.62,70,1.65,Yes,quiteSure,hit,2.376612901687622,NA
46,my9!h78,False,31,1,unequal,ST1_low_1_a1,P != T1?,Same,1,1,low,82,1.5,132,0.97,82,1.63,No,sure,cr,3.8860650062561035,NA
47,my9!h78,False,32,1,unequal,ST1_low_4_a2,P != T1?,Same,1,2,low,112,1.1,70,1.73,112,1.02,No,quiteSure,cr,4.108978986740112,NA
48,my9!h78,False,33,1,unequal,ST2_high_4_a1,P != T1?,Same,2,1,high,96,1.19,70,1.42,70,1.55,Yes,sure,hit,1.8200788497924805,NA
49,my9!h78,False,34,1,unequal,ST1_low_4_a2,P != T1?,Same,1,2,low,112,1.02,70,1.38,112,1.11,No,sure,cr,4.8119707107543945,NA
50,my9!h78,False,35,1,unequal,ST1_high_2_a2,P != T2?,Same,1,2,high,112,0.93,82,1.23,112,0.97,Yes,sure,hit,3.6200339794158936,NA
51,my9!h78,False,36,1,unequal,DT1_high_6_a1,P != T2?,Different,1,1,high,132,0.88,96,1.19,154,0.74,Yes,unsure,hit,11.829234838485718,NA
52,my9!h78,False,37,1,unequal,ST1_low_6_a2,P != T2?,Same,1,2,low,154,0.9,96,1.12,154,0.79,Yes,sure,hit,4.835020065307617,NA
53,my9!h78,False,38,1,unequal,ST2_high_4_a1,P != T2?,Same,2,1,high,96,1.22,70,1.7,70,1.56,No,sure,cr,1.638073205947876,NA
54,my9!h78,False,39,1,unequal,ST1_high_1_a1,P != T1?,Same,1,1,high,82,1.42,112,0.99,82,1.33,No,unsure,cr,5.25493311882019,NA
55,my9!h78,False,40,1,unequal,ST1_low_6_a1,P != T1?,Same,1,1,low,154,0.95,96,1.35,154,0.84,No,quiteSure,cr,3.458268880844116,NA
56,my9!h78,False,41,1,unequal,ST1_low_6_a2,P != T1?,Same,1,2,low,154,0.82,96,1.23,154,0.85,No,quiteSure,cr,13.386630058288574,NA
57,my9!h78,False,42,1,unequal,ST2_high_5_a2,P != T2?,Same,2,2,high,96,1.35,132,1.0,132,0.99,No,sure,cr,4.289849281311035,NA
58,my9!h78,False,43,1,unequal,ST2_high_1_a1,P != T1?,Same,2,1,high,82,1.32,112,1.19,112,1.1,Yes,sure,hit,2.6001951694488525,NA
59,my9!h78,False,44,1,unequal,ST1_high_1_a2,P != T1?,Same,1,2,high,82,1.23,112,1.14,82,1.4,No,quiteSure,cr,4.133435249328613,NA
60,my9!h78,False,45,1,unequal,ST2_high_5_a1,P != T1?,Same,2,1,high,96,1.16,132,1.06,132,0.91,Yes,quiteSure,hit,12.591169118881226,NA
61,my9!h78,False,46,1,unequal,ST2_low_6_a2,P != T1?,Same,2,2,low,154,0.84,96,1.31,96,1.36,Yes,sure,hit,8.071059942245483,NA
62,my9!h78,False,47,1,unequal,ST2_high_6_a2,P != T1?,Same,2,2,high,132,0.81,96,1.13,96,1.3,Yes,quiteSure,hit,5.595468997955322,NA
63,my9!h78,False,48,1,unequal,ST1_high_2_a2,P != T1?,Same,1,2,high,112,1.14,82,1.52,112,1.2,No,quiteSure,cr,21.530191898345947,NA
64,my9!h78,False,49,1,unequal,ST2_high_4_a2,P != T2?,Same,2,2,high,96,1.14,70,1.68,70,1.64,No,sure,cr,2.447911024093628,NA
65,my9!h78,False,50,1,unequal,STb_1_a2,P != T2?,Same,0,2,None,60,1.82,60,1.53,60,2.0,No,sure,cr,1.6157090663909912,NA
66,my9!h78,False,51,1,unequal,ST2_low_2_a1,P != T1?,Same,2,1,low,132,0.89,82,1.58,82,1.27,Yes,quiteSure,hit,2.6480538845062256,NA
67,my9!h78,False,52,1,unequal,ST2_high_6_a1,P != T1?,Same,2,1,high,132,0.93,96,1.41,96,1.24,Yes,quiteSure,hit,7.280428886413574,NA
68,my9!h78,False,53,1,unequal,ST2_high_3_a2,P != T1?,Same,2,2,high,70,1.76,96,1.38,96,1.18,Yes,quiteSure,hit,5.417339086532593,NA
69,my9!h78,False,54,1,unequal,ST1_low_2_a1,P != T2?,Same,1,1,low,132,0.81,82,1.29,132,0.88,Yes,quiteSure,hit,3.280946969985962,NA
70,my9!h78,False,55,1,unequal,ST2_high_5_a1,P != T2?,Same,2,1,high,96,1.17,132,0.92,132,0.99,No,quiteSure,cr,3.5491180419921875,NA
71,my9!h78,False,56,1,unequal,ST1_high_5_a2,P != T1?,Same,1,2,high,96,1.22,132,0.91,96,1.17,No,sure,cr,3.2336127758026123,NA
72,my9!h78,False,57,1,unequal,ST1_high_5_a1,P != T1?,Same,1,1,high,96,1.27,132,0.96,96,1.24,No,sure,cr,3.2849490642547607,NA
73,my9!h78,False,58,1,unequal,ST1_high_6_a2,P != T1?,Same,1,2,high,132,0.88,96,1.35,132,0.85,No,sure,cr,6.178398847579956,NA
74,my9!h78,False,59,1,unequal,ST1_low_5_a2,P != T2?,Same,1,2,low,96,1.2,154,0.95,96,1.24,Yes,quiteSure,hit,5.122917890548706,NA
75,my9!h78,False,60,1,unequal,ST2_high_2_a1,P != T1?,Same,2,1,high,112,1.09,82,1.55,82,1.33,Yes,sure,hit,6.882050037384033,NA
76,my9!h78,False,61,1,unequal,ST2_low_5_a1,P != T2?,Same,2,1,low,96,1.23,154,0.79,154,0.79,No,quiteSure,cr,2.847905158996582,NA
77,my9!h78,False,62,1,unequal,ST2_high_4_a2,P != T1?,Same,2,2,high,96,1.29,70,1.37,70,1.62,Yes,unsure,hit,3.3434648513793945,NA
78,my9!h78,False,63,1,unequal,ST2_low_1_a1,P != T2?,Same,2,1,low,82,1.39,132,1.04,132,1.0,No,sure,cr,5.189384937286377,NA
79,my9!h78,False,64,1,unequal,ST2_low_6_a2,P != T1?,Same,2,2,low,154,0.86,96,1.22,96,1.14,Yes,quiteSure,hit,2.375247001647949,NA
80,my9!h78,False,65,1,unequal,ST1_low_3_a2,P != T1?,Same,1,2,low,70,1.74,112,1.04,70,1.7,No,sure,cr,3.7059037685394287,NA
81,my9!h78,False,66,1,unequal,ST2_high_1_a1,P != T2?,Same,2,1,high,82,1.64,112,1.18,112,1.05,No,quiteSure,cr,7.014791011810303,NA
82,my9!h78,False,67,1,unequal,ST1_low_6_a1,P != T1?,Same,1,1,low,154,0.73,96,1.32,154,0.72,No,quiteSure,cr,7.435261011123657,NA
83,my9!h78,False,68,1,unequal,ST2_low_4_a2,P != T2?,Same,2,2,low,112,1.01,70,1.45,70,1.74,No,sure,cr,6.137474060058594,NA
84,my9!h78,False,69,1,unequal,ST2_low_6_a2,P != T2?,Same,2,2,low,154,0.92,96,1.22,96,1.27,No,unsure,cr,13.445798873901367,NA
85,my9!h78,False,70,1,unequal,ST1_high_3_a2,P != T2?,Same,1,2,high,70,1.39,96,1.14,70,1.52,Yes,quiteSure,hit,6.810827016830444,NA
86,my9!h78,False,71,1,unequal,ST1_high_2_a1,P != T1?,Same,1,1,high,112,1.14,82,1.52,112,1.1,No,quiteSure,cr,6.209818124771118,NA
87,my9!h78,False,72,1,unequal,ST2_low_1_a2,P != T1?,Same,2,2,low,82,1.6,132,0.8,132,0.91,Yes,quiteSure,hit,12.882375955581665,NA
88,my9!h78,False,73,1,unequal,ST1_low_4_a1,P != T1?,Same,1,1,low,112,0.96,70,1.64,112,1.12,No,quiteSure,cr,22.743669986724854,NA
89,my9!h78,False,74,1,unequal,ST1_high_6_a1,P != T2?,Same,1,1,high,132,0.85,96,1.53,132,0.96,Yes,quiteSure,hit,17.609360933303833,NA
90,my9!h78,False,75,1,unequal,ST1_low_6_a2,P != T1?,Same,1,2,low,154,0.89,96,1.08,154,0.85,No,quiteSure,cr,3.0750317573547363,NA
91,my9!h78,False,76,1,unequal,ST2_high_5_a1,P != T2?,Same,2,1,high,96,1.41,132,0.89,132,1.03,No,sure,cr,2.668219804763794,NA
92,my9!h78,False,77,1,unequal,ST1_high_5_a1,P != T2?,Same,1,1,high,96,1.09,132,0.98,96,1.09,Yes,sure,hit,3.5921878814697266,NA
93,my9!h78,False,78,1,unequal,ST2_high_6_a1,P != T1?,Same,2,1,high,132,0.82,96,1.42,96,1.38,Yes,unsure,hit,11.241666078567505,NA
94,my9!h78,False,79,1,unequal,ST1_high_2_a2,P != T1?,Same,1,2,high,112,0.99,82,1.5,112,1.22,No,quiteSure,cr,3.344761848449707,NA
95,my9!h78,False,80,1,unequal,STb_1_a1,P != T1?,Same,0,1,None,60,1.87,60,1.56,60,2.01,No,sure,cr,2.4720547199249268,NA
96,my9!h78,False,81,1,unequal,ST2_low_3_a1,P != T1?,Same,2,1,low,70,1.68,112,1.01,112,0.97,Yes,quiteSure,hit,9.852881908416748,NA
97,my9!h78,False,82,1,unequal,STb_5_a1,P != T2?,Same,0,1,None,112,1.01,112,1.36,112,1.13,No,quiteSure,cr,3.0732970237731934,NA
98,my9!h78,False,83,1,unequal,STb_7_a1,P != T2?,Same,0,1,None,154,0.86,154,0.86,154,0.95,No,quiteSure,cr,4.042772054672241,NA
99,my9!h78,False,84,1,unequal,ST2_low_4_a2,P != T2?,Same,2,2,low,112,1.23,70,1.41,70,1.47,No,sure,cr,5.326566934585571,NA
100,my9!h78,False,85,1,unequal,ST2_low_1_a2,P != T2?,Same,2,2,low,82,1.29,132,0.79,132,1.02,No,quiteSure,cr,7.8017661571502686,NA
101,my9!h78,False,86,1,unequal,ST2_high_4_a1,P != T1?,Same,2,1,high,96,1.35,70,1.54,70,1.92,Yes,quiteSure,hit,2.7584640979766846,NA
102,my9!h78,False,87,1,unequal,ST1_high_5_a2,P != T1?,Same,1,2,high,96,1.29,132,0.92,96,1.41,No,quiteSure,cr,4.737454891204834,NA
103,my9!h78,False,88,1,unequal,ST2_low_3_a1,P != T2?,Same,2,1,low,70,1.37,112,1.21,112,1.19,No,sure,cr,1.7933971881866455,NA
104,my9!h78,False,89,1,unequal,ST2_low_2_a2,P != T2?,Same,2,2,low,132,0.98,82,1.29,82,1.47,No,quiteSure,cr,2.3142101764678955,NA
105,my9!h78,False,90,1,unequal,ST2_high_3_a2,P != T1?,Same,2,2,high,70,1.79,96,1.43,96,1.26,Yes,unsure,hit,3.4598159790039062,NA
106,my9!h78,False,91,1,unequal,ST1_high_5_a2,P != T1?,Same,1,2,high,96,1.15,132,1.06,96,1.07,No,quiteSure,cr,7.010532855987549,NA
107,my9!h78,False,92,1,unequal,ST2_high_1_a1,P != T1?,Same,2,1,high,82,1.56,112,0.96,112,1.06,Yes,unsure,hit,12.504242897033691,NA
108,my9!h78,False,93,1,unequal,ST2_low_1_a2,P != T1?,Same,2,2,low,82,1.48,132,1.0,132,0.9,No,unsure,miss,4.067261219024658,NA
109,my9!h78,False,94,1,unequal,DT1_high_4_a2,P != T2?,Different,1,2,high,96,1.24,70,1.64,112,1.08,Yes,quiteSure,hit,9.60453200340271,NA
110,my9!h78,False,95,1,unequal,DT2_high_3_a2,P != T1?,Different,2,2,high,70,1.38,96,1.06,112,1.0,Yes,quiteSure,hit,12.19020700454712,NA
111,my9!h78,False,96,1,unequal,ST2_high_5_a1,P != T1?,Same,2,1,high,96,1.39,132,0.79,132,0.79,Yes,quiteSure,hit,2.4946582317352295,NA
112,my9!h78,False,97,1,unequal,ST2_low_3_a2,P != T2?,Same,2,2,low,70,1.38,112,0.94,112,1.19,No,quiteSure,cr,1.2772190570831299,NA
113,my9!h78,False,98,1,unequal,ST2_high_4_a1,P != T1?,Same,2,1,high,96,1.06,70,1.56,70,1.76,Yes,unsure,hit,4.473921775817871,NA
114,my9!h78,False,99,1,unequal,ST1_low_3_a2,P != T2?,Same,1,2,low,70,1.75,112,1.13,70,1.65,Yes,sure,hit,2.603743076324463,NA
115,my9!h78,False,100,1,unequal,ST1_low_4_a2,P != T2?,Same,1,2,low,112,1.19,70,1.75,112,0.97,Yes,quiteSure,hit,9.397551774978638,NA
116,my9!h78,False,101,1,unequal,ST2_low_4_a2,P != T1?,Same,2,2,low,112,1.21,70,1.45,70,1.75,Yes,unsure,hit,1.7943921089172363,NA
117,my9!h78,False,102,1,unequal,ST1_high_4_a1,P != T2?,Same,1,1,high,96,1.26,70,1.71,96,1.21,Yes,quiteSure,hit,1.8610529899597168,NA
118,my9!h78,False,103,1,unequal,ST2_high_3_a1,P != T1?,Same,2,1,high,70,1.62,96,1.07,96,1.36,Yes,quiteSure,hit,1.409048080444336,NA
119,my9!h78,False,104,1,unequal,STb_2_a1,P != T2?,Same,0,1,None,70,1.64,70,1.38,70,1.83,No,sure,cr,2.448453903198242,NA
120,my9!h78,False,105,1,unequal,ST1_high_6_a1,P != T2?,Same,1,1,high,132,1.04,96,1.07,132,0.94,Yes,quiteSure,hit,3.6140646934509277,NA
121,my9!h78,False,106,1,unequal,ST2_low_5_a1,P != T2?,Same,2,1,low,96,1.08,154,0.79,154,0.93,No,sure,cr,1.5515010356903076,NA
122,my9!h78,False,107,1,unequal,ST1_high_4_a1,P != T2?,Same,1,1,high,96,1.14,70,1.39,96,1.43,No,unsure,miss,7.779324769973755,NA
123,my9!h78,False,108,1,unequal,DT2_high_3_a1,P != T1?,Different,2,1,high,70,1.42,96,1.24,112,1.13,Yes,unsure,hit,20.261816024780273,NA
124,my9!h78,False,109,1,unequal,ST2_low_6_a1,P != T1?,Same,2,1,low,154,0.73,96,1.36,96,1.26,Yes,quiteSure,hit,1.572486162185669,NA
125,my9!h78,False,110,1,unequal,ST1_low_5_a2,P != T2?,Same,1,2,low,96,1.07,154,0.73,96,1.13,Yes,sure,hit,3.5724971294403076,NA
126,my9!h78,False,111,1,unequal,ST2_high_3_a1,P != T2?,Same,2,1,high,70,1.59,96,1.08,96,1.31,No,sure,cr,1.3857691287994385,NA
127,my9!h78,False,112,1,unequal,ST1_high_4_a1,P != T1?,Same,1,1,high,96,1.08,70,1.82,96,1.28,No,quiteSure,cr,2.1739718914031982,NA
128,my9!h78,False,113,1,unequal,ST1_high_2_a1,P != T2?,Same,1,1,high,112,1.14,82,1.4,112,0.93,Yes,sure,hit,3.1496689319610596,NA
129,my9!h78,False,114,1,unequal,ST1_high_6_a2,P != T1?,Same,1,2,high,132,0.89,96,1.13,132,0.86,Yes,quiteSure,fa,6.833983898162842,NA
130,my9!h78,False,115,1,unequal,ST1_low_2_a2,P != T1?,Same,1,2,low,132,1.01,82,1.4,132,0.89,Yes,unsure,fa,10.184639930725098,NA
131,my9!h78,False,116,1,unequal,ST2_low_6_a1,P != T1?,Same,2,1,low,154,0.88,96,1.29,96,1.22,Yes,sure,hit,3.6824471950531006,NA
132,my9!h78,False,117,1,unequal,ST2_high_2_a2,P != T1?,Same,2,2,high,112,1.19,82,1.4,82,1.31,Yes,sure,hit,1.608280897140503,NA
133,my9!h78,False,118,1,unequal,ST2_low_2_a2,P != T1?,Same,2,2,low,132,0.97,82,1.51,82,1.45,Yes,sure,hit,3.6783931255340576,NA
134,my9!h78,False,119,1,unequal,ST2_high_5_a2,P != T2?,Same,2,2,high,96,1.3,132,0.85,132,0.94,No,sure,cr,2.6260809898376465,NA
135,my9!h78,False,120,1,unequal,ST1_high_3_a1,P != T2?,Same,1,1,high,70,1.7,96,1.13,70,1.57,Yes,quiteSure,hit,1.842181921005249,NA
136,my9!h78,False,121,1,unequal,DT2_high_6_a1,P != T2?,Different,2,1,high,132,0.87,96,1.38,82,1.32,Yes,unsure,fa,11.10865306854248,NA
137,my9!h78,False,122,1,unequal,ST1_high_6_a1,P != T1?,Same,1,1,high,132,0.96,96,1.41,132,1.02,No,quiteSure,cr,6.495182991027832,NA
138,my9!h78,False,123,1,unequal,DT1_low_4_a2,P != T1?,Different,1,2,low,112,0.95,70,1.56,132,0.83,Yes,unsure,fa,2.1304638385772705,NA
139,my9!h78,False,124,1,unequal,ST2_high_1_a2,P != T2?,Same,2,2,high,82,1.32,112,1.13,112,0.95,No,sure,cr,8.99065113067627,NA
140,my9!h78,False,125,1,unequal,ST2_high_1_a2,P != T2?,Same,2,2,high,82,1.38,112,1.09,112,1.1,No,quiteSure,cr,5.462617874145508,NA
141,my9!h78,False,126,1,unequal,ST2_low_1_a1,P != T1?,Same,2,1,low,82,1.64,132,0.99,132,0.95,Yes,sure,hit,7.1946938037872314,NA
142,my9!h78,False,127,1,unequal,STb_3_a1,P != T2?,Same,0,1,None,82,1.41,82,1.6,82,1.23,No,quiteSure,cr,2.6482419967651367,NA
143,my9!h78,False,128,1,unequal,ST2_low_5_a1,P != T1?,Same,2,1,low,96,1.24,154,0.92,154,0.83,Yes,sure,hit,3.0326521396636963,NA
144,my9!h78,False,129,1,unequal,ST1_low_2_a2,P != T1?,Same,1,2,low,132,0.99,82,1.48,132,1.05,No,quiteSure,cr,25.465059757232666,NA
145,my9!h78,False,130,1,unequal,ST1_high_3_a1,P != T2?,Same,1,1,high,70,1.48,96,1.35,70,1.65,Yes,sure,hit,12.925219774246216,NA
146,my9!h78,False,131,1,unequal,STb_4_a1,P != T2?,Same,0,1,None,96,1.33,96,1.27,96,1.24,No,sure,cr,2.5363011360168457,NA
147,my9!h78,False,132,1,unequal,DT2_high_2_a2,P != T2?,Different,2,2,high,112,0.95,82,1.28,70,1.47,No,sure,cr,1.1637377738952637,NA
148,my9!h78,False,133,1,unequal,ST1_high_4_a1,P != T1?,Same,1,1,high,96,1.32,70,1.62,96,1.41,No,quiteSure,cr,4.309964656829834,NA
149,my9!h78,False,134,1,unequal,ST1_high_6_a1,P != T2?,Same,1,1,high,132,0.88,96,1.16,132,1.0,Yes,quiteSure,hit,3.301692247390747,NA
150,my9!h78,False,135,1,unequal,ST2_low_4_a1,P != T1?,Same,2,1,low,112,1.19,70,1.77,70,1.49,Yes,quiteSure,hit,2.828809976577759,NA
151,my9!h78,False,136,1,unequal,ST1_high_3_a1,P != T1?,Same,1,1,high,70,1.54,96,1.28,70,1.83,No,sure,cr,1.7470760345458984,NA
152,my9!h78,False,137,1,unequal,ST1_high_4_a2,P != T2?,Same,1,2,high,96,1.32,70,1.78,96,1.1,Yes,sure,hit,2.2448551654815674,NA
153,my9!h78,False,138,1,unequal,ST2_low_4_a1,P != T1?,Same,2,1,low,112,1.12,70,1.68,70,1.38,Yes,sure,hit,2.0413928031921387,NA
154,my9!h78,False,139,1,unequal,ST1_low_3_a2,P != T1?,Same,1,2,low,70,1.56,112,1.18,70,1.74,Yes,unsure,fa,8.366719007492065,NA
155,my9!h78,False,140,1,unequal,ST1_low_3_a1,P != T2?,Same,1,1,low,70,1.73,112,1.0,70,1.75,Yes,quiteSure,hit,3.5048577785491943,NA
156,my9!h78,False,141,1,unequal,ST1_high_2_a1,P != T2?,Same,1,1,high,112,0.96,82,1.51,112,1.01,Yes,sure,hit,1.905642032623291,NA
157,my9!h78,False,142,1,unequal,ST2_low_3_a2,P != T1?,Same,2,2,low,70,1.43,112,0.92,112,1.12,Yes,sure,hit,5.913731098175049,NA
158,my9!h78,False,143,1,unequal,ST2_low_1_a2,P != T1?,Same,2,2,low,82,1.61,132,0.8,132,0.9,Yes,quiteSure,hit,6.630244731903076,NA
159,my9!h78,False,144,1,unequal,ST1_low_5_a2,P != T1?,Same,1,2,low,96,1.35,154,0.85,96,1.08,No,quiteSure,cr,5.708471775054932,NA
160,my9!h78,False,145,1,unequal,ST2_high_1_a2,P != T2?,Same,2,2,high,82,1.51,112,1.08,112,0.92,No,sure,cr,1.8629963397979736,NA
161,my9!h78,False,146,1,unequal,ST1_high_1_a2,P != T2?,Same,1,2,high,82,1.38,112,0.94,82,1.53,Yes,sure,hit,2.0971691608428955,NA
162,my9!h78,False,147,1,unequal,ST1_low_6_a2,P != T2?,Same,1,2,low,154,0.73,96,1.22,154,0.94,Yes,sure,hit,2.0396370887756348,NA
163,my9!h78,False,148,1,unequal,ST2_low_6_a1,P != T1?,Same,2,1,low,154,0.78,96,1.35,96,1.19,Yes,sure,hit,2.2458808422088623,NA
164,my9!h78,False,149,1,unequal,ST1_high_2_a1,P != T2?,Same,1,1,high,112,1.19,82,1.23,112,1.17,Yes,quiteSure,hit,1.8169047832489014,NA
165,my9!h78,False,150,1,unequal,DT2_high_3_a2,P != T2?,Different,2,2,high,70,1.77,96,1.31,112,1.02,Yes,quiteSure,fa,4.092971086502075,NA
166,my9!h78,False,151,1,unequal,ST1_low_3_a1,P != T2?,Same,1,1,low,70,1.56,112,1.19,70,1.51,Yes,quiteSure,hit,3.3446438312530518,NA
167,my9!h78,False,152,1,unequal,ST1_low_1_a2,P != T2?,Same,1,2,low,82,1.36,132,0.86,82,1.56,Yes,sure,hit,3.2140591144561768,NA
168,my9!h78,False,153,1,unequal,ST2_low_6_a2,P != T2?,Same,2,2,low,154,0.87,96,1.19,96,1.15,No,sure,cr,1.6222758293151855,NA
169,my9!h78,False,154,1,unequal,DT1_high_5_a1,P != T1?,Different,1,1,high,96,1.18,132,0.87,82,1.21,No,quiteSure,cr,4.187334060668945,NA
170,my9!h78,False,155,1,unequal,ST1_high_4_a2,P != T1?,Same,1,2,high,96,1.09,70,1.82,96,1.27,No,unsure,cr,6.180064678192139,NA
171,my9!h78,False,156,1,unequal,ST2_high_2_a2,P != T2?,Same,2,2,high,112,1.1,82,1.49,82,1.38,No,unsure,cr,5.726839065551758,NA
172,my9!h78,False,157,1,unequal,ST2_low_5_a2,P != T2?,Same,2,2,low,96,1.32,154,0.77,154,0.93,No,quiteSure,cr,11.422990798950195,NA
173,my9!h78,False,158,1,unequal,ST2_high_3_a1,P != T1?,Same,2,1,high,70,1.61,96,1.15,96,1.26,No,quiteSure,miss,1.4711811542510986,NA
174,my9!h78,False,159,1,unequal,ST2_low_5_a2,P != T1?,Same,2,2,low,96,1.28,154,0.87,154,0.71,Yes,sure,hit,2.246558904647827,NA
175,my9!h78,False,160,1,unequal,ST1_high_3_a1,P != T1?,Same,1,1,high,70,1.8,96,1.38,70,1.65,Yes,unsure,fa,2.6025259494781494,NA
176,my9!h78,False,161,1,unequal,ST1_high_1_a1,P != T1?,Same,1,1,high,82,1.27,112,1.0,82,1.63,No,quiteSure,cr,3.272660970687866,NA
177,my9!h78,False,162,1,unequal,ST2_low_1_a2,P != T2?,Same,2,2,low,82,1.33,132,0.96,132,0.96,Yes,quiteSure,fa,4.559499979019165,NA
178,my9!h78,False,163,1,unequal,ST1_low_2_a2,P != T2?,Same,1,2,low,132,0.9,82,1.64,132,0.8,Yes,quiteSure,hit,8.276551008224487,NA
179,my9!h78,False,164,1,unequal,ST1_high_4_a1,P != T2?,Same,1,1,high,96,1.36,70,1.6,96,1.33,No,unsure,miss,3.97641658782959,NA
180,my9!h78,False,165,1,unequal,ST1_high_4_a2,P != T2?,Same,1,2,high,96,1.41,70,1.43,96,1.39,No,unsure,miss,4.649425983428955,NA
181,my9!h78,False,166,1,unequal,ST1_high_4_a1,P != T1?,Same,1,1,high,96,1.12,70,1.45,96,1.19,No,quiteSure,cr,6.04048490524292,NA
182,my9!h78,False,167,1,unequal,ST2_low_2_a2,P != T1?,Same,2,2,low,132,0.8,82,1.47,82,1.55,Yes,quiteSure,hit,3.185190200805664,NA
183,my9!h78,False,168,1,unequal,STb_1_a2,P != T1?,Same,0,2,None,60,1.72,60,1.7,60,1.67,Yes,quiteSure,fa,1.970400094985962,NA
184,my9!h78,False,169,1,unequal,ST1_high_6_a1,P != T1?,Same,1,1,high,132,0.85,96,1.42,132,0.82,No,unsure,cr,8.407445192337036,NA
185,my9!h78,False,170,1,unequal,ST2_low_6_a2,P != T2?,Same,2,2,low,154,0.71,96,1.21,96,1.24,No,quiteSure,cr,2.67008900642395,NA
186,my9!h78,False,171,1,unequal,ST2_low_5_a2,P != T2?,Same,2,2,low,96,1.26,154,0.94,154,0.96,No,sure,cr,1.994211196899414,NA
187,my9!h78,False,172,1,unequal,ST1_low_5_a1,P != T1?,Same,1,1,low,96,1.35,154,0.89,96,1.12,No,quiteSure,cr,4.044363021850586,NA
188,my9!h78,False,173,1,unequal,DT2_low_4_a1,P != T1?,Different,2,1,low,112,1.1,70,1.45,60,1.78,Yes,quiteSure,hit,5.890225172042847,NA
189,my9!h78,False,174,1,unequal,ST1_low_1_a2,P != T2?,Same,1,2,low,82,1.4,132,0.87,82,1.63,Yes,quiteSure,hit,9.086865901947021,NA
190,my9!h78,False,175,1,unequal,DT1_low_2_a2,P != T1?,Different,1,2,low,132,0.97,82,1.28,154,0.95,Yes,unsure,fa,12.256896018981934,NA
191,my9!h78,False,176,1,unequal,ST2_low_3_a1,P != T2?,Same,2,1,low,70,1.74,112,1.13,112,1.0,No,sure,cr,5.236162185668945,NA
192,my9!h78,False,177,1,unequal,ST2_low_3_a2,P != T2?,Same,2,2,low,70,1.46,112,1.09,112,0.99,No,sure,cr,1.5473530292510986,NA
193,my9!h78,False,178,1,unequal,ST1_low_1_a1,P != T2?,Same,1,1,low,82,1.47,132,0.87,82,1.46,Yes,quiteSure,hit,1.8203978538513184,NA
194,my9!h78,False,179,1,unequal,ST1_low_2_a2,P != T1?,Same,1,2,low,132,1.02,82,1.47,132,0.96,No,quiteSure,cr,12.86668610572815,NA
195,my9!h78,False,180,1,unequal,ST1_high_1_a1,P != T2?,Same,1,1,high,82,1.37,112,1.1,82,1.56,Yes,quiteSure,hit,3.0080809593200684,NA
196,my9!h78,False,181,1,unequal,ST2_low_2_a1,P != T1?,Same,2,1,low,132,1.02,82,1.3,82,1.43,Yes,quiteSure,hit,6.856949329376221,NA
197,my9!h78,False,182,1,unequal,DT2_low_5_a1,P != T2?,Different,2,1,low,96,1.43,154,0.82,180,0.85,Yes,sure,fa,2.7599451541900635,NA
198,my9!h78,False,183,1,unequal,ST1_high_3_a2,P != T1?,Same,1,2,high,70,1.4,96,1.11,70,1.56,No,quiteSure,cr,6.786701202392578,NA
199,my9!h78,False,184,1,unequal,ST1_low_5_a1,P != T2?,Same,1,1,low,96,1.12,154,0.92,96,1.31,Yes,sure,hit,2.289299964904785,NA
200,my9!h78,False,185,1,unequal,ST1_low_5_a2,P != T1?,Same,1,2,low,96,1.1,154,0.83,96,1.16,No,sure,cr,3.0281248092651367,NA
201,my9!h78,False,186,1,unequal,ST1_low_5_a1,P != T2?,Same,1,1,low,96,1.38,154,0.76,96,1.42,Yes,quiteSure,hit,6.69928503036499,NA
202,my9!h78,False,187,1,unequal,ST2_low_6_a1,P != T2?,Same,2,1,low,154,0.91,96,1.14,96,1.09,No,quiteSure,cr,2.48545503616333,NA
203,my9!h78,False,188,1,unequal,ST2_low_1_a2,P != T2?,Same,2,2,low,82,1.26,132,0.92,132,0.8,No,sure,cr,3.34269380569458,NA
204,my9!h78,False,189,1,unequal,ST2_low_2_a1,P != T2?,Same,2,1,low,132,0.97,82,1.52,82,1.48,No,quiteSure,cr,9.867977857589722,NA
205,my9!h78,False,190,1,unequal,ST2_high_3_a1,P != T2?,Same,2,1,high,70,1.75,96,1.23,96,1.41,No,sure,cr,1.9945359230041504,NA
206,my9!h78,False,191,1,unequal,ST1_low_1_a1,P != T1?,Same,1,1,low,82,1.24,132,1.03,82,1.27,No,quiteSure,cr,2.396440029144287,NA
207,my9!h78,False,192,1,unequal,ST1_high_3_a1,P != T1?,Same,1,1,high,70,1.47,96,1.26,70,1.81,Yes,unsure,fa,6.3837199211120605,NA
208,my9!h78,False,193,1,unequal,ST2_high_4_a1,P != T2?,Same,2,1,high,96,1.37,70,1.57,70,1.54,Yes,unsure,fa,2.400730848312378,NA
209,my9!h78,False,194,1,unequal,ST2_low_3_a2,P != T2?,Same,2,2,low,70,1.39,112,0.95,112,1.02,No,sure,cr,1.8839638233184814,NA
210,my9!h78,False,195,1,unequal,ST1_high_1_a2,P != T2?,Same,1,2,high,82,1.29,112,1.07,82,1.37,Yes,sure,hit,2.2468459606170654,NA
211,my9!h78,False,196,1,unequal,ST1_low_3_a1,P != T1?,Same,1,1,low,70,1.51,112,1.1,70,1.81,No,unsure,cr,7.286387920379639,NA
212,my9!h78,False,197,1,unequal,ST1_high_2_a2,P != T2?,Same,1,2,high,112,1.05,82,1.4,112,1.23,Yes,quiteSure,hit,1.6606488227844238,NA
213,my9!h78,False,198,1,unequal,ST1_low_4_a2,P != T2?,Same,1,2,low,112,1.23,70,1.69,112,1.18,Yes,sure,hit,2.3138511180877686,NA
214,my9!h78,False,199,1,unequal,DT1_high_2_a1,P != T2?,Different,1,1,high,112,0.96,82,1.25,132,0.98,Yes,sure,hit,2.0413689613342285,NA
215,my9!h78,False,200,1,unequal,ST1_low_5_a2,P != T1?,Same,1,2,low,96,1.26,154,0.88,96,1.26,No,quiteSure,cr,3.8383090496063232,NA
216,my9!h78,False,201,1,unequal,ST1_high_1_a2,P != T1?,Same,1,2,high,82,1.53,112,1.14,82,1.48,No,quiteSure,cr,14.664951801300049,NA
217,my9!h78,False,202,1,unequal,ST1_low_4_a1,P != T1?,Same,1,1,low,112,0.99,70,1.75,112,1.05,No,quiteSure,cr,2.686293840408325,NA
218,my9!h78,False,203,1,unequal,ST2_high_2_a1,P != T2?,Same,2,1,high,112,1.16,82,1.62,82,1.56,No,sure,cr,3.884539842605591,NA
219,my9!h78,False,204,1,unequal,ST2_high_1_a1,P != T2?,Same,2,1,high,82,1.37,112,1.05,112,1.03,No,sure,cr,1.5575838088989258,NA
220,my9!h78,False,205,1,unequal,ST2_high_6_a1,P != T2?,Same,2,1,high,132,1.02,96,1.34,96,1.07,No,sure,cr,8.1807861328125,NA
221,my9!h78,False,206,1,unequal,ST2_low_1_a1,P != T2?,Same,2,1,low,82,1.47,132,0.75,132,0.9,Yes,quiteSure,fa,7.3051557540893555,NA
222,my9!h78,False,207,1,unequal,ST1_high_5_a1,P != T2?,Same,1,1,high,96,1.41,132,1.03,96,1.37,Yes,sure,hit,3.526846170425415,NA
223,my9!h78,False,208,1,unequal,ST1_low_6_a2,P != T1?,Same,1,2,low,154,0.92,96,1.41,154,0.95,No,quiteSure,cr,5.120943784713745,NA
224,my9!h78,False,209,1,unequal,ST1_low_4_a1,P != T2?,Same,1,1,low,112,1.08,70,1.51,112,1.1,Yes,sure,hit,2.4014880657196045,NA
225,my9!h78,False,210,1,unequal,DT2_high_1_a2,P != T2?,Different,2,2,high,82,1.52,112,1.07,132,1.02,Yes,quiteSure,fa,3.0979931354522705,NA
226,my9!h78,False,211,1,unequal,ST1_low_3_a2,P != T2?,Same,1,2,low,70,1.69,112,1.21,70,1.58,Yes,sure,hit,2.355365037918091,NA
227,my9!h78,False,212,1,unequal,ST1_low_1_a1,P != T2?,Same,1,1,low,82,1.52,132,0.94,82,1.38,Yes,sure,hit,1.7271039485931396,NA
228,my9!h78,False,213,1,unequal,ST1_low_1_a2,P != T2?,Same,1,2,low,82,1.38,132,0.91,82,1.61,Yes,quiteSure,hit,8.520219326019287,NA
229,my9!h78,False,214,1,unequal,ST1_low_6_a2,P != T2?,Same,1,2,low,154,0.74,96,1.24,154,0.79,Yes,quiteSure,hit,2.2441320419311523,NA
230,my9!h78,False,215,1,unequal,ST2_high_6_a2,P != T2?,Same,2,2,high,132,1.02,96,1.28,96,1.23,No,sure,cr,7.21787428855896,NA
231,my9!h78,False,216,1,unequal,ST1_low_4_a1,P != T2?,Same,1,1,low,112,1.25,70,1.69,112,0.96,Yes,sure,hit,2.3583569526672363,NA
232,my9!h78,False,217,1,unequal,ST2_high_3_a2,P != T2?,Same,2,2,high,70,1.6,96,1.06,96,1.13,No,sure,cr,2.021177053451538,NA
233,my9!h78,False,218,1,unequal,ST2_high_5_a2,P != T1?,Same,2,2,high,96,1.18,132,0.81,132,0.79,Yes,quiteSure,hit,6.8789026737213135,NA
234,my9!h78,False,219,1,unequal,ST2_high_6_a2,P != T2?,Same,2,2,high,132,1.05,96,1.07,96,1.1,No,sure,cr,4.133691072463989,NA
235,my9!h78,False,220,1,unequal,ST2_high_2_a1,P != T2?,Same,2,1,high,112,1.22,82,1.55,82,1.39,No,quiteSure,cr,2.4222500324249268,NA
236,my9!h78,False,221,1,unequal,ST2_high_3_a1,P != T1?,Same,2,1,high,70,1.64,96,1.11,96,1.23,Yes,quiteSure,hit,5.5059168338775635,NA
237,my9!h78,False,222,1,unequal,ST2_low_3_a1,P != T2?,Same,2,1,low,70,1.4,112,1.04,112,1.05,No,sure,cr,2.846626043319702,NA
238,my9!h78,False,223,1,unequal,ST2_low_5_a2,P != T1?,Same,2,2,low,96,1.22,154,0.93,154,0.93,Yes,sure,hit,5.711935043334961,NA
239,my9!h78,False,224,1,unequal,DT2_low_6_a2,P != T1?,Different,2,2,low,154,0.81,96,1.33,82,1.29,Yes,sure,hit,2.2643959522247314,NA
240,my9!h78,False,225,1,unequal,ST2_high_6_a1,P != T2?,Same,2,1,high,132,0.93,96,1.15,96,1.34,No,sure,cr,2.4032680988311768,NA
241,my9!h78,False,226,1,unequal,ST1_low_1_a2,P != T1?,Same,1,2,low,82,1.53,132,0.87,82,1.55,Yes,quiteSure,fa,1.9954180717468262,NA
242,my9!h78,False,227,1,unequal,ST1_low_2_a2,P != T2?,Same,1,2,low,132,0.91,82,1.24,132,0.99,Yes,sure,hit,1.8378880023956299,NA
243,my9!h78,False,228,1,unequal,ST2_low_4_a2,P != T2?,Same,2,2,low,112,1.06,70,1.67,70,1.59,No,sure,cr,2.043063163757324,NA
244,my9!h78,False,229,1,unequal,ST1_low_1_a1,P != T1?,Same,1,1,low,82,1.35,132,1.03,82,1.28,No,unsure,cr,13.270904064178467,NA
245,my9!h78,False,230,1,unequal,ST2_low_3_a2,P != T1?,Same,2,2,low,70,1.43,112,0.98,112,1.21,Yes,quiteSure,hit,1.820857048034668,NA
246,my9!h78,False,231,1,unequal,ST1_high_5_a1,P != T1?,Same,1,1,high,96,1.25,132,0.95,96,1.4,No,quiteSure,cr,2.5832083225250244,NA
247,my9!h78,False,232,1,unequal,ST2_low_4_a1,P != T2?,Same,2,1,low,112,1.06,70,1.49,70,1.69,No,sure,cr,1.6354420185089111,NA
248,my9!h78,False,233,1,unequal,ST2_low_4_a1,P != T2?,Same,2,1,low,112,1.1,70,1.6,70,1.43,No,quiteSure,cr,2.448775291442871,NA
249,my9!h78,False,234,1,unequal,ST1_low_6_a1,P != T2?,Same,1,1,low,154,0.83,96,1.1,154,0.84,No,quiteSure,miss,4.946181774139404,NA
250,my9!h78,False,235,1,unequal,ST1_low_6_a1,P != T2?,Same,1,1,low,154,0.95,96,1.1,154,0.93,Yes,sure,hit,1.7160592079162598,NA
251,my9!h78,False,236,1,unequal,ST2_high_1_a2,P != T1?,Same,2,2,high,82,1.51,112,1.07,112,1.06,Yes,quiteSure,hit,2.739985942840576,NA
252,my9!h78,False,237,1,unequal,ST2_low_6_a2,P != T1?,Same,2,2,low,154,0.87,96,1.4,96,1.06,Yes,sure,hit,3.6378049850463867,NA
253,my9!h78,False,238,1,unequal,STb_4_a2,P != T1?,Same,0,2,None,96,1.01,96,1.2,96,1.22,No,sure,cr,1.6858067512512207,NA
254,my9!h78,False,239,1,unequal,STb_1_a1,P != T2?,Same,0,1,None,60,1.98,60,1.72,60,1.74,No,sure,cr,1.7482049465179443,NA
255,my9!h78,False,240,1,unequal,ST1_high_3_a2,P != T2?,Same,1,2,high,70,1.69,96,1.28,70,1.79,Yes,unsure,hit,3.4361588954925537,NA
256,my9!h78,False,241,1,unequal,ST1_high_4_a2,P != T1?,Same,1,2,high,96,1.2,70,1.68,96,1.33,No,sure,cr,10.592706203460693,NA
257,my9!h78,False,242,1,unequal,ST2_high_6_a1,P != T1?,Same,2,1,high,132,1.02,96,1.09,96,1.1,Yes,sure,hit,1.7892107963562012,NA
258,my9!h78,False,243,1,unequal,ST2_low_6_a1,P != T2?,Same,2,1,low,154,0.81,96,1.18,96,1.25,No,sure,cr,1.9708251953125,NA
259,my9!h78,False,244,1,unequal,ST2_low_2_a2,P != T1?,Same,2,2,low,132,0.89,82,1.46,82,1.62,No,unsure,miss,4.627630949020386,NA
260,my9!h78,False,245,1,unequal,ST1_low_2_a1,P != T1?,Same,1,1,low,132,0.87,82,1.31,132,0.94,No,sure,cr,1.6277177333831787,NA
261,my9!h78,False,246,1,unequal,ST2_high_1_a2,P != T1?,Same,2,2,high,82,1.49,112,1.14,112,1.08,Yes,quiteSure,hit,3.436042070388794,NA
262,my9!h78,False,247,1,unequal,ST1_high_6_a1,P != T1?,Same,1,1,high,132,0.98,96,1.25,132,0.88,No,sure,cr,2.01842999458313,NA
263,my9!h78,False,248,1,unequal,ST2_high_2_a2,P != T2?,Same,2,2,high,112,1.05,82,1.3,82,1.34,No,sure,cr,4.649723768234253,NA
264,my9!h78,False,249,1,unequal,ST2_low_4_a2,P != T1?,Same,2,2,low,112,0.95,70,1.42,70,1.41,Yes,sure,hit,1.5723886489868164,NA
265,my9!h78,False,250,1,unequal,ST2_low_4_a1,P != T2?,Same,2,1,low,112,1.15,70,1.6,70,1.52,No,sure,cr,1.659925937652588,NA
266,my9!h78,False,251,1,unequal,ST2_low_6_a1,P != T2?,Same,2,1,low,154,0.82,96,1.21,96,1.11,No,sure,cr,4.226567983627319,NA
267,my9!h78,False,252,1,unequal,ST2_high_5_a1,P != T2?,Same,2,1,high,96,1.15,132,0.95,132,0.92,No,sure,cr,6.342408895492554,NA
268,my9!h78,False,253,1,unequal,ST2_low_5_a1,P != T1?,Same,2,1,low,96,1.06,154,0.94,154,0.72,Yes,quiteSure,hit,3.708867073059082,NA
269,my9!h78,False,254,1,unequal,ST2_high_6_a2,P != T1?,Same,2,2,high,132,1.03,96,1.12,96,1.2,Yes,quiteSure,hit,2.3734030723571777,NA
270,my9!h78,False,255,1,unequal,ST1_high_6_a2,P != T2?,Same,1,2,high,132,0.98,96,1.08,132,1.04,Yes,quiteSure,hit,2.10941481590271,NA
271,my9!h78,False,256,1,unequal,ST1_low_2_a1,P != T1?,Same,1,1,low,132,0.97,82,1.34,132,1.0,No,quiteSure,cr,3.323124885559082,NA
272,my9!h78,False,257,1,unequal,STb_5_a2,P != T1?,Same,0,2,None,112,1.16,112,0.93,112,0.98,No,sure,cr,1.5708589553833008,NA
273,my9!h78,False,258,1,unequal,ST1_low_5_a2,P != T2?,Same,1,2,low,96,1.35,154,0.83,96,1.15,Yes,sure,hit,1.6394908428192139,NA
274,my9!h78,False,259,1,unequal,ST2_low_5_a1,P != T1?,Same,2,1,low,96,1.22,154,0.87,154,0.88,Yes,quiteSure,hit,2.7376549243927,NA
275,my9!h78,False,260,1,unequal,ST2_low_2_a1,P != T2?,Same,2,1,low,132,1.02,82,1.48,82,1.24,No,unsure,cr,2.7784550189971924,NA
276,my9!h78,False,261,1,unequal,ST2_low_5_a2,P != T1?,Same,2,2,low,96,0.97,154,0.73,154,0.82,Yes,sure,hit,1.8099420070648193,NA
277,my9!h78,False,262,1,unequal,STb_4_a1,P != T1?,Same,0,1,None,96,1.37,96,1.1,96,1.19,No,quiteSure,cr,1.4540600776672363,NA
278,my9!h78,False,263,1,unequal,ST2_high_4_a2,P != T2?,Same,2,2,high,96,1.37,70,1.48,70,1.61,No,sure,cr,3.389540195465088,NA
279,my9!h78,False,264,1,unequal,ST1_high_1_a2,P != T2?,Same,1,2,high,82,1.43,112,1.18,82,1.58,Yes,sure,hit,2.4512267112731934,NA
280,my9!h78,False,265,1,unequal,ST2_high_4_a1,P != T2?,Same,2,1,high,96,1.41,70,1.4,70,1.66,No,quiteSure,cr,29.67366099357605,NA
281,my9!h78,False,266,1,unequal,ST1_high_3_a1,P != T2?,Same,1,1,high,70,1.58,96,1.41,70,1.43,Yes,quiteSure,hit,1.6791958808898926,NA
282,my9!h78,False,267,1,unequal,ST2_high_6_a2,P != T1?,Same,2,2,high,132,0.98,96,1.29,96,1.24,Yes,quiteSure,hit,2.3567922115325928,NA
283,my9!h78,False,268,1,unequal,ST1_high_3_a2,P != T2?,Same,1,2,high,70,1.68,96,1.43,70,1.62,No,unsure,miss,1.972071886062622,NA
284,my9!h78,False,269,1,unequal,ST1_high_1_a1,P != T2?,Same,1,1,high,82,1.63,112,1.06,82,1.62,Yes,quiteSure,hit,2.692121744155884,NA
285,my9!h78,False,270,1,unequal,ST2_low_2_a1,P != T2?,Same,2,1,low,132,1.03,82,1.36,82,1.35,No,sure,cr,8.905168056488037,NA
286,my9!h78,False,271,1,unequal,ST1_low_5_a1,P != T1?,Same,1,1,low,96,1.19,154,0.71,96,1.28,No,sure,cr,2.241377115249634,NA
287,my9!h78,False,272,1,unequal,STb_4_a2,P != T2?,Same,0,2,None,96,1.43,96,1.13,96,1.57,Yes,unsure,fa,2.0397539138793945,NA
288,my9!h78,False,273,1,unequal,ST1_low_4_a1,P != T1?,Same,1,1,low,112,1.01,70,1.8,112,1.2,No,sure,cr,3.3028311729431152,NA
289,my9!h78,False,274,1,unequal,ST2_high_3_a2,P != T2?,Same,2,2,high,70,1.51,96,1.4,96,1.24,No,quiteSure,cr,4.3122758865356445,NA
290,my9!h78,False,275,1,unequal,ST1_low_2_a1,P != T2?,Same,1,1,low,132,1.0,82,1.48,132,1.04,Yes,sure,hit,3.7074148654937744,NA
291,my9!h78,False,276,1,unequal,ST1_low_1_a1,P != T2?,Same,1,1,low,82,1.37,132,1.02,82,1.55,Yes,quiteSure,hit,1.8599863052368164,NA
292,my9!h78,False,277,1,unequal,ST2_low_2_a1,P != T1?,Same,2,1,low,132,0.96,82,1.37,82,1.24,Yes,quiteSure,hit,1.768777847290039,NA
293,my9!h78,False,278,1,unequal,ST1_low_3_a1,P != T1?,Same,1,1,low,70,1.51,112,1.12,70,1.28,No,quiteSure,cr,3.280467987060547,NA
294,my9!h78,False,279,1,unequal,ST1_high_6_a2,P != T2?,Same,1,2,high,132,0.8,96,1.24,132,0.89,Yes,sure,hit,3.7330830097198486,NA
295,my9!h78,False,280,1,unequal,ST1_low_5_a1,P != T1?,Same,1,1,low,96,1.2,154,0.89,96,1.21,No,unsure,cr,11.75836181640625,NA
296,my9!h78,False,281,1,unequal,ST2_high_1_a2,P != T1?,Same,2,2,high,82,1.59,112,1.23,112,1.07,Yes,quiteSure,hit,10.525873899459839,NA
297,my9!h78,False,282,1,unequal,ST1_low_1_a2,P != T1?,Same,1,2,low,82,1.51,132,0.88,82,1.41,No,quiteSure,cr,2.310499906539917,NA
298,my9!h78,False,283,1,unequal,ST2_high_5_a1,P != T1?,Same,2,1,high,96,1.4,132,1.01,132,0.91,Yes,sure,hit,2.7187609672546387,NA
299,my9!h78,False,284,1,unequal,ST1_high_3_a2,P != T1?,Same,1,2,high,70,1.39,96,1.24,70,1.49,Yes,unsure,fa,9.305377960205078,NA
300,my9!h78,False,285,1,unequal,ST2_high_5_a2,P != T2?,Same,2,2,high,96,1.07,132,0.93,132,0.93,No,sure,cr,2.875716209411621,NA
301,my9!h78,False,286,1,unequal,ST1_high_2_a1,P != T1?,Same,1,1,high,112,1.04,82,1.3,112,1.15,No,quiteSure,cr,9.011283874511719,NA
302,my9!h78,False,287,1,unequal,ST2_high_1_a1,P != T1?,Same,2,1,high,82,1.27,112,1.04,112,0.95,Yes,quiteSure,hit,3.707249879837036,NA
303,my9!h78,False,288,1,unequal,ST2_high_2_a2,P != T1?,Same,2,2,high,112,1.12,82,1.25,82,1.56,Yes,sure,hit,1.5700628757476807,NA
304,my9!h78,False,289,1,unequal,ST1_high_1_a1,P != T2?,Same,1,1,high,82,1.64,112,1.14,82,1.45,Yes,sure,hit,1.5045509338378906,NA
305,my9!h78,False,290,1,unequal,ST2_low_1_a1,P != T1?,Same,2,1,low,82,1.26,132,0.97,132,1.02,Yes,quiteSure,hit,3.6661760807037354,NA
306,my9!h78,False,291,1,unequal,ST2_high_5_a2,P != T1?,Same,2,2,high,96,1.31,132,0.93,132,0.89,Yes,quiteSure,hit,1.3876097202301025,NA
307,my9!h78,False,292,1,unequal,ST2_low_5_a2,P != T2?,Same,2,2,low,96,1.16,154,0.75,154,0.82,No,sure,cr,2.1554512977600098,NA
308,my9!h78,False,293,1,unequal,ST2_low_2_a2,P != T2?,Same,2,2,low,132,0.84,82,1.27,82,1.51,No,sure,cr,1.4759812355041504,NA
309,my9!h78,False,294,1,unequal,ST1_high_3_a2,P != T1?,Same,1,2,high,70,1.69,96,1.38,70,1.74,No,quiteSure,cr,4.6753010749816895,NA
310,my9!h78,False,295,1,unequal,ST1_high_5_a2,P != T2?,Same,1,2,high,96,1.13,132,0.8,96,1.07,Yes,quiteSure,hit,2.2851498126983643,NA
311,my9!h78,False,296,1,unequal,ST2_low_4_a1,P != T1?,Same,2,1,low,112,0.94,70,1.51,70,1.48,Yes,quiteSure,hit,2.851130247116089,NA
312,my9!h78,False,297,1,unequal,ST1_high_5_a2,P != T2?,Same,1,2,high,96,1.07,132,1.02,96,1.41,Yes,sure,hit,1.7904579639434814,NA
313,my9!h78,False,298,1,unequal,ST2_high_4_a2,P != T2?,Same,2,2,high,96,1.4,70,1.58,70,1.74,No,quiteSure,cr,2.8727810382843018,NA
314,my9!h78,False,299,1,unequal,ST2_high_1_a1,P != T2?,Same,2,1,high,82,1.3,112,1.08,112,1.07,No,sure,cr,1.7948391437530518,NA
315,my9!h78,False,300,1,unequal,ST2_low_3_a1,P != T1?,Same,2,1,low,70,1.38,112,1.16,112,1.21,Yes,quiteSure,hit,4.506988048553467,NA
316,my9!h78,False,301,1,unequal,ST1_low_2_a1,P != T1?,Same,1,1,low,132,0.83,82,1.33,132,0.81,No,unsure,cr,2.0167160034179688,NA
317,my9!h78,False,302,1,unequal,ST2_high_6_a2,P != T2?,Same,2,2,high,132,0.89,96,1.16,96,1.24,No,sure,cr,1.2702887058258057,NA
318,my9!h78,False,303,1,unequal,ST2_low_1_a1,P != T1?,Same,2,1,low,82,1.47,132,0.84,132,0.87,Yes,quiteSure,hit,2.4048540592193604,NA
319,my9!h78,False,304,1,unequal,ST1_high_6_a2,P != T2?,Same,1,2,high,132,0.91,96,1.28,132,1.03,Yes,sure,hit,2.265676975250244,NA
320,my9!h78,False,305,1,unequal,ST2_high_2_a2,P != T2?,Same,2,2,high,112,0.97,82,1.22,82,1.47,Yes,sure,fa,2.7638468742370605,NA
321,my9!h78,False,306,1,unequal,ST1_low_3_a1,P != T1?,Same,1,1,low,70,1.47,112,0.96,70,1.45,No,quiteSure,cr,2.9860129356384277,NA
322,my9!h78,False,307,1,unequal,ST1_low_6_a1,P != T2?,Same,1,1,low,154,0.95,96,1.33,154,0.88,Yes,sure,hit,1.9520492553710938,NA
323,my9!h78,False,308,1,unequal,ST1_high_5_a2,P != T2?,Same,1,2,high,96,1.37,132,0.85,96,1.16,Yes,quiteSure,hit,1.342357873916626,NA
324,my9!h78,False,309,1,unequal,ST1_low_4_a2,P != T2?,Same,1,2,low,112,1.17,70,1.66,112,1.07,Yes,quiteSure,hit,1.9207079410552979,NA
325,my9!h78,False,310,1,unequal,ST1_low_4_a2,P != T1?,Same,1,2,low,112,0.98,70,1.65,112,1.0,No,quiteSure,cr,2.624375104904175,NA
326,my9!h78,False,311,1,unequal,ST2_high_2_a1,P != T2?,Same,2,1,high,112,1.03,82,1.24,82,1.38,No,sure,cr,1.5447719097137451,NA
327,my9!h78,False,312,1,unequal,ST2_low_1_a1,P != T2?,Same,2,1,low,82,1.59,132,1.01,132,0.9,No,sure,cr,1.605093002319336,NA
328,my9!h78,False,313,1,unequal,ST1_high_2_a2,P != T2?,Same,1,2,high,112,1.18,82,1.34,112,1.13,Yes,quiteSure,hit,2.5155951976776123,NA
329,my9!h78,False,314,1,unequal,ST2_high_2_a1,P != T1?,Same,2,1,high,112,0.93,82,1.23,82,1.58,Yes,quiteSure,hit,2.4630229473114014,NA
330,my9!h78,False,315,1,unequal,ST1_high_1_a1,P != T1?,Same,1,1,high,82,1.53,112,1.05,82,1.28,No,quiteSure,cr,5.848169803619385,NA
331,my9!h78,False,316,1,unequal,ST2_low_3_a2,P != T1?,Same,2,2,low,70,1.7,112,0.98,112,1.2,Yes,sure,hit,6.42802095413208,NA
332,my9!h78,False,317,1,unequal,ST2_high_3_a1,P != T2?,Same,2,1,high,70,1.54,96,1.09,96,1.29,No,sure,cr,1.362349033355713,NA
333,my9!h78,False,318,1,unequal,ST2_high_3_a2,P != T2?,Same,2,2,high,70,1.37,96,1.41,96,1.42,No,sure,cr,1.3614330291748047,NA
334,my9!h78,False,319,1,unequal,ST1_high_2_a2,P != T1?,Same,1,2,high,112,1.1,82,1.46,112,0.99,No,quiteSure,cr,2.7161881923675537,NA
335,my9!h78,False,320,1,unequal,ST1_low_2_a2,P != T2?,Same,1,2,low,132,0.79,82,1.23,132,0.87,Yes,quiteSure,hit,3.2781238555908203,1.0
