,pcode,practice,trial,block,questionType,condition,question,PTS,TargetPosition,AccessoryPosition,TNS,T1_hz,T1_amp,T2_hz,T2_amp,P_hz,P_amp,response_dicho,response_rating,response_sdt,rt,P_correct
0,2s!m14b,True,1,2,equal,ST1_low_2_a1,P = T1?,Same,1,1,low,132,1.07,82,1.69,132,0.91,No,sure,miss,3.692228078842163,NA
1,2s!m14b,True,2,2,equal,STb_6_a1,P = T1?,Same,0,1,None,132,1.02,132,1.0,132,0.91,Yes,sure,hit,2.1321861743927,NA
2,2s!m14b,True,3,2,equal,ST2_low_2_a2,P = T1?,Same,2,2,low,132,0.8,82,1.24,82,1.21,No,sure,cr,1.9203379154205322,NA
3,2s!m14b,True,4,2,equal,ST2_low_2_a1,P = T2?,Same,2,1,low,132,1.05,82,1.68,82,1.17,Yes,sure,hit,3.601547956466675,NA
4,2s!m14b,True,5,2,equal,ST2_low_1_a2,P = T2?,Same,2,2,low,82,1.37,132,0.95,132,0.95,Yes,sure,hit,2.2219440937042236,NA
5,2s!m14b,True,6,2,equal,DT2_low_5_a1,P = T2?,Different,2,1,low,96,1.24,154,0.8,180,0.74,No,sure,miss,2.40103816986084,NA
6,2s!m14b,True,7,2,equal,DT2_high_1_a1,P = T1?,Different,2,1,high,82,1.45,112,0.94,132,0.94,No,sure,cr,2.6419548988342285,NA
7,2s!m14b,True,8,2,equal,ST1_low_4_a2,P = T1?,Same,1,2,low,112,1.18,70,1.28,112,1.13,Yes,sure,hit,2.5797080993652344,NA
8,2s!m14b,True,9,2,equal,STb_3_a1,P = T2?,Same,0,1,None,82,1.75,82,1.27,82,1.32,Yes,sure,hit,1.7715401649475098,NA
9,2s!m14b,True,10,2,equal,ST1_high_5_a2,P = T2?,Same,1,2,high,96,0.99,132,0.84,96,0.99,Yes,sure,fa,1.5639359951019287,NA
10,2s!m14b,True,11,2,equal,DT1_high_3_a2,P = T1?,Different,1,2,high,70,1.88,96,0.98,60,1.81,Yes,sure,hit,1.2319509983062744,NA
11,2s!m14b,True,12,2,equal,DT1_low_1_a1,P = T2?,Different,1,1,low,82,1.45,132,1.0,70,1.47,No,sure,cr,1.3252170085906982,NA
12,2s!m14b,True,13,2,equal,STb_7_a1,P = T1?,Same,0,1,None,154,0.73,154,0.79,154,0.92,Yes,sure,hit,2.2500271797180176,NA
13,2s!m14b,True,14,2,equal,ST2_high_5_a1,P = T1?,Same,2,1,high,96,1.28,132,1.05,132,0.84,No,sure,cr,1.771345853805542,NA
14,2s!m14b,True,15,2,equal,STb_5_a2,P = T2?,Same,0,2,None,112,1.03,112,1.24,112,0.87,Yes,sure,hit,3.6902639865875244,NA
15,2s!m14b,True,16,2,equal,ST1_low_1_a1,P = T2?,Same,1,1,low,82,1.36,132,0.95,82,1.5,No,sure,cr,3.2478768825531006,0.625
16,2s!m14b,False,1,2,equal,ST1_low_4_a1,P = T1?,Same,1,1,low,112,1.02,70,1.76,112,1.02,No,sure,miss,1.8345022201538086,NA
17,2s!m14b,False,2,2,equal,STb_7_a2,P = T1?,Same,0,2,None,154,0.75,154,0.89,154,0.72,Yes,sure,hit,2.4749181270599365,NA
18,2s!m14b,False,3,2,equal,ST2_low_3_a2,P = T2?,Same,2,2,low,70,1.82,112,1.15,112,1.15,Yes,quiteSure,hit,1.5028092861175537,NA
19,2s!m14b,False,4,2,equal,ST2_high_5_a1,P = T2?,Same,2,1,high,96,1.21,132,1.06,132,0.82,No,sure,miss,1.3474926948547363,NA
20,2s!m14b,False,5,2,equal,DT2_low_2_a1,P = T1?,Different,2,1,low,132,0.92,82,1.34,70,1.67,No,sure,cr,1.588080883026123,NA
21,2s!m14b,False,6,2,equal,ST1_high_1_a1,P = T1?,Same,1,1,high,82,1.44,112,0.97,82,1.35,No,quiteSure,miss,1.6471021175384521,NA
22,2s!m14b,False,7,2,equal,ST2_high_5_a2,P = T2?,Same,2,2,high,96,1.08,132,0.94,132,1.04,Yes,sure,hit,2.4948267936706543,NA
23,2s!m14b,False,8,2,equal,ST2_high_4_a2,P = T2?,Same,2,2,high,96,1.32,70,1.4,70,1.4,Yes,sure,hit,1.7086598873138428,NA
24,2s!m14b,False,9,2,equal,ST1_high_3_a2,P = T2?,Same,1,2,high,70,1.66,96,1.28,70,1.43,No,sure,cr,1.59309983253479,NA
25,2s!m14b,False,10,2,equal,ST1_high_1_a1,P = T2?,Same,1,1,high,82,1.42,112,0.93,82,1.27,No,sure,cr,1.020064115524292,NA
26,2s!m14b,False,11,2,equal,ST1_high_3_a1,P = T1?,Same,1,1,high,70,1.75,96,1.4,70,1.75,Yes,quiteSure,hit,2.0119709968566895,NA
27,2s!m14b,False,12,2,equal,ST1_high_2_a2,P = T1?,Same,1,2,high,112,1.0,82,1.45,112,0.96,No,quiteSure,miss,1.5309839248657227,NA
28,2s!m14b,False,13,2,equal,ST2_high_6_a2,P = T2?,Same,2,2,high,132,0.81,96,1.36,96,1.15,No,quiteSure,miss,1.919154167175293,NA
29,2s!m14b,False,14,2,equal,ST2_high_5_a2,P = T2?,Same,2,2,high,96,1.13,132,0.98,132,0.97,Yes,sure,hit,1.1708128452301025,NA
30,2s!m14b,False,15,2,equal,DT2_low_6_a2,P = T1?,Different,2,2,low,154,0.77,96,1.39,82,1.26,No,unsure,cr,1.4432661533355713,NA
31,2s!m14b,False,16,2,equal,ST1_low_4_a2,P = T2?,Same,1,2,low,112,1.23,70,1.53,112,1.15,No,sure,cr,1.4989628791809082,NA
32,2s!m14b,False,17,2,equal,ST2_high_1_a2,P = T2?,Same,2,2,high,82,1.22,112,1.16,112,1.09,Yes,sure,hit,1.2062139511108398,NA
33,2s!m14b,False,18,2,equal,ST2_high_2_a1,P = T1?,Same,2,1,high,112,1.21,82,1.51,82,1.38,No,sure,cr,1.1101338863372803,NA
34,2s!m14b,False,19,2,equal,DT1_high_4_a2,P = T1?,Different,1,2,high,96,1.09,70,1.72,112,1.06,Yes,sure,hit,1.0523688793182373,NA
35,2s!m14b,False,20,2,equal,ST2_low_5_a2,P = T1?,Same,2,2,low,96,1.23,154,0.92,154,0.86,No,quiteSure,cr,1.6514029502868652,NA
36,2s!m14b,False,21,2,equal,ST2_high_3_a2,P = T2?,Same,2,2,high,70,1.55,96,1.09,96,1.1,No,sure,miss,1.047616958618164,NA
37,2s!m14b,False,22,2,equal,ST1_high_2_a1,P = T1?,Same,1,1,high,112,0.95,82,1.23,112,1.02,No,unsure,miss,1.7426931858062744,NA
38,2s!m14b,False,23,2,equal,ST1_low_4_a2,P = T1?,Same,1,2,low,112,1.07,70,1.42,112,1.16,Yes,sure,hit,0.9913229942321777,NA
39,2s!m14b,False,24,2,equal,ST2_low_4_a2,P = T2?,Same,2,2,low,112,1.03,70,1.44,70,1.56,Yes,sure,hit,1.8279831409454346,NA
40,2s!m14b,False,25,2,equal,ST1_low_6_a1,P = T1?,Same,1,1,low,154,0.94,96,1.31,154,0.78,No,unsure,miss,1.828073263168335,NA
41,2s!m14b,False,26,2,equal,ST1_low_5_a2,P = T2?,Same,1,2,low,96,1.15,154,0.71,96,1.33,No,sure,cr,1.8631401062011719,NA
42,2s!m14b,False,27,2,equal,DT1_high_5_a1,P = T1?,Different,1,1,high,96,1.13,132,0.94,82,1.41,Yes,quiteSure,hit,1.8280870914459229,NA
43,2s!m14b,False,28,2,equal,ST1_high_6_a2,P = T2?,Same,1,2,high,132,1.05,96,1.33,132,1.01,No,sure,cr,1.4443280696868896,NA
44,2s!m14b,False,29,2,equal,ST2_high_4_a1,P = T2?,Same,2,1,high,96,1.36,70,1.37,70,1.52,Yes,sure,hit,1.563446044921875,NA
45,2s!m14b,False,30,2,equal,STb_1_a1,P = T1?,Same,0,1,None,60,1.87,60,1.78,60,1.71,Yes,quiteSure,hit,1.980893850326538,NA
46,2s!m14b,False,31,2,equal,ST2_high_6_a2,P = T2?,Same,2,2,high,132,0.83,96,1.42,96,1.18,Yes,sure,hit,1.2611351013183594,NA
47,2s!m14b,False,32,2,equal,ST1_high_6_a2,P = T1?,Same,1,2,high,132,0.81,96,1.2,132,1.04,Yes,quiteSure,hit,2.338632822036743,NA
48,2s!m14b,False,33,2,equal,ST1_low_5_a2,P = T1?,Same,1,2,low,96,1.16,154,0.76,96,1.42,No,unsure,miss,0.932884931564331,NA
49,2s!m14b,False,34,2,equal,ST1_low_5_a1,P = T1?,Same,1,1,low,96,1.39,154,0.73,96,1.23,No,quiteSure,miss,1.293299913406372,NA
50,2s!m14b,False,35,2,equal,STb_3_a1,P = T2?,Same,0,1,None,82,1.75,82,1.27,82,1.32,No,sure,miss,1.4981658458709717,NA
51,2s!m14b,False,36,2,equal,ST2_high_3_a2,P = T2?,Same,2,2,high,70,1.59,96,1.41,96,1.17,Yes,sure,hit,1.0511879920959473,NA
52,2s!m14b,False,37,2,equal,ST2_low_6_a1,P = T1?,Same,2,1,low,154,0.95,96,1.43,96,1.21,No,sure,cr,1.62418794631958,NA
53,2s!m14b,False,38,2,equal,ST2_low_1_a2,P = T1?,Same,2,2,low,82,1.23,132,0.96,132,1.02,No,sure,cr,1.5915420055389404,NA
54,2s!m14b,False,39,2,equal,ST1_low_2_a2,P = T2?,Same,1,2,low,132,1.06,82,1.61,132,0.86,No,sure,cr,1.9184229373931885,NA
55,2s!m14b,False,40,2,equal,ST2_low_5_a1,P = T2?,Same,2,1,low,96,1.24,154,0.94,154,0.76,No,sure,miss,1.1122839450836182,NA
56,2s!m14b,False,41,2,equal,ST1_low_6_a2,P = T1?,Same,1,2,low,154,0.77,96,1.08,154,0.88,Yes,quiteSure,hit,2.7920517921447754,NA
57,2s!m14b,False,42,2,equal,ST2_low_2_a1,P = T2?,Same,2,1,low,132,0.96,82,1.64,82,1.22,Yes,sure,hit,1.2863481044769287,NA
58,2s!m14b,False,43,2,equal,ST2_low_3_a1,P = T1?,Same,2,1,low,70,1.61,112,1.04,112,0.94,Yes,sure,fa,0.8971068859100342,NA
59,2s!m14b,False,44,2,equal,ST2_low_1_a1,P = T2?,Same,2,1,low,82,1.59,132,0.96,132,0.81,No,sure,miss,0.6616640090942383,NA
60,2s!m14b,False,45,2,equal,ST2_low_2_a1,P = T2?,Same,2,1,low,132,1.05,82,1.61,82,1.56,Yes,quiteSure,hit,1.0814588069915771,NA
61,2s!m14b,False,46,2,equal,ST1_high_3_a2,P = T1?,Same,1,2,high,70,1.59,96,1.06,70,1.45,No,quiteSure,miss,1.2608048915863037,NA
62,2s!m14b,False,47,2,equal,ST2_low_3_a1,P = T2?,Same,2,1,low,70,1.68,112,1.02,112,1.1,Yes,sure,hit,1.772369146347046,NA
63,2s!m14b,False,48,2,equal,ST2_low_6_a1,P = T2?,Same,2,1,low,154,0.89,96,1.31,96,1.28,No,sure,miss,1.2929880619049072,NA
64,2s!m14b,False,49,2,equal,ST1_low_2_a2,P = T1?,Same,1,2,low,132,1.05,82,1.36,132,0.79,Yes,sure,hit,1.2118949890136719,NA
65,2s!m14b,False,50,2,equal,ST2_low_2_a2,P = T2?,Same,2,2,low,132,0.87,82,1.23,82,1.62,No,sure,miss,1.1113312244415283,NA
66,2s!m14b,False,51,2,equal,ST1_high_1_a2,P = T1?,Same,1,2,high,82,1.29,112,1.02,82,1.25,Yes,quiteSure,hit,1.4398219585418701,NA
67,2s!m14b,False,52,2,equal,ST1_low_3_a2,P = T2?,Same,1,2,low,70,1.7,112,0.94,70,1.49,No,sure,cr,1.0807690620422363,NA
68,2s!m14b,False,53,2,equal,ST2_high_5_a1,P = T1?,Same,2,1,high,96,1.2,132,0.82,132,0.98,No,quiteSure,cr,1.1963527202606201,NA
69,2s!m14b,False,54,2,equal,DT2_high_6_a1,P = T2?,Different,2,1,high,132,1.05,96,1.1,82,1.26,No,quiteSure,miss,2.9421629905700684,NA
70,2s!m14b,False,55,2,equal,ST1_high_4_a2,P = T1?,Same,1,2,high,96,1.23,70,1.78,96,1.2,Yes,sure,hit,1.5901927947998047,NA
71,2s!m14b,False,56,2,equal,ST2_low_3_a1,P = T2?,Same,2,1,low,70,1.83,112,1.05,112,0.96,Yes,sure,hit,2.25071382522583,NA
72,2s!m14b,False,57,2,equal,ST1_high_4_a1,P = T2?,Same,1,1,high,96,1.27,70,1.44,96,1.25,No,sure,cr,1.1736042499542236,NA
73,2s!m14b,False,58,2,equal,ST2_low_1_a2,P = T2?,Same,2,2,low,82,1.37,132,0.95,132,0.95,Yes,sure,hit,1.8303489685058594,NA
74,2s!m14b,False,59,2,equal,ST1_high_2_a1,P = T2?,Same,1,1,high,112,0.96,82,1.37,112,1.18,Yes,sure,fa,1.5919830799102783,NA
75,2s!m14b,False,60,2,equal,ST2_low_3_a1,P = T1?,Same,2,1,low,70,1.76,112,1.06,112,1.14,No,sure,cr,2.705319881439209,NA
76,2s!m14b,False,61,2,equal,ST1_high_3_a1,P = T2?,Same,1,1,high,70,1.75,96,1.12,70,1.47,No,sure,cr,1.0844337940216064,NA
77,2s!m14b,False,62,2,equal,ST1_low_5_a2,P = T2?,Same,1,2,low,96,1.21,154,0.89,96,1.08,No,sure,cr,1.5902252197265625,NA
78,2s!m14b,False,63,2,equal,ST2_high_4_a1,P = T1?,Same,2,1,high,96,1.16,70,1.4,70,1.43,Yes,unsure,fa,1.4426991939544678,NA
79,2s!m14b,False,64,2,equal,ST2_low_2_a1,P = T1?,Same,2,1,low,132,1.02,82,1.34,82,1.23,No,sure,cr,1.290348768234253,NA
80,2s!m14b,False,65,2,equal,ST2_high_2_a2,P = T1?,Same,2,2,high,112,1.04,82,1.22,82,1.61,No,quiteSure,cr,1.4154632091522217,NA
81,2s!m14b,False,66,2,equal,ST1_low_4_a1,P = T2?,Same,1,1,low,112,0.94,70,1.76,112,0.92,No,sure,cr,1.1702709197998047,NA
82,2s!m14b,False,67,2,equal,ST2_high_4_a2,P = T1?,Same,2,2,high,96,1.22,70,1.67,70,1.61,No,sure,cr,2.0418949127197266,NA
83,2s!m14b,False,68,2,equal,ST2_high_2_a1,P = T2?,Same,2,1,high,112,1.17,82,1.27,82,1.59,No,quiteSure,miss,1.0524508953094482,NA
84,2s!m14b,False,69,2,equal,ST2_high_4_a2,P = T1?,Same,2,2,high,96,1.2,70,1.83,70,1.79,No,unsure,cr,1.5613529682159424,NA
85,2s!m14b,False,70,2,equal,ST2_low_2_a1,P = T1?,Same,2,1,low,132,0.99,82,1.5,82,1.29,Yes,quiteSure,fa,1.8620307445526123,NA
86,2s!m14b,False,71,2,equal,ST1_low_1_a2,P = T2?,Same,1,2,low,82,1.25,132,0.88,82,1.59,No,sure,cr,1.081695795059204,NA
87,2s!m14b,False,72,2,equal,STb_6_a1,P = T1?,Same,0,1,None,132,1.02,132,1.0,132,0.91,Yes,sure,hit,1.4081339836120605,NA
88,2s!m14b,False,73,2,equal,ST1_low_4_a1,P = T2?,Same,1,1,low,112,1.13,70,1.71,112,1.13,No,sure,cr,1.11539888381958,NA
89,2s!m14b,False,74,2,equal,STb_2_a1,P = T2?,Same,0,1,None,70,1.52,70,1.39,70,1.52,Yes,sure,hit,1.4372830390930176,NA
90,2s!m14b,False,75,2,equal,ST2_high_2_a1,P = T2?,Same,2,1,high,112,0.95,82,1.51,82,1.56,Yes,sure,hit,0.9867098331451416,NA
91,2s!m14b,False,76,2,equal,ST2_high_6_a1,P = T1?,Same,2,1,high,132,1.05,96,1.2,96,1.32,Yes,quiteSure,fa,1.8297550678253174,NA
92,2s!m14b,False,77,2,equal,ST1_low_1_a1,P = T1?,Same,1,1,low,82,1.45,132,0.83,82,1.56,No,quiteSure,miss,1.832561731338501,NA
93,2s!m14b,False,78,2,equal,ST1_low_3_a1,P = T2?,Same,1,1,low,70,1.73,112,1.1,70,1.83,No,sure,cr,1.2007789611816406,NA
94,2s!m14b,False,79,2,equal,ST2_high_5_a2,P = T1?,Same,2,2,high,96,1.27,132,0.84,132,1.02,No,quiteSure,cr,1.5294489860534668,NA
95,2s!m14b,False,80,2,equal,ST2_low_2_a2,P = T1?,Same,2,2,low,132,0.85,82,1.6,82,1.62,No,sure,cr,1.8345122337341309,NA
96,2s!m14b,False,81,2,equal,ST2_low_6_a1,P = T1?,Same,2,1,low,154,0.76,96,1.22,96,1.38,Yes,sure,fa,1.652825117111206,NA
97,2s!m14b,False,82,2,equal,DT1_high_3_a2,P = T1?,Different,1,2,high,70,1.88,96,0.98,60,1.81,No,unsure,miss,1.6793608665466309,NA
98,2s!m14b,False,83,2,equal,DT1_high_2_a1,P = T1?,Different,1,1,high,112,1.03,82,1.41,132,0.99,No,quiteSure,miss,2.400301218032837,NA
99,2s!m14b,False,84,2,equal,ST2_high_6_a1,P = T1?,Same,2,1,high,132,0.88,96,1.1,96,1.08,No,sure,cr,1.3255150318145752,NA
100,2s!m14b,False,85,2,equal,ST1_low_1_a1,P = T1?,Same,1,1,low,82,1.31,132,1.04,82,1.57,Yes,quiteSure,hit,1.5904052257537842,NA
101,2s!m14b,False,86,2,equal,ST2_high_3_a1,P = T2?,Same,2,1,high,70,1.62,96,1.33,96,1.41,Yes,sure,hit,1.1098449230194092,NA
102,2s!m14b,False,87,2,equal,ST1_high_2_a2,P = T1?,Same,1,2,high,112,1.05,82,1.39,112,1.06,Yes,sure,hit,0.9327569007873535,NA
103,2s!m14b,False,88,2,equal,ST2_low_6_a2,P = T2?,Same,2,2,low,154,0.92,96,1.32,96,1.18,Yes,sure,hit,1.0202841758728027,NA
104,2s!m14b,False,89,2,equal,ST2_high_2_a2,P = T2?,Same,2,2,high,112,0.92,82,1.58,82,1.35,Yes,sure,hit,0.9614617824554443,NA
105,2s!m14b,False,90,2,equal,ST1_high_6_a2,P = T2?,Same,1,2,high,132,1.04,96,1.3,132,0.79,Yes,sure,fa,1.1404688358306885,NA
106,2s!m14b,False,91,2,equal,ST1_high_2_a2,P = T2?,Same,1,2,high,112,1.01,82,1.5,112,1.04,Yes,sure,fa,0.991096019744873,NA
107,2s!m14b,False,92,2,equal,ST2_low_6_a2,P = T2?,Same,2,2,low,154,0.86,96,1.08,96,1.36,Yes,sure,hit,0.928081750869751,NA
108,2s!m14b,False,93,2,equal,ST2_low_3_a2,P = T1?,Same,2,2,low,70,1.49,112,1.02,112,1.08,No,sure,cr,1.4050979614257812,NA
109,2s!m14b,False,94,2,equal,ST1_high_4_a1,P = T2?,Same,1,1,high,96,1.14,70,1.46,96,1.16,Yes,sure,fa,1.1987941265106201,NA
110,2s!m14b,False,95,2,equal,ST2_low_4_a2,P = T1?,Same,2,2,low,112,0.95,70,1.63,70,1.4,No,sure,cr,1.1718361377716064,NA
111,2s!m14b,False,96,2,equal,ST1_high_5_a1,P = T1?,Same,1,1,high,96,1.28,132,0.84,96,1.08,No,sure,miss,1.1991779804229736,NA
112,2s!m14b,False,97,2,equal,ST1_low_4_a1,P = T2?,Same,1,1,low,112,0.92,70,1.84,112,0.99,No,sure,cr,0.9623034000396729,NA
113,2s!m14b,False,98,2,equal,ST2_high_2_a1,P = T2?,Same,2,1,high,112,1.0,82,1.57,82,1.53,Yes,sure,hit,1.2580511569976807,NA
114,2s!m14b,False,99,2,equal,ST2_low_6_a2,P = T1?,Same,2,2,low,154,0.74,96,1.14,96,1.32,No,sure,cr,1.020747184753418,NA
115,2s!m14b,False,100,2,equal,ST2_low_4_a1,P = T1?,Same,2,1,low,112,0.95,70,1.84,70,1.72,No,sure,cr,1.1729390621185303,NA
116,2s!m14b,False,101,2,equal,ST2_low_4_a2,P = T1?,Same,2,2,low,112,1.11,70,1.65,70,1.48,No,sure,cr,0.927238941192627,NA
117,2s!m14b,False,102,2,equal,ST2_low_5_a2,P = T1?,Same,2,2,low,96,1.06,154,0.87,154,0.88,No,sure,cr,0.9327878952026367,NA
118,2s!m14b,False,103,2,equal,ST2_low_4_a2,P = T2?,Same,2,2,low,112,0.93,70,1.61,70,1.65,Yes,quiteSure,hit,1.9762167930603027,NA
119,2s!m14b,False,104,2,equal,ST1_high_5_a1,P = T2?,Same,1,1,high,96,1.12,132,1.01,96,1.35,No,sure,cr,1.4721388816833496,NA
120,2s!m14b,False,105,2,equal,ST2_low_5_a1,P = T1?,Same,2,1,low,96,1.13,154,0.78,154,0.79,No,sure,cr,1.2309918403625488,NA
121,2s!m14b,False,106,2,equal,ST2_high_6_a1,P = T2?,Same,2,1,high,132,0.89,96,1.08,96,1.34,Yes,sure,hit,1.2002949714660645,NA
122,2s!m14b,False,107,2,equal,ST1_low_2_a2,P = T2?,Same,1,2,low,132,0.98,82,1.4,132,1.0,No,sure,cr,1.1732120513916016,NA
123,2s!m14b,False,108,2,equal,DT1_low_4_a1,P = T2?,Different,1,1,low,112,1.08,70,1.55,132,0.89,No,sure,cr,1.049696922302246,NA
124,2s!m14b,False,109,2,equal,ST1_high_2_a2,P = T2?,Same,1,2,high,112,0.96,82,1.31,112,1.17,No,sure,cr,1.2391209602355957,NA
125,2s!m14b,False,110,2,equal,ST2_low_1_a1,P = T1?,Same,2,1,low,82,1.26,132,0.98,132,1.02,No,quiteSure,cr,1.3673880100250244,NA
126,2s!m14b,False,111,2,equal,ST1_low_5_a2,P = T1?,Same,1,2,low,96,1.08,154,0.84,96,1.25,No,unsure,miss,1.0842487812042236,NA
127,2s!m14b,False,112,2,equal,STb_5_a2,P = T2?,Same,0,2,None,112,1.03,112,1.24,112,0.87,No,sure,miss,1.081758975982666,NA
128,2s!m14b,False,113,2,equal,ST2_high_1_a2,P = T2?,Same,2,2,high,82,1.27,112,1.22,112,1.22,Yes,quiteSure,hit,1.5642180442810059,NA
129,2s!m14b,False,114,2,equal,DT1_low_2_a1,P = T2?,Different,1,1,low,132,0.89,82,1.51,154,0.95,No,sure,cr,0.9033169746398926,NA
130,2s!m14b,False,115,2,equal,ST2_high_2_a2,P = T1?,Same,2,2,high,112,1.2,82,1.42,82,1.48,No,sure,cr,0.5394189357757568,NA
131,2s!m14b,False,116,2,equal,ST1_high_1_a2,P = T2?,Same,1,2,high,82,1.27,112,1.09,82,1.32,Yes,sure,fa,1.0765280723571777,NA
132,2s!m14b,False,117,2,equal,ST2_low_5_a1,P = T1?,Same,2,1,low,96,1.15,154,0.72,154,0.87,No,unsure,cr,0.4779181480407715,NA
133,2s!m14b,False,118,2,equal,ST1_high_4_a1,P = T1?,Same,1,1,high,96,1.36,70,1.76,96,1.19,Yes,quiteSure,hit,1.4125192165374756,NA
134,2s!m14b,False,119,2,equal,ST2_low_4_a2,P = T2?,Same,2,2,low,112,1.0,70,1.5,70,1.39,Yes,sure,hit,1.7097570896148682,NA
135,2s!m14b,False,120,2,equal,ST2_high_3_a1,P = T1?,Same,2,1,high,70,1.59,96,1.38,96,1.16,No,sure,cr,0.9889430999755859,NA
136,2s!m14b,False,121,2,equal,ST1_low_5_a1,P = T1?,Same,1,1,low,96,1.17,154,0.95,96,1.41,No,quiteSure,miss,2.51977801322937,NA
137,2s!m14b,False,122,2,equal,ST1_high_3_a2,P = T1?,Same,1,2,high,70,1.43,96,1.12,70,1.53,Yes,quiteSure,hit,1.1701219081878662,NA
138,2s!m14b,False,123,2,equal,ST2_high_2_a2,P = T2?,Same,2,2,high,112,0.95,82,1.23,82,1.57,Yes,quiteSure,hit,1.9850220680236816,NA
139,2s!m14b,False,124,2,equal,ST1_high_6_a1,P = T1?,Same,1,1,high,132,1.0,96,1.31,132,0.92,No,unsure,miss,1.7431108951568604,NA
140,2s!m14b,False,125,2,equal,ST1_low_3_a2,P = T2?,Same,1,2,low,70,1.66,112,0.94,70,1.51,No,sure,cr,1.0805859565734863,NA
141,2s!m14b,False,126,2,equal,ST2_low_6_a2,P = T1?,Same,2,2,low,154,0.88,96,1.18,96,1.24,No,sure,cr,1.4716928005218506,NA
142,2s!m14b,False,127,2,equal,ST1_low_3_a2,P = T2?,Same,1,2,low,70,1.76,112,0.93,70,1.49,No,sure,cr,1.0545480251312256,NA
143,2s!m14b,False,128,2,equal,ST2_low_5_a2,P = T2?,Same,2,2,low,96,1.13,154,0.78,154,0.89,Yes,sure,hit,1.2317712306976318,NA
144,2s!m14b,False,129,2,equal,ST1_high_1_a1,P = T2?,Same,1,1,high,82,1.29,112,0.95,82,1.44,No,sure,cr,0.9617018699645996,NA
145,2s!m14b,False,130,2,equal,ST2_high_1_a2,P = T1?,Same,2,2,high,82,1.59,112,0.97,112,1.23,No,sure,cr,1.3208708763122559,NA
146,2s!m14b,False,131,2,equal,DT1_low_6_a1,P = T2?,Different,1,1,low,154,0.95,96,1.15,180,0.78,No,sure,cr,0.9945809841156006,NA
147,2s!m14b,False,132,2,equal,ST2_high_5_a2,P = T1?,Same,2,2,high,96,1.36,132,1.04,132,0.86,Yes,quiteSure,fa,1.1407558917999268,NA
148,2s!m14b,False,133,2,equal,ST2_high_5_a1,P = T1?,Same,2,1,high,96,1.39,132,0.97,132,0.83,Yes,quiteSure,fa,0.991020917892456,NA
149,2s!m14b,False,134,2,equal,ST1_low_6_a1,P = T1?,Same,1,1,low,154,0.9,96,1.21,154,0.74,Yes,sure,hit,1.2926909923553467,NA
150,2s!m14b,False,135,2,equal,STb_7_a2,P = T2?,Same,0,2,None,154,0.73,154,0.83,154,0.84,No,sure,miss,1.1703360080718994,NA
151,2s!m14b,False,136,2,equal,ST1_low_2_a1,P = T2?,Same,1,1,low,132,0.99,82,1.62,132,0.95,Yes,quiteSure,fa,1.4966471195220947,NA
152,2s!m14b,False,137,2,equal,ST2_high_6_a1,P = T1?,Same,2,1,high,132,1.05,96,1.11,96,1.3,No,sure,cr,0.9575581550598145,NA
153,2s!m14b,False,138,2,equal,ST2_high_2_a1,P = T1?,Same,2,1,high,112,1.07,82,1.63,82,1.51,No,sure,cr,1.0496201515197754,NA
154,2s!m14b,False,139,2,equal,ST2_high_1_a1,P = T2?,Same,2,1,high,82,1.39,112,0.93,112,0.94,No,sure,miss,1.0803771018981934,NA
155,2s!m14b,False,140,2,equal,ST1_low_1_a2,P = T1?,Same,1,2,low,82,1.31,132,0.94,82,1.61,Yes,quiteSure,hit,1.170553207397461,NA
156,2s!m14b,False,141,2,equal,ST1_low_6_a2,P = T2?,Same,1,2,low,154,0.87,96,1.19,154,0.79,Yes,sure,fa,1.979797124862671,NA
157,2s!m14b,False,142,2,equal,ST1_high_5_a2,P = T2?,Same,1,2,high,96,1.38,132,0.87,96,1.38,No,sure,cr,1.3185200691223145,NA
158,2s!m14b,False,143,2,equal,ST1_high_2_a1,P = T2?,Same,1,1,high,112,0.94,82,1.29,112,1.15,No,quiteSure,cr,2.1894690990448,NA
159,2s!m14b,False,144,2,equal,ST2_low_5_a2,P = T1?,Same,2,2,low,96,1.24,154,0.84,154,0.83,No,sure,cr,1.2634079456329346,NA
160,2s!m14b,False,145,2,equal,ST1_high_6_a1,P = T2?,Same,1,1,high,132,0.93,96,1.15,132,0.8,Yes,sure,fa,1.8643910884857178,NA
161,2s!m14b,False,146,2,equal,ST2_high_3_a2,P = T1?,Same,2,2,high,70,1.37,96,1.28,96,1.2,No,sure,cr,0.9944770336151123,NA
162,2s!m14b,False,147,2,equal,ST2_low_3_a2,P = T2?,Same,2,2,low,70,1.64,112,1.15,112,1.11,Yes,sure,hit,2.1314239501953125,NA
163,2s!m14b,False,148,2,equal,DT2_high_1_a1,P = T1?,Different,2,1,high,82,1.45,112,0.94,132,0.94,No,sure,cr,2.071225881576538,NA
164,2s!m14b,False,149,2,equal,ST1_low_1_a2,P = T2?,Same,1,2,low,82,1.31,132,0.92,82,1.38,No,quiteSure,cr,1.021996021270752,NA
165,2s!m14b,False,150,2,equal,ST2_low_3_a2,P = T2?,Same,2,2,low,70,1.5,112,1.15,112,1.2,Yes,sure,hit,1.196098804473877,NA
166,2s!m14b,False,151,2,equal,ST2_high_6_a2,P = T2?,Same,2,2,high,132,0.98,96,1.22,96,1.26,No,sure,miss,1.16768217086792,NA
167,2s!m14b,False,152,2,equal,ST2_high_3_a1,P = T1?,Same,2,1,high,70,1.42,96,1.28,96,1.35,No,sure,cr,4.70945405960083,NA
168,2s!m14b,False,153,2,equal,ST2_low_2_a1,P = T2?,Same,2,1,low,132,1.05,82,1.68,82,1.17,Yes,sure,hit,1.8589317798614502,NA
169,2s!m14b,False,154,2,equal,ST1_high_3_a1,P = T1?,Same,1,1,high,70,1.47,96,1.06,70,1.5,Yes,sure,hit,1.0486299991607666,NA
170,2s!m14b,False,155,2,equal,ST1_low_2_a1,P = T1?,Same,1,1,low,132,0.93,82,1.33,132,0.85,No,sure,miss,1.410959243774414,NA
171,2s!m14b,False,156,2,equal,STb_4_a1,P = T1?,Same,0,1,None,96,1.24,96,1.27,96,1.11,Yes,unsure,hit,2.3077409267425537,NA
172,2s!m14b,False,157,2,equal,ST2_low_5_a1,P = T1?,Same,2,1,low,96,1.34,154,0.78,154,0.89,No,sure,cr,1.438939094543457,NA
173,2s!m14b,False,158,2,equal,ST1_high_6_a2,P = T1?,Same,1,2,high,132,0.79,96,1.16,132,1.02,No,quiteSure,miss,1.3246822357177734,NA
174,2s!m14b,False,159,2,equal,ST1_low_2_a1,P = T1?,Same,1,1,low,132,1.07,82,1.69,132,0.91,No,sure,miss,1.2583632469177246,NA
175,2s!m14b,False,160,2,equal,ST2_low_3_a2,P = T1?,Same,2,2,low,70,1.37,112,1.16,112,1.03,No,unsure,cr,0.9304108619689941,NA
176,2s!m14b,False,161,2,equal,ST2_high_1_a1,P = T1?,Same,2,1,high,82,1.38,112,1.07,112,1.13,No,unsure,cr,1.2019479274749756,NA
177,2s!m14b,False,162,2,equal,ST1_high_6_a2,P = T2?,Same,1,2,high,132,1.0,96,1.14,132,0.86,No,sure,cr,1.5009758472442627,NA
178,2s!m14b,False,163,2,equal,ST2_low_2_a2,P = T2?,Same,2,2,low,132,0.89,82,1.44,82,1.29,No,sure,miss,1.079728126525879,NA
179,2s!m14b,False,164,2,equal,ST2_high_6_a2,P = T1?,Same,2,2,high,132,0.96,96,1.37,96,1.11,Yes,quiteSure,fa,1.1384069919586182,NA
180,2s!m14b,False,165,2,equal,ST1_low_5_a1,P = T1?,Same,1,1,low,96,1.14,154,0.8,96,1.39,Yes,unsure,hit,1.3220899105072021,NA
181,2s!m14b,False,166,2,equal,ST2_low_4_a1,P = T2?,Same,2,1,low,112,0.92,70,1.82,70,1.62,Yes,sure,hit,1.1664090156555176,NA
182,2s!m14b,False,167,2,equal,ST1_high_1_a2,P = T1?,Same,1,2,high,82,1.45,112,0.98,82,1.31,Yes,sure,hit,1.3215482234954834,NA
183,2s!m14b,False,168,2,equal,ST1_low_2_a2,P = T2?,Same,1,2,low,132,1.0,82,1.5,132,0.94,No,sure,cr,1.2603309154510498,NA
184,2s!m14b,False,169,2,equal,ST1_low_6_a2,P = T2?,Same,1,2,low,154,0.96,96,1.12,154,0.82,No,sure,cr,1.08064603805542,NA
185,2s!m14b,False,170,2,equal,ST1_high_6_a2,P = T1?,Same,1,2,high,132,0.92,96,1.29,132,0.81,Yes,quiteSure,hit,1.715358018875122,NA
186,2s!m14b,False,171,2,equal,ST2_low_4_a1,P = T1?,Same,2,1,low,112,1.14,70,1.5,70,1.8,Yes,sure,fa,1.7093660831451416,NA
187,2s!m14b,False,172,2,equal,ST2_low_2_a2,P = T1?,Same,2,2,low,132,0.8,82,1.24,82,1.21,No,sure,cr,1.981900691986084,NA
188,2s!m14b,False,173,2,equal,ST1_low_1_a1,P = T2?,Same,1,1,low,82,1.63,132,0.82,82,1.57,No,sure,cr,1.3803679943084717,NA
189,2s!m14b,False,174,2,equal,ST2_low_6_a1,P = T2?,Same,2,1,low,154,0.87,96,1.35,96,1.14,Yes,sure,hit,1.2614428997039795,NA
190,2s!m14b,False,175,2,equal,ST2_high_3_a1,P = T2?,Same,2,1,high,70,1.54,96,1.37,96,1.19,Yes,sure,hit,1.8346097469329834,NA
191,2s!m14b,False,176,2,equal,ST2_high_6_a1,P = T2?,Same,2,1,high,132,0.84,96,1.26,96,1.41,Yes,sure,hit,1.8255832195281982,NA
192,2s!m14b,False,177,2,equal,ST1_low_5_a1,P = T2?,Same,1,1,low,96,1.43,154,0.87,96,1.17,No,sure,cr,1.2659788131713867,NA
193,2s!m14b,False,178,2,equal,ST1_high_4_a2,P = T2?,Same,1,2,high,96,1.41,70,1.42,96,1.08,No,sure,cr,1.1382207870483398,NA
194,2s!m14b,False,179,2,equal,ST1_low_3_a2,P = T1?,Same,1,2,low,70,1.71,112,0.98,70,1.51,No,sure,miss,1.446225881576538,NA
195,2s!m14b,False,180,2,equal,ST2_high_5_a1,P = T2?,Same,2,1,high,96,1.12,132,0.79,132,0.88,No,sure,miss,1.345569133758545,NA
196,2s!m14b,False,181,2,equal,ST1_high_2_a1,P = T2?,Same,1,1,high,112,1.18,82,1.27,112,1.04,No,sure,cr,1.5920000076293945,NA
197,2s!m14b,False,182,2,equal,ST2_low_1_a1,P = T2?,Same,2,1,low,82,1.54,132,0.89,132,1.02,Yes,sure,hit,1.9200940132141113,NA
198,2s!m14b,False,183,2,equal,ST2_low_3_a2,P = T1?,Same,2,2,low,70,1.82,112,1.16,112,1.01,No,sure,cr,1.5332140922546387,NA
199,2s!m14b,False,184,2,equal,ST2_low_5_a2,P = T2?,Same,2,2,low,96,1.22,154,0.85,154,0.76,Yes,sure,hit,1.112947940826416,NA
200,2s!m14b,False,185,2,equal,ST1_high_5_a1,P = T1?,Same,1,1,high,96,1.34,132,1.04,96,1.26,No,sure,miss,3.02866792678833,NA
201,2s!m14b,False,186,2,equal,STb_6_a1,P = T2?,Same,0,1,None,132,1.05,132,0.9,132,0.95,Yes,sure,hit,1.3520970344543457,NA
202,2s!m14b,False,187,2,equal,ST2_high_1_a1,P = T1?,Same,2,1,high,82,1.25,112,1.05,112,1.09,No,sure,cr,2.463409900665283,NA
203,2s!m14b,False,188,2,equal,ST1_high_3_a2,P = T2?,Same,1,2,high,70,1.66,96,1.13,70,1.37,Yes,sure,fa,1.168611764907837,NA
204,2s!m14b,False,189,2,equal,ST1_low_2_a1,P = T2?,Same,1,1,low,132,0.84,82,1.39,132,0.8,Yes,sure,fa,1.2633779048919678,NA
205,2s!m14b,False,190,2,equal,ST1_high_4_a2,P = T2?,Same,1,2,high,96,1.14,70,1.4,96,1.38,No,sure,cr,0.902019739151001,NA
206,2s!m14b,False,191,2,equal,ST1_high_6_a1,P = T2?,Same,1,1,high,132,0.89,96,1.24,132,0.9,No,unsure,cr,1.6483938694000244,NA
207,2s!m14b,False,192,2,equal,ST1_high_3_a1,P = T2?,Same,1,1,high,70,1.38,96,1.09,70,1.39,No,sure,cr,2.071337938308716,NA
208,2s!m14b,False,193,2,equal,ST1_high_5_a2,P = T2?,Same,1,2,high,96,0.99,132,0.84,96,0.99,No,sure,cr,1.2319579124450684,NA
209,2s!m14b,False,194,2,equal,ST1_low_3_a1,P = T2?,Same,1,1,low,70,1.53,112,1.14,70,1.78,No,sure,cr,1.262218952178955,NA
210,2s!m14b,False,195,2,equal,ST2_high_2_a1,P = T1?,Same,2,1,high,112,1.18,82,1.5,82,1.29,Yes,sure,fa,1.7109367847442627,NA
211,2s!m14b,False,196,2,equal,ST1_high_6_a1,P = T1?,Same,1,1,high,132,0.98,96,1.18,132,0.87,Yes,quiteSure,hit,1.4711878299713135,NA
212,2s!m14b,False,197,2,equal,ST1_high_1_a1,P = T1?,Same,1,1,high,82,1.45,112,0.98,82,1.42,Yes,unsure,hit,1.1403181552886963,NA
213,2s!m14b,False,198,2,equal,ST1_low_1_a2,P = T1?,Same,1,2,low,82,1.35,132,0.99,82,1.55,Yes,sure,hit,1.081399917602539,NA
214,2s!m14b,False,199,2,equal,ST1_low_4_a2,P = T1?,Same,1,2,low,112,1.09,70,1.59,112,1.04,Yes,sure,hit,1.083611011505127,NA
215,2s!m14b,False,200,2,equal,ST1_high_5_a1,P = T2?,Same,1,1,high,96,1.24,132,1.06,96,1.38,No,sure,cr,1.4750871658325195,NA
216,2s!m14b,False,201,2,equal,ST1_high_2_a2,P = T2?,Same,1,2,high,112,1.04,82,1.58,112,1.23,No,quiteSure,cr,1.411139965057373,NA
217,2s!m14b,False,202,2,equal,ST1_low_2_a2,P = T1?,Same,1,2,low,132,1.01,82,1.54,132,0.98,No,sure,miss,1.2317838668823242,NA
218,2s!m14b,False,203,2,equal,ST2_low_6_a1,P = T1?,Same,2,1,low,154,0.71,96,1.26,96,1.13,No,sure,cr,1.560164213180542,NA
219,2s!m14b,False,204,2,equal,ST2_high_4_a1,P = T1?,Same,2,1,high,96,1.07,70,1.48,70,1.47,No,sure,cr,2.4320199489593506,NA
220,2s!m14b,False,205,2,equal,DT2_high_3_a1,P = T2?,Different,2,1,high,70,1.57,96,1.35,112,1.15,No,sure,miss,1.169847011566162,NA
221,2s!m14b,False,206,2,equal,ST1_high_3_a2,P = T1?,Same,1,2,high,70,1.63,96,1.34,70,1.75,Yes,quiteSure,hit,1.0521650314331055,NA
222,2s!m14b,False,207,2,equal,ST1_low_1_a1,P = T1?,Same,1,1,low,82,1.6,132,0.95,82,1.48,No,quiteSure,miss,0.8117649555206299,NA
223,2s!m14b,False,208,2,equal,ST1_low_2_a1,P = T1?,Same,1,1,low,132,1.01,82,1.38,132,0.96,Yes,quiteSure,hit,0.9294130802154541,NA
224,2s!m14b,False,209,2,equal,ST1_high_3_a2,P = T2?,Same,1,2,high,70,1.53,96,1.17,70,1.55,No,sure,cr,1.0214672088623047,NA
225,2s!m14b,False,210,2,equal,ST2_low_5_a2,P = T2?,Same,2,2,low,96,1.38,154,0.75,154,0.77,Yes,sure,hit,2.249969005584717,NA
226,2s!m14b,False,211,2,equal,ST1_high_2_a2,P = T1?,Same,1,2,high,112,1.2,82,1.55,112,1.23,Yes,sure,hit,2.5491437911987305,NA
227,2s!m14b,False,212,2,equal,STb_7_a1,P = T2?,Same,0,1,None,154,0.88,154,0.94,154,0.94,Yes,sure,hit,0.900364875793457,NA
228,2s!m14b,False,213,2,equal,ST2_high_4_a2,P = T2?,Same,2,2,high,96,1.35,70,1.85,70,1.77,Yes,sure,hit,0.993588924407959,NA
229,2s!m14b,False,214,2,equal,ST1_high_3_a1,P = T1?,Same,1,1,high,70,1.63,96,1.27,70,1.54,No,sure,miss,1.825963020324707,NA
230,2s!m14b,False,215,2,equal,ST1_high_5_a2,P = T1?,Same,1,2,high,96,1.07,132,0.8,96,1.11,No,sure,miss,0.7832629680633545,NA
231,2s!m14b,False,216,2,equal,ST1_high_1_a2,P = T2?,Same,1,2,high,82,1.64,112,1.07,82,1.41,No,sure,cr,1.8338298797607422,NA
232,2s!m14b,False,217,2,equal,ST2_high_2_a2,P = T1?,Same,2,2,high,112,1.1,82,1.49,82,1.31,No,quiteSure,cr,1.378019094467163,NA
233,2s!m14b,False,218,2,equal,ST1_low_6_a2,P = T1?,Same,1,2,low,154,0.91,96,1.17,154,0.89,Yes,quiteSure,hit,0.9912409782409668,NA
234,2s!m14b,False,219,2,equal,ST1_low_5_a1,P = T2?,Same,1,1,low,96,1.24,154,0.92,96,1.26,No,unsure,cr,0.6364040374755859,NA
235,2s!m14b,False,220,2,equal,ST1_high_1_a2,P = T2?,Same,1,2,high,82,1.58,112,1.23,82,1.24,No,quiteSure,cr,1.6212079524993896,NA
236,2s!m14b,False,221,2,equal,STb_8_a2,P = T1?,Same,0,2,None,180,0.8,180,0.83,180,0.82,No,quiteSure,miss,1.5872290134429932,NA
237,2s!m14b,False,222,2,equal,ST1_low_6_a2,P = T1?,Same,1,2,low,154,0.74,96,1.3,154,0.9,Yes,quiteSure,hit,1.7090461254119873,NA
238,2s!m14b,False,223,2,equal,ST1_low_6_a2,P = T2?,Same,1,2,low,154,0.82,96,1.28,154,0.77,No,sure,cr,2.759474992752075,NA
239,2s!m14b,False,224,2,equal,ST2_low_1_a2,P = T2?,Same,2,2,low,82,1.27,132,0.97,132,1.01,Yes,quiteSure,hit,1.9202580451965332,NA
240,2s!m14b,False,225,2,equal,ST2_high_6_a2,P = T1?,Same,2,2,high,132,0.97,96,1.37,96,1.09,Yes,quiteSure,fa,4.323554992675781,NA
241,2s!m14b,False,226,2,equal,ST1_low_1_a2,P = T2?,Same,1,2,low,82,1.32,132,0.97,82,1.58,No,sure,cr,1.7420198917388916,NA
242,2s!m14b,False,227,2,equal,ST1_high_4_a1,P = T2?,Same,1,1,high,96,1.06,70,1.62,96,1.31,No,sure,cr,2.043231964111328,NA
243,2s!m14b,False,228,2,equal,ST1_low_3_a1,P = T1?,Same,1,1,low,70,1.59,112,0.98,70,1.44,No,sure,miss,1.6522390842437744,NA
244,2s!m14b,False,229,2,equal,ST2_high_1_a2,P = T1?,Same,2,2,high,82,1.6,112,1.23,112,1.04,Yes,quiteSure,fa,1.8287198543548584,NA
245,2s!m14b,False,230,2,equal,ST2_high_5_a2,P = T2?,Same,2,2,high,96,1.39,132,0.97,132,0.81,No,sure,miss,0.9295930862426758,NA
246,2s!m14b,False,231,2,equal,ST2_low_1_a2,P = T1?,Same,2,2,low,82,1.62,132,1.02,132,1.01,No,quiteSure,cr,0.9027321338653564,NA
247,2s!m14b,False,232,2,equal,ST2_low_2_a2,P = T2?,Same,2,2,low,132,0.92,82,1.43,82,1.38,Yes,quiteSure,hit,0.9863221645355225,NA
248,2s!m14b,False,233,2,equal,ST1_high_4_a2,P = T1?,Same,1,2,high,96,1.42,70,1.51,96,1.43,No,sure,miss,1.2929270267486572,NA
249,2s!m14b,False,234,2,equal,ST2_high_3_a2,P = T1?,Same,2,2,high,70,1.61,96,1.35,96,1.23,Yes,sure,fa,0.7218770980834961,NA
250,2s!m14b,False,235,2,equal,ST2_high_6_a1,P = T2?,Same,2,1,high,132,0.98,96,1.17,96,1.17,Yes,sure,hit,0.7486228942871094,NA
251,2s!m14b,False,236,2,equal,ST1_high_4_a1,P = T1?,Same,1,1,high,96,1.26,70,1.38,96,1.36,Yes,quiteSure,hit,1.349128007888794,NA
252,2s!m14b,False,237,2,equal,ST1_low_4_a2,P = T2?,Same,1,2,low,112,1.21,70,1.57,112,1.21,No,sure,cr,1.3206980228424072,NA
253,2s!m14b,False,238,2,equal,ST2_low_1_a1,P = T1?,Same,2,1,low,82,1.57,132,0.92,132,1.06,No,sure,cr,1.1724019050598145,NA
254,2s!m14b,False,239,2,equal,ST2_high_3_a1,P = T1?,Same,2,1,high,70,1.82,96,1.1,96,1.11,No,sure,cr,1.0830488204956055,NA
255,2s!m14b,False,240,2,equal,ST1_low_3_a1,P = T1?,Same,1,1,low,70,1.61,112,1.02,70,1.6,Yes,quiteSure,hit,1.6222410202026367,NA
256,2s!m14b,False,241,2,equal,ST2_low_4_a1,P = T1?,Same,2,1,low,112,1.2,70,1.74,70,1.7,No,quiteSure,cr,0.9912469387054443,NA
257,2s!m14b,False,242,2,equal,STb_6_a2,P = T2?,Same,0,2,None,132,1.01,132,0.94,132,0.96,No,sure,miss,1.7130012512207031,NA
258,2s!m14b,False,243,2,equal,ST1_low_3_a1,P = T1?,Same,1,1,low,70,1.75,112,1.15,70,1.67,Yes,sure,hit,1.1686813831329346,NA
259,2s!m14b,False,244,2,equal,ST1_high_1_a2,P = T1?,Same,1,2,high,82,1.52,112,1.1,82,1.22,No,quiteSure,miss,1.2613482475280762,NA
260,2s!m14b,False,245,2,equal,ST2_high_3_a2,P = T2?,Same,2,2,high,70,1.63,96,1.42,96,1.21,Yes,sure,hit,0.8062238693237305,NA
261,2s!m14b,False,246,2,equal,ST2_high_1_a1,P = T2?,Same,2,1,high,82,1.5,112,1.01,112,1.18,Yes,sure,hit,0.6320879459381104,NA
262,2s!m14b,False,247,2,equal,ST2_low_6_a1,P = T2?,Same,2,1,low,154,0.74,96,1.23,96,1.34,Yes,sure,hit,1.4988229274749756,NA
263,2s!m14b,False,248,2,equal,ST1_high_4_a1,P = T1?,Same,1,1,high,96,1.08,70,1.5,96,1.3,Yes,quiteSure,hit,1.4411399364471436,NA
264,2s!m14b,False,249,2,equal,ST2_high_4_a2,P = T2?,Same,2,2,high,96,1.3,70,1.51,70,1.37,No,sure,miss,1.5319797992706299,NA
265,2s!m14b,False,250,2,equal,ST2_low_3_a1,P = T1?,Same,2,1,low,70,1.8,112,1.17,112,1.08,Yes,sure,fa,1.468315839767456,NA
266,2s!m14b,False,251,2,equal,ST2_low_4_a1,P = T2?,Same,2,1,low,112,0.92,70,1.82,70,1.54,No,sure,miss,0.781235933303833,NA
267,2s!m14b,False,252,2,equal,ST2_low_6_a2,P = T1?,Same,2,2,low,154,0.83,96,1.28,96,1.37,Yes,sure,fa,0.9042952060699463,NA
268,2s!m14b,False,253,2,equal,ST2_low_3_a1,P = T2?,Same,2,1,low,70,1.42,112,1.04,112,1.09,No,quiteSure,miss,1.8261380195617676,NA
269,2s!m14b,False,254,2,equal,ST2_high_5_a1,P = T1?,Same,2,1,high,96,1.28,132,1.05,132,0.84,No,quiteSure,cr,1.4072351455688477,NA
270,2s!m14b,False,255,2,equal,ST1_low_3_a2,P = T1?,Same,1,2,low,70,1.6,112,1.21,70,1.66,No,quiteSure,miss,1.6248939037322998,NA
271,2s!m14b,False,256,2,equal,ST1_low_6_a1,P = T2?,Same,1,1,low,154,0.9,96,1.32,154,0.73,No,sure,cr,1.378772258758545,NA
272,2s!m14b,False,257,2,equal,ST1_low_1_a2,P = T1?,Same,1,2,low,82,1.63,132,0.85,82,1.27,Yes,sure,hit,1.292013168334961,NA
273,2s!m14b,False,258,2,equal,STb_4_a2,P = T2?,Same,0,2,None,96,1.21,96,1.18,96,1.21,Yes,sure,hit,1.651587963104248,NA
274,2s!m14b,False,259,2,equal,ST1_high_5_a2,P = T1?,Same,1,2,high,96,1.09,132,0.82,96,1.24,No,sure,miss,1.5590879917144775,NA
275,2s!m14b,False,260,2,equal,ST1_high_2_a1,P = T1?,Same,1,1,high,112,0.98,82,1.35,112,1.14,No,sure,miss,1.2332220077514648,NA
276,2s!m14b,False,261,2,equal,ST2_low_4_a1,P = T2?,Same,2,1,low,112,1.0,70,1.49,70,1.68,Yes,sure,hit,1.5710530281066895,NA
277,2s!m14b,False,262,2,equal,DT2_high_6_a2,P = T2?,Different,2,2,high,132,0.98,96,1.38,82,1.58,No,sure,miss,0.8112282752990723,NA
278,2s!m14b,False,263,2,equal,ST2_high_4_a1,P = T2?,Same,2,1,high,96,1.14,70,1.6,70,1.76,No,sure,miss,1.1438651084899902,NA
279,2s!m14b,False,264,2,equal,ST1_high_6_a1,P = T2?,Same,1,1,high,132,0.98,96,1.27,132,0.97,Yes,sure,fa,1.5612270832061768,NA
280,2s!m14b,False,265,2,equal,ST2_low_2_a1,P = T1?,Same,2,1,low,132,0.82,82,1.61,82,1.6,No,quiteSure,cr,1.2331342697143555,NA
281,2s!m14b,False,266,2,equal,ST1_low_4_a1,P = T1?,Same,1,1,low,112,0.95,70,1.51,112,1.22,Yes,quiteSure,hit,1.1098740100860596,NA
282,2s!m14b,False,267,2,equal,ST2_low_1_a2,P = T1?,Same,2,2,low,82,1.52,132,0.87,132,0.8,No,sure,cr,1.4970591068267822,NA
283,2s!m14b,False,268,2,equal,STb_5_a2,P = T1?,Same,0,2,None,112,1.03,112,0.94,112,0.95,Yes,quiteSure,hit,0.8049468994140625,NA
284,2s!m14b,False,269,2,equal,ST1_low_5_a2,P = T2?,Same,1,2,low,96,1.14,154,0.84,96,1.34,Yes,sure,fa,1.558725118637085,NA
285,2s!m14b,False,270,2,equal,ST1_low_4_a1,P = T1?,Same,1,1,low,112,1.01,70,1.56,112,0.94,No,sure,miss,2.5509839057922363,NA
286,2s!m14b,False,271,2,equal,ST1_low_2_a2,P = T1?,Same,1,2,low,132,0.8,82,1.6,132,0.79,Yes,unsure,hit,1.3761050701141357,NA
287,2s!m14b,False,272,2,equal,ST2_low_2_a2,P = T1?,Same,2,2,low,132,0.91,82,1.38,82,1.38,Yes,quiteSure,fa,1.2933251857757568,NA
288,2s!m14b,False,273,2,equal,ST2_high_1_a1,P = T1?,Same,2,1,high,82,1.34,112,0.93,112,0.92,Yes,sure,fa,1.6280498504638672,NA
289,2s!m14b,False,274,2,equal,DT1_high_6_a2,P = T2?,Different,1,2,high,132,1.03,96,1.16,154,0.9,No,sure,cr,2.0089688301086426,NA
290,2s!m14b,False,275,2,equal,DT2_low_3_a1,P = T1?,Different,2,1,low,70,1.62,112,1.09,132,0.85,Yes,sure,fa,1.3517236709594727,NA
291,2s!m14b,False,276,2,equal,ST2_high_1_a2,P = T1?,Same,2,2,high,82,1.6,112,1.09,112,1.03,Yes,sure,fa,0.4549391269683838,NA
292,2s!m14b,False,277,2,equal,ST1_low_4_a2,P = T2?,Same,1,2,low,112,1.0,70,1.76,112,1.13,No,sure,cr,0.9879879951477051,NA
293,2s!m14b,False,278,2,equal,ST2_high_4_a1,P = T2?,Same,2,1,high,96,1.42,70,1.44,70,1.56,No,sure,miss,1.199462890625,NA
294,2s!m14b,False,279,2,equal,ST2_low_4_a2,P = T1?,Same,2,2,low,112,0.99,70,1.61,70,1.62,No,sure,cr,1.5027978420257568,NA
295,2s!m14b,False,280,2,equal,ST1_low_6_a1,P = T2?,Same,1,1,low,154,0.73,96,1.13,154,0.9,No,quiteSure,cr,1.8601181507110596,NA
296,2s!m14b,False,281,2,equal,ST1_high_4_a2,P = T2?,Same,1,2,high,96,1.08,70,1.51,96,1.38,Yes,quiteSure,fa,0.9941227436065674,NA
297,2s!m14b,False,282,2,equal,ST1_low_3_a1,P = T2?,Same,1,1,low,70,1.78,112,0.94,70,1.39,No,sure,cr,0.8685510158538818,NA
298,2s!m14b,False,283,2,equal,ST2_low_5_a1,P = T2?,Same,2,1,low,96,1.08,154,0.87,154,0.83,Yes,sure,hit,2.4347798824310303,NA
299,2s!m14b,False,284,2,equal,ST1_high_4_a2,P = T1?,Same,1,2,high,96,1.29,70,1.76,96,1.16,Yes,sure,hit,1.9193687438964844,NA
300,2s!m14b,False,285,2,equal,ST2_low_1_a1,P = T1?,Same,2,1,low,82,1.31,132,0.91,132,0.84,No,sure,cr,0.9609851837158203,NA
301,2s!m14b,False,286,2,equal,ST2_high_1_a2,P = T2?,Same,2,2,high,82,1.51,112,1.15,112,0.97,No,sure,miss,2.3110578060150146,NA
302,2s!m14b,False,287,2,equal,ST2_high_4_a2,P = T1?,Same,2,2,high,96,1.06,70,1.7,70,1.51,Yes,quiteSure,fa,1.0488169193267822,NA
303,2s!m14b,False,288,2,equal,ST2_low_6_a2,P = T2?,Same,2,2,low,154,0.95,96,1.33,96,1.18,Yes,sure,hit,0.9853949546813965,NA
304,2s!m14b,False,289,2,equal,ST2_high_5_a1,P = T2?,Same,2,1,high,96,1.41,132,1.02,132,0.88,Yes,sure,hit,1.352043867111206,NA
305,2s!m14b,False,290,2,equal,ST1_high_5_a2,P = T2?,Same,1,2,high,96,1.3,132,0.81,96,1.12,No,sure,cr,1.380363941192627,NA
306,2s!m14b,False,291,2,equal,ST2_low_1_a1,P = T2?,Same,2,1,low,82,1.52,132,0.79,132,0.98,Yes,unsure,hit,0.8695602416992188,NA
307,2s!m14b,False,292,2,equal,ST1_low_3_a2,P = T1?,Same,1,2,low,70,1.68,112,1.04,70,1.4,No,sure,miss,1.4388370513916016,NA
308,2s!m14b,False,293,2,equal,ST1_low_5_a1,P = T2?,Same,1,1,low,96,1.18,154,0.79,96,1.07,Yes,unsure,fa,0.8991200923919678,NA
309,2s!m14b,False,294,2,equal,ST2_high_4_a1,P = T1?,Same,2,1,high,96,1.24,70,1.75,70,1.58,Yes,quiteSure,fa,0.9595751762390137,NA
310,2s!m14b,False,295,2,equal,ST1_low_1_a1,P = T2?,Same,1,1,low,82,1.36,132,0.95,82,1.5,Yes,sure,fa,1.5559277534484863,NA
311,2s!m14b,False,296,2,equal,ST2_high_5_a2,P = T1?,Same,2,2,high,96,1.33,132,0.97,132,0.96,No,sure,cr,1.2329370975494385,NA
312,2s!m14b,False,297,2,equal,ST1_high_5_a1,P = T2?,Same,1,1,high,96,1.09,132,0.99,96,1.32,Yes,sure,fa,1.858962059020996,NA
313,2s!m14b,False,298,2,equal,ST1_high_1_a1,P = T2?,Same,1,1,high,82,1.26,112,0.97,82,1.48,Yes,sure,fa,1.1748929023742676,NA
314,2s!m14b,False,299,2,equal,ST1_low_6_a1,P = T2?,Same,1,1,low,154,0.75,96,1.41,154,0.91,No,sure,cr,1.6194961071014404,NA
315,2s!m14b,False,300,2,equal,ST2_low_1_a2,P = T2?,Same,2,2,low,82,1.37,132,0.9,132,0.89,No,sure,miss,1.2895007133483887,NA
316,2s!m14b,False,301,2,equal,ST1_low_5_a2,P = T1?,Same,1,2,low,96,1.21,154,0.88,96,1.11,Yes,sure,hit,0.9915409088134766,NA
317,2s!m14b,False,302,2,equal,ST2_high_3_a1,P = T2?,Same,2,1,high,70,1.4,96,1.16,96,1.2,No,sure,miss,1.6004106998443604,NA
318,2s!m14b,False,303,2,equal,ST1_high_3_a1,P = T2?,Same,1,1,high,70,1.83,96,1.1,70,1.53,No,sure,cr,1.1714520454406738,NA
319,2s!m14b,False,304,2,equal,ST1_high_1_a1,P = T1?,Same,1,1,high,82,1.42,112,1.09,82,1.28,Yes,sure,hit,1.3172287940979004,NA
320,2s!m14b,False,305,2,equal,DT1_low_3_a1,P = T2?,Different,1,1,low,70,1.65,112,1.22,60,1.61,No,sure,cr,1.050846815109253,NA
321,2s!m14b,False,306,2,equal,ST2_low_5_a1,P = T2?,Same,2,1,low,96,1.25,154,0.76,154,0.72,Yes,sure,hit,1.228771686553955,NA
322,2s!m14b,False,307,2,equal,ST2_high_2_a2,P = T2?,Same,2,2,high,112,0.97,82,1.24,82,1.23,No,sure,miss,1.4982011318206787,NA
323,2s!m14b,False,308,2,equal,ST1_high_5_a2,P = T1?,Same,1,2,high,96,1.37,132,0.98,96,1.18,No,sure,miss,0.9879100322723389,NA
324,2s!m14b,False,309,2,equal,ST1_high_2_a1,P = T1?,Same,1,1,high,112,0.94,82,1.46,112,1.02,Yes,sure,hit,1.1054730415344238,NA
325,2s!m14b,False,310,2,equal,STb_1_a2,P = T1?,Same,0,2,None,60,1.84,60,1.88,60,1.87,No,sure,miss,0.8740170001983643,NA
326,2s!m14b,False,311,2,equal,ST1_low_6_a1,P = T1?,Same,1,1,low,154,0.78,96,1.25,154,0.72,Yes,sure,hit,1.0529768466949463,NA
327,2s!m14b,False,312,2,equal,ST1_low_4_a2,P = T1?,Same,1,2,low,112,1.18,70,1.28,112,1.13,Yes,sure,hit,0.9276018142700195,NA
328,2s!m14b,False,313,2,equal,ST1_high_5_a1,P = T1?,Same,1,1,high,96,1.1,132,0.92,96,1.42,No,sure,miss,1.5330679416656494,NA
329,2s!m14b,False,314,2,equal,ST2_high_1_a1,P = T2?,Same,2,1,high,82,1.46,112,1.14,112,1.1,No,sure,miss,1.020871877670288,NA
330,2s!m14b,False,315,2,equal,ST2_high_3_a2,P = T1?,Same,2,2,high,70,1.76,96,1.37,96,1.32,Yes,sure,fa,0.45313119888305664,NA
331,2s!m14b,False,316,2,equal,ST1_low_2_a1,P = T2?,Same,1,1,low,132,0.97,82,1.32,132,0.82,No,quiteSure,cr,0.5418288707733154,NA
332,2s!m14b,False,317,2,equal,STb_5_a1,P = T1?,Same,0,1,None,112,1.03,112,0.99,112,1.09,No,quiteSure,miss,0.6878721714019775,NA
333,2s!m14b,False,318,2,equal,ST1_low_1_a1,P = T2?,Same,1,1,low,82,1.48,132,1.02,82,1.62,No,quiteSure,cr,4.71388578414917,NA
334,2s!m14b,False,319,2,equal,ST2_high_6_a2,P = T1?,Same,2,2,high,132,1.06,96,1.34,96,1.32,No,quiteSure,cr,0.7300770282745361,NA
335,2s!m14b,False,320,2,equal,ST1_high_6_a1,P = T1?,Same,1,1,high,132,1.03,96,1.26,132,1.05,Yes,sure,hit,3.1229708194732666,0.0
