,pcode,practice,trial,block,questionType,condition,question,PTS,TargetPosition,AccessoryPosition,TNS,T1_hz,T1_amp,T2_hz,T2_amp,P_hz,P_amp,response_dicho,response_rating,response_sdt,rt,P_correct
0,2s!m14b,True,1,1,unequal,ST2_low_5_a1,P != T1?,Same,2,1,low,96,1.25,154,0.77,154,0.94,Yes,sure,hit,4.5591816902160645,NA
1,2s!m14b,True,2,1,unequal,DT1_low_1_a2,P != T2?,Different,1,2,low,82,1.58,132,0.79,70,1.17,Yes,sure,hit,6.0589189529418945,NA
2,2s!m14b,True,3,1,unequal,ST1_low_2_a2,P != T2?,Same,1,2,low,132,0.77,82,1.42,132,0.87,Yes,sure,hit,1.8935270309448242,NA
3,2s!m14b,True,4,1,unequal,STb_3_a1,P != T1?,Same,0,1,None,82,1.36,82,1.63,82,1.48,No,sure,cr,4.351003885269165,NA
4,2s!m14b,True,5,1,unequal,STb_4_a2,P != T1?,Same,0,2,None,96,1.39,96,1.35,96,1.25,No,sure,cr,8.159301996231079,NA
5,2s!m14b,True,6,1,unequal,DT2_low_5_a2,P != T1?,Different,2,2,low,96,1.19,154,0.95,180,0.85,Yes,sure,hit,2.644865036010742,NA
6,2s!m14b,True,7,1,unequal,STb_4_a1,P != T2?,Same,0,1,None,96,1.39,96,1.24,96,1.14,No,sure,cr,1.9236600399017334,NA
7,2s!m14b,True,8,1,unequal,STb_3_a2,P != T2?,Same,0,2,None,82,1.56,82,1.22,82,1.5,No,sure,cr,3.5092620849609375,NA
8,2s!m14b,True,9,1,unequal,ST1_low_2_a1,P != T2?,Same,1,1,low,132,0.86,82,1.52,132,0.99,No,sure,miss,6.301643133163452,NA
9,2s!m14b,True,10,1,unequal,ST2_low_1_a1,P != T1?,Same,2,1,low,82,1.59,132,0.96,132,0.78,Yes,sure,hit,5.85328483581543,NA
10,2s!m14b,True,11,1,unequal,ST1_high_2_a1,P != T1?,Same,1,1,high,112,1.12,82,1.63,112,1.11,No,sure,cr,2.4365479946136475,NA
11,2s!m14b,True,12,1,unequal,ST1_low_4_a2,P != T1?,Same,1,2,low,112,0.93,70,1.56,112,1.05,No,sure,cr,2.103084087371826,NA
12,2s!m14b,True,13,1,unequal,ST2_high_5_a2,P != T2?,Same,2,2,high,96,1.23,132,0.97,132,0.82,Yes,sure,fa,2.8858158588409424,NA
13,2s!m14b,True,14,1,unequal,ST2_high_2_a1,P != T2?,Same,2,1,high,112,1.3,82,1.22,82,1.42,No,sure,cr,1.3542001247406006,NA
14,2s!m14b,True,15,1,unequal,DT2_high_6_a1,P != T2?,Different,2,1,high,132,1.03,96,1.3,82,1.12,No,sure,cr,2.728567123413086,NA
15,2s!m14b,True,16,1,unequal,DT2_high_2_a2,P != T1?,Different,2,2,high,112,1.11,82,1.36,70,1.52,No,sure,miss,2.2833290100097656,0.625
16,2s!m14b,False,1,1,unequal,ST2_low_2_a1,P != T2?,Same,2,1,low,132,1.02,82,1.25,82,1.46,No,sure,cr,2.3713297843933105,NA
17,2s!m14b,False,2,1,unequal,ST1_low_1_a1,P != T2?,Same,1,1,low,82,1.62,132,0.88,82,1.27,No,sure,miss,1.5270051956176758,NA
18,2s!m14b,False,3,1,unequal,ST1_low_1_a2,P != T2?,Same,1,2,low,82,1.59,132,0.8,82,1.57,No,sure,miss,1.258561134338379,NA
19,2s!m14b,False,4,1,unequal,ST2_high_1_a2,P != T1?,Same,2,2,high,82,1.24,112,1.0,112,1.08,No,sure,miss,1.9238090515136719,NA
20,2s!m14b,False,5,1,unequal,ST1_high_6_a1,P != T1?,Same,1,1,high,132,0.99,96,1.37,132,0.93,No,sure,cr,1.475111961364746,NA
21,2s!m14b,False,6,1,unequal,ST2_low_1_a1,P != T1?,Same,2,1,low,82,1.63,132,0.93,132,0.95,Yes,sure,hit,2.0410990715026855,NA
22,2s!m14b,False,7,1,unequal,ST1_low_6_a1,P != T1?,Same,1,1,low,154,0.89,96,1.3,154,0.81,No,sure,cr,1.3782730102539062,NA
23,2s!m14b,False,8,1,unequal,ST2_high_5_a1,P != T2?,Same,2,1,high,96,1.33,132,0.8,132,0.92,No,sure,cr,1.2620759010314941,NA
24,2s!m14b,False,9,1,unequal,ST2_high_2_a1,P != T2?,Same,2,1,high,112,1.3,82,1.22,82,1.42,No,sure,cr,2.761636734008789,NA
25,2s!m14b,False,10,1,unequal,ST1_high_1_a2,P != T1?,Same,1,2,high,82,1.63,112,1.19,82,1.48,Yes,sure,fa,6.208770990371704,NA
26,2s!m14b,False,11,1,unequal,ST2_high_4_a2,P != T2?,Same,2,2,high,96,1.17,70,1.47,70,1.6,No,sure,cr,2.3403470516204834,NA
27,2s!m14b,False,12,1,unequal,ST2_low_6_a1,P != T2?,Same,2,1,low,154,0.71,96,1.19,96,1.29,No,sure,cr,0.9311590194702148,NA
28,2s!m14b,False,13,1,unequal,ST2_high_3_a2,P != T2?,Same,2,2,high,70,1.63,96,1.15,96,1.33,No,sure,cr,1.472856044769287,NA
29,2s!m14b,False,14,1,unequal,ST1_low_2_a1,P != T1?,Same,1,1,low,132,0.85,82,1.63,132,0.86,No,sure,cr,1.142378807067871,NA
30,2s!m14b,False,15,1,unequal,ST2_high_1_a2,P != T2?,Same,2,2,high,82,1.46,112,0.93,112,1.15,Yes,sure,fa,3.7799606323242188,NA
31,2s!m14b,False,16,1,unequal,ST2_high_2_a1,P != T2?,Same,2,1,high,112,1.02,82,1.54,82,1.24,No,sure,cr,2.1605582237243652,NA
32,2s!m14b,False,17,1,unequal,DT1_high_4_a2,P != T1?,Different,1,2,high,96,1.11,70,1.58,112,1.15,No,sure,cr,3.4827969074249268,NA
33,2s!m14b,False,18,1,unequal,ST2_low_2_a2,P != T1?,Same,2,2,low,132,0.97,82,1.43,82,1.55,Yes,sure,hit,1.6280999183654785,NA
34,2s!m14b,False,19,1,unequal,ST2_low_3_a1,P != T1?,Same,2,1,low,70,1.73,112,0.92,112,1.16,Yes,sure,hit,1.9502148628234863,NA
35,2s!m14b,False,20,1,unequal,ST2_low_1_a1,P != T2?,Same,2,1,low,82,1.53,132,0.99,132,0.85,No,sure,cr,1.141728162765503,NA
36,2s!m14b,False,21,1,unequal,ST1_high_6_a1,P != T1?,Same,1,1,high,132,0.79,96,1.17,132,0.91,No,sure,cr,1.4998326301574707,NA
37,2s!m14b,False,22,1,unequal,ST1_low_1_a2,P != T1?,Same,1,2,low,82,1.42,132,0.86,82,1.55,No,sure,cr,1.832669973373413,NA
38,2s!m14b,False,23,1,unequal,ST1_high_1_a1,P != T1?,Same,1,1,high,82,1.31,112,1.08,82,1.48,No,sure,cr,2.4314937591552734,NA
39,2s!m14b,False,24,1,unequal,ST1_high_1_a2,P != T1?,Same,1,2,high,82,1.59,112,0.95,82,1.3,No,sure,cr,1.438965082168579,NA
40,2s!m14b,False,25,1,unequal,ST1_low_6_a1,P != T2?,Same,1,1,low,154,0.75,96,1.19,154,0.81,Yes,sure,hit,2.1352081298828125,NA
41,2s!m14b,False,26,1,unequal,ST2_high_3_a2,P != T1?,Same,2,2,high,70,1.42,96,1.07,96,1.41,Yes,sure,hit,3.272189140319824,NA
42,2s!m14b,False,27,1,unequal,ST2_low_4_a2,P != T2?,Same,2,2,low,112,1.2,70,1.67,70,1.55,No,sure,cr,1.7418429851531982,NA
43,2s!m14b,False,28,1,unequal,ST1_high_4_a1,P != T2?,Same,1,1,high,96,1.08,70,1.68,96,1.34,No,sure,miss,1.2879118919372559,NA
44,2s!m14b,False,29,1,unequal,ST1_low_6_a2,P != T2?,Same,1,2,low,154,0.83,96,1.43,154,0.94,Yes,sure,hit,2.255960702896118,NA
45,2s!m14b,False,30,1,unequal,ST1_high_4_a1,P != T1?,Same,1,1,high,96,1.32,70,1.47,96,1.27,No,sure,cr,2.6065280437469482,NA
46,2s!m14b,False,31,1,unequal,ST2_low_2_a2,P != T2?,Same,2,2,low,132,0.92,82,1.58,82,1.27,Yes,sure,fa,1.9476418495178223,NA
47,2s!m14b,False,32,1,unequal,ST1_high_6_a2,P != T2?,Same,1,2,high,132,0.91,96,1.23,132,0.79,Yes,quiteSure,hit,3.7572600841522217,NA
48,2s!m14b,False,33,1,unequal,ST2_low_3_a1,P != T2?,Same,2,1,low,70,1.51,112,1.23,112,0.98,Yes,quiteSure,fa,3.5720980167388916,NA
49,2s!m14b,False,34,1,unequal,DT1_low_6_a1,P != T1?,Different,1,1,low,154,0.81,96,1.42,180,0.83,No,sure,cr,3.4815480709075928,NA
50,2s!m14b,False,35,1,unequal,ST2_low_4_a1,P != T1?,Same,2,1,low,112,1.11,70,1.79,70,1.63,Yes,sure,hit,1.7127668857574463,NA
51,2s!m14b,False,36,1,unequal,ST2_high_2_a1,P != T2?,Same,2,1,high,112,1.16,82,1.47,82,1.37,No,sure,cr,1.5908589363098145,NA
52,2s!m14b,False,37,1,unequal,ST1_high_6_a1,P != T2?,Same,1,1,high,132,0.96,96,1.23,132,0.9,Yes,unsure,hit,4.980698823928833,NA
53,2s!m14b,False,38,1,unequal,ST2_high_5_a2,P != T2?,Same,2,2,high,96,1.23,132,0.97,132,0.82,No,unsure,cr,3.118741989135742,NA
54,2s!m14b,False,39,1,unequal,ST2_low_2_a1,P != T2?,Same,2,1,low,132,1.02,82,1.6,82,1.27,No,sure,cr,1.9495689868927002,NA
55,2s!m14b,False,40,1,unequal,ST1_high_4_a2,P != T1?,Same,1,2,high,96,1.37,70,1.6,96,1.38,Yes,sure,fa,1.9194552898406982,NA
56,2s!m14b,False,41,1,unequal,DT2_high_6_a1,P != T2?,Different,2,1,high,132,1.03,96,1.3,82,1.12,Yes,unsure,fa,3.691105842590332,NA
57,2s!m14b,False,42,1,unequal,STb_8_a2,P != T2?,Same,0,2,None,180,0.86,180,0.88,180,0.84,No,sure,cr,2.1018640995025635,NA
58,2s!m14b,False,43,1,unequal,ST1_low_1_a2,P != T1?,Same,1,2,low,82,1.63,132,0.9,82,1.27,No,sure,cr,1.260972023010254,NA
59,2s!m14b,False,44,1,unequal,ST1_low_2_a1,P != T1?,Same,1,1,low,132,0.96,82,1.59,132,0.96,Yes,unsure,fa,2.582740068435669,NA
60,2s!m14b,False,45,1,unequal,ST2_low_5_a2,P != T1?,Same,2,2,low,96,1.24,154,0.78,154,0.92,Yes,sure,hit,1.8596880435943604,NA
61,2s!m14b,False,46,1,unequal,STb_5_a2,P != T1?,Same,0,2,None,112,1.11,112,1.1,112,1.01,No,sure,cr,2.326021194458008,NA
62,2s!m14b,False,47,1,unequal,ST2_high_5_a1,P != T1?,Same,2,1,high,96,1.37,132,1.01,132,1.02,Yes,sure,hit,1.5856311321258545,NA
63,2s!m14b,False,48,1,unequal,ST1_low_4_a2,P != T2?,Same,1,2,low,112,1.2,70,1.77,112,1.19,No,sure,miss,1.7692279815673828,NA
64,2s!m14b,False,49,1,unequal,ST2_high_3_a1,P != T2?,Same,2,1,high,70,1.7,96,1.22,96,1.3,No,sure,cr,1.5975587368011475,NA
65,2s!m14b,False,50,1,unequal,ST1_high_5_a1,P != T2?,Same,1,1,high,96,1.13,132,0.88,96,1.07,No,sure,miss,1.2662038803100586,NA
66,2s!m14b,False,51,1,unequal,ST1_low_1_a2,P != T2?,Same,1,2,low,82,1.26,132,0.92,82,1.42,Yes,quiteSure,hit,1.8054959774017334,NA
67,2s!m14b,False,52,1,unequal,ST1_high_2_a1,P != T2?,Same,1,1,high,112,1.23,82,1.33,112,1.08,No,unsure,miss,2.462247133255005,NA
68,2s!m14b,False,53,1,unequal,ST1_high_6_a2,P != T2?,Same,1,2,high,132,0.98,96,1.34,132,0.89,No,sure,miss,2.1643729209899902,NA
69,2s!m14b,False,54,1,unequal,ST1_low_2_a2,P != T1?,Same,1,2,low,132,0.91,82,1.61,132,1.01,No,sure,cr,1.4690427780151367,NA
70,2s!m14b,False,55,1,unequal,ST1_high_6_a1,P != T2?,Same,1,1,high,132,0.99,96,1.06,132,0.81,No,sure,miss,1.229485034942627,NA
71,2s!m14b,False,56,1,unequal,ST2_low_3_a1,P != T1?,Same,2,1,low,70,1.49,112,1.11,112,1.2,Yes,quiteSure,hit,2.5485570430755615,NA
72,2s!m14b,False,57,1,unequal,STb_2_a2,P != T2?,Same,0,2,None,70,1.48,70,1.74,70,1.84,No,sure,cr,1.107356071472168,NA
73,2s!m14b,False,58,1,unequal,STb_1_a2,P != T1?,Same,0,2,None,60,1.76,60,1.99,60,1.74,No,sure,cr,1.2615382671356201,NA
74,2s!m14b,False,59,1,unequal,ST2_high_2_a1,P != T1?,Same,2,1,high,112,1.03,82,1.51,82,1.58,No,quiteSure,miss,1.6807940006256104,NA
75,2s!m14b,False,60,1,unequal,ST1_high_5_a2,P != T1?,Same,1,2,high,96,1.11,132,0.92,96,1.25,Yes,quiteSure,fa,2.9112319946289062,NA
76,2s!m14b,False,61,1,unequal,ST1_high_5_a2,P != T2?,Same,1,2,high,96,1.23,132,0.94,96,1.21,Yes,quiteSure,hit,1.7713258266448975,NA
77,2s!m14b,False,62,1,unequal,ST2_high_3_a2,P != T2?,Same,2,2,high,70,1.52,96,1.08,96,1.42,No,unsure,cr,3.0621371269226074,NA
78,2s!m14b,False,63,1,unequal,ST2_low_6_a1,P != T1?,Same,2,1,low,154,0.96,96,1.13,96,1.27,Yes,sure,hit,1.5885097980499268,NA
79,2s!m14b,False,64,1,unequal,ST2_low_2_a1,P != T1?,Same,2,1,low,132,1.05,82,1.59,82,1.62,Yes,sure,hit,1.3229501247406006,NA
80,2s!m14b,False,65,1,unequal,ST1_high_1_a2,P != T2?,Same,1,2,high,82,1.27,112,1.21,82,1.3,Yes,sure,hit,2.823137044906616,NA
81,2s!m14b,False,66,1,unequal,ST1_high_1_a2,P != T1?,Same,1,2,high,82,1.32,112,1.04,82,1.39,No,sure,cr,1.7712509632110596,NA
82,2s!m14b,False,67,1,unequal,ST1_high_3_a2,P != T2?,Same,1,2,high,70,1.66,96,1.43,70,1.42,Yes,quiteSure,hit,2.694888114929199,NA
83,2s!m14b,False,68,1,unequal,ST1_high_5_a2,P != T2?,Same,1,2,high,96,1.3,132,0.86,96,1.27,No,sure,miss,1.769029140472412,NA
84,2s!m14b,False,69,1,unequal,ST1_low_5_a2,P != T2?,Same,1,2,low,96,1.09,154,0.91,96,1.18,Yes,sure,hit,1.529820203781128,NA
85,2s!m14b,False,70,1,unequal,ST1_high_6_a1,P != T2?,Same,1,1,high,132,0.9,96,1.09,132,0.96,Yes,sure,hit,1.3808152675628662,NA
86,2s!m14b,False,71,1,unequal,ST1_high_2_a1,P != T1?,Same,1,1,high,112,1.11,82,1.24,112,1.15,No,sure,cr,1.3197858333587646,NA
87,2s!m14b,False,72,1,unequal,ST2_low_5_a1,P != T2?,Same,2,1,low,96,1.38,154,0.89,154,0.74,No,sure,cr,1.5297322273254395,NA
88,2s!m14b,False,73,1,unequal,ST1_low_1_a2,P != T1?,Same,1,2,low,82,1.58,132,1.04,82,1.27,No,sure,cr,1.589181900024414,NA
89,2s!m14b,False,74,1,unequal,ST2_low_6_a2,P != T2?,Same,2,2,low,154,0.74,96,1.41,96,1.13,No,unsure,cr,2.160975933074951,NA
90,2s!m14b,False,75,1,unequal,ST2_low_3_a1,P != T1?,Same,2,1,low,70,1.84,112,1.19,112,1.02,Yes,quiteSure,hit,3.2411038875579834,NA
91,2s!m14b,False,76,1,unequal,ST2_high_2_a2,P != T2?,Same,2,2,high,112,1.18,82,1.29,82,1.55,No,quiteSure,cr,2.131492853164673,NA
92,2s!m14b,False,77,1,unequal,ST2_high_3_a1,P != T2?,Same,2,1,high,70,1.76,96,1.41,96,1.09,No,sure,cr,1.803750991821289,NA
93,2s!m14b,False,78,1,unequal,ST1_low_6_a2,P != T1?,Same,1,2,low,154,0.84,96,1.36,154,0.93,No,sure,cr,1.2647111415863037,NA
94,2s!m14b,False,79,1,unequal,ST2_low_4_a2,P != T1?,Same,2,2,low,112,1.11,70,1.43,70,1.41,Yes,sure,hit,1.140613079071045,NA
95,2s!m14b,False,80,1,unequal,ST2_high_6_a1,P != T1?,Same,2,1,high,132,0.91,96,1.24,96,1.34,No,sure,miss,1.833575963973999,NA
96,2s!m14b,False,81,1,unequal,ST1_high_4_a1,P != T1?,Same,1,1,high,96,1.38,70,1.58,96,1.29,No,unsure,cr,3.778242826461792,NA
97,2s!m14b,False,82,1,unequal,DT2_high_2_a2,P != T2?,Different,2,2,high,112,1.16,82,1.42,70,1.69,No,sure,cr,1.0466408729553223,NA
98,2s!m14b,False,83,1,unequal,STb_8_a1,P != T2?,Same,0,1,None,180,0.79,180,0.84,180,0.75,No,sure,cr,1.2654290199279785,NA
99,2s!m14b,False,84,1,unequal,ST1_low_6_a1,P != T1?,Same,1,1,low,154,0.96,96,1.39,154,0.85,No,sure,cr,1.0532872676849365,NA
100,2s!m14b,False,85,1,unequal,STb_6_a2,P != T2?,Same,0,2,None,132,1.02,132,0.95,132,1.05,No,sure,cr,1.0885741710662842,NA
101,2s!m14b,False,86,1,unequal,ST1_low_3_a2,P != T2?,Same,1,2,low,70,1.71,112,0.95,70,1.4,Yes,quiteSure,hit,1.7688088417053223,NA
102,2s!m14b,False,87,1,unequal,ST2_low_2_a2,P != T2?,Same,2,2,low,132,0.95,82,1.37,82,1.51,Yes,quiteSure,fa,2.816396951675415,NA
103,2s!m14b,False,88,1,unequal,ST1_high_3_a1,P != T1?,Same,1,1,high,70,1.81,96,1.07,70,1.67,Yes,sure,fa,1.9796161651611328,NA
104,2s!m14b,False,89,1,unequal,ST2_high_6_a1,P != T1?,Same,2,1,high,132,0.82,96,1.18,96,1.09,Yes,unsure,hit,3.3971316814422607,NA
105,2s!m14b,False,90,1,unequal,ST1_high_3_a2,P != T1?,Same,1,2,high,70,1.65,96,1.36,70,1.54,No,sure,cr,1.7714300155639648,NA
106,2s!m14b,False,91,1,unequal,ST1_low_5_a2,P != T1?,Same,1,2,low,96,1.29,154,0.77,96,1.09,Yes,quiteSure,fa,1.6529059410095215,NA
107,2s!m14b,False,92,1,unequal,ST1_low_1_a1,P != T1?,Same,1,1,low,82,1.61,132,0.86,82,1.45,No,sure,cr,1.8899028301239014,NA
108,2s!m14b,False,93,1,unequal,ST2_high_3_a1,P != T1?,Same,2,1,high,70,1.79,96,1.12,96,1.38,No,quiteSure,miss,1.886085033416748,NA
109,2s!m14b,False,94,1,unequal,ST2_high_1_a1,P != T1?,Same,2,1,high,82,1.5,112,1.04,112,1.13,Yes,sure,hit,1.2046139240264893,NA
110,2s!m14b,False,95,1,unequal,ST1_low_6_a1,P != T2?,Same,1,1,low,154,0.91,96,1.33,154,0.95,Yes,sure,hit,1.3478929996490479,NA
111,2s!m14b,False,96,1,unequal,ST1_high_2_a2,P != T2?,Same,1,2,high,112,0.93,82,1.64,112,0.93,Yes,quiteSure,hit,1.800241231918335,NA
112,2s!m14b,False,97,1,unequal,ST2_high_2_a2,P != T1?,Same,2,2,high,112,1.17,82,1.34,82,1.35,Yes,unsure,hit,1.2660422325134277,NA
113,2s!m14b,False,98,1,unequal,ST1_low_2_a1,P != T2?,Same,1,1,low,132,0.9,82,1.26,132,0.84,Yes,unsure,hit,3.2688770294189453,NA
114,2s!m14b,False,99,1,unequal,ST2_high_6_a2,P != T1?,Same,2,2,high,132,0.88,96,1.12,96,1.17,No,sure,miss,1.3237650394439697,NA
115,2s!m14b,False,100,1,unequal,ST2_low_4_a1,P != T1?,Same,2,1,low,112,1.02,70,1.53,70,1.61,Yes,sure,hit,1.4102659225463867,NA
116,2s!m14b,False,101,1,unequal,ST1_high_6_a2,P != T1?,Same,1,2,high,132,0.98,96,1.28,132,1.02,No,sure,cr,2.220750093460083,NA
117,2s!m14b,False,102,1,unequal,ST1_high_4_a1,P != T2?,Same,1,1,high,96,1.07,70,1.59,96,1.2,Yes,quiteSure,hit,1.9216718673706055,NA
118,2s!m14b,False,103,1,unequal,ST1_low_5_a1,P != T1?,Same,1,1,low,96,1.25,154,0.78,96,1.27,No,sure,cr,1.7158770561218262,NA
119,2s!m14b,False,104,1,unequal,ST1_low_3_a1,P != T2?,Same,1,1,low,70,1.77,112,1.12,70,1.76,Yes,sure,hit,1.9226622581481934,NA
120,2s!m14b,False,105,1,unequal,DT2_low_4_a1,P != T2?,Different,2,1,low,112,1.17,70,1.76,60,1.69,No,sure,cr,1.8658649921417236,NA
121,2s!m14b,False,106,1,unequal,ST1_low_5_a2,P != T2?,Same,1,2,low,96,1.14,154,0.76,96,1.09,Yes,unsure,hit,2.462294816970825,NA
122,2s!m14b,False,107,1,unequal,ST1_low_2_a2,P != T2?,Same,1,2,low,132,0.77,82,1.42,132,0.87,No,sure,miss,1.4681658744812012,NA
123,2s!m14b,False,108,1,unequal,ST1_low_3_a2,P != T2?,Same,1,2,low,70,1.54,112,1.17,70,1.47,No,sure,miss,1.1677510738372803,NA
124,2s!m14b,False,109,1,unequal,ST2_low_5_a2,P != T2?,Same,2,2,low,96,1.31,154,0.75,154,0.83,No,sure,cr,1.5936651229858398,NA
125,2s!m14b,False,110,1,unequal,ST2_low_4_a2,P != T1?,Same,2,2,low,112,1.03,70,1.85,70,1.64,Yes,sure,hit,1.4412150382995605,NA
126,2s!m14b,False,111,1,unequal,ST2_high_4_a1,P != T1?,Same,2,1,high,96,1.23,70,1.77,70,1.83,Yes,sure,hit,1.2039968967437744,NA
127,2s!m14b,False,112,1,unequal,ST2_low_1_a2,P != T1?,Same,2,2,low,82,1.43,132,0.99,132,0.88,Yes,sure,hit,1.8660128116607666,NA
128,2s!m14b,False,113,1,unequal,ST1_high_5_a1,P != T2?,Same,1,1,high,96,1.3,132,0.82,96,1.32,Yes,sure,hit,11.163893222808838,NA
129,2s!m14b,False,114,1,unequal,ST2_high_6_a1,P != T2?,Same,2,1,high,132,0.82,96,1.39,96,1.37,No,unsure,cr,2.273681879043579,NA
130,2s!m14b,False,115,1,unequal,ST1_high_5_a2,P != T1?,Same,1,2,high,96,1.34,132,0.89,96,1.28,No,sure,cr,3.720560073852539,NA
131,2s!m14b,False,116,1,unequal,ST2_low_4_a2,P != T2?,Same,2,2,low,112,1.12,70,1.81,70,1.54,Yes,unsure,fa,2.519603967666626,NA
132,2s!m14b,False,117,1,unequal,ST2_low_3_a2,P != T2?,Same,2,2,low,70,1.5,112,0.92,112,1.13,No,quiteSure,cr,3.8120689392089844,NA
133,2s!m14b,False,118,1,unequal,ST2_low_1_a1,P != T1?,Same,2,1,low,82,1.59,132,0.96,132,0.78,Yes,sure,hit,1.6187961101531982,NA
134,2s!m14b,False,119,1,unequal,ST2_high_6_a2,P != T1?,Same,2,2,high,132,1.03,96,1.27,96,1.14,Yes,sure,hit,2.1894729137420654,NA
135,2s!m14b,False,120,1,unequal,ST1_high_2_a2,P != T2?,Same,1,2,high,112,0.99,82,1.25,112,1.0,No,sure,miss,4.650569915771484,NA
136,2s!m14b,False,121,1,unequal,ST2_high_5_a1,P != T2?,Same,2,1,high,96,1.24,132,1.0,132,0.8,Yes,unsure,fa,2.283200979232788,NA
137,2s!m14b,False,122,1,unequal,ST2_low_6_a1,P != T2?,Same,2,1,low,154,0.85,96,1.13,96,1.37,No,sure,cr,2.63858699798584,NA
138,2s!m14b,False,123,1,unequal,ST1_high_1_a2,P != T2?,Same,1,2,high,82,1.54,112,1.06,82,1.37,Yes,unsure,hit,1.678499698638916,NA
139,2s!m14b,False,124,1,unequal,DT1_low_3_a2,P != T1?,Different,1,2,low,70,1.42,112,1.04,60,1.99,No,quiteSure,cr,1.6213159561157227,NA
140,2s!m14b,False,125,1,unequal,ST1_low_5_a1,P != T2?,Same,1,1,low,96,1.38,154,0.85,96,1.22,Yes,sure,hit,1.9185690879821777,NA
141,2s!m14b,False,126,1,unequal,ST1_high_2_a2,P != T1?,Same,1,2,high,112,1.06,82,1.48,112,1.0,No,sure,cr,1.3781378269195557,NA
142,2s!m14b,False,127,1,unequal,ST2_high_1_a1,P != T2?,Same,2,1,high,82,1.57,112,1.06,112,1.05,Yes,quiteSure,fa,1.8919408321380615,NA
143,2s!m14b,False,128,1,unequal,ST1_low_5_a2,P != T1?,Same,1,2,low,96,1.2,154,0.79,96,1.34,No,sure,cr,1.232720136642456,NA
144,2s!m14b,False,129,1,unequal,ST2_high_4_a2,P != T1?,Same,2,2,high,96,1.3,70,1.67,70,1.45,Yes,sure,hit,1.383739948272705,NA
145,2s!m14b,False,130,1,unequal,ST2_high_6_a2,P != T2?,Same,2,2,high,132,0.99,96,1.26,96,1.28,Yes,quiteSure,fa,2.220578193664551,NA
146,2s!m14b,False,131,1,unequal,ST1_low_6_a2,P != T1?,Same,1,2,low,154,0.76,96,1.35,154,0.82,No,sure,cr,4.262444972991943,NA
147,2s!m14b,False,132,1,unequal,ST2_high_3_a1,P != T1?,Same,2,1,high,70,1.64,96,1.23,96,1.4,Yes,unsure,hit,3.7527928352355957,NA
148,2s!m14b,False,133,1,unequal,ST2_high_5_a1,P != T1?,Same,2,1,high,96,1.15,132,1.0,132,1.06,Yes,sure,hit,4.025506258010864,NA
149,2s!m14b,False,134,1,unequal,ST2_high_4_a1,P != T2?,Same,2,1,high,96,1.37,70,1.64,70,1.83,No,sure,cr,1.6774590015411377,NA
150,2s!m14b,False,135,1,unequal,ST1_low_6_a1,P != T1?,Same,1,1,low,154,0.87,96,1.1,154,0.71,No,sure,cr,3.6293301582336426,NA
151,2s!m14b,False,136,1,unequal,ST1_low_3_a2,P != T2?,Same,1,2,low,70,1.71,112,1.15,70,1.39,Yes,sure,hit,1.7738368511199951,NA
152,2s!m14b,False,137,1,unequal,ST2_high_2_a1,P != T1?,Same,2,1,high,112,1.17,82,1.36,82,1.49,Yes,sure,hit,1.5290608406066895,NA
153,2s!m14b,False,138,1,unequal,ST1_high_2_a1,P != T1?,Same,1,1,high,112,1.12,82,1.63,112,1.11,Yes,unsure,fa,2.2820279598236084,NA
154,2s!m14b,False,139,1,unequal,ST1_low_5_a1,P != T2?,Same,1,1,low,96,1.32,154,0.81,96,1.25,Yes,quiteSure,hit,2.1580779552459717,NA
155,2s!m14b,False,140,1,unequal,DT1_low_1_a2,P != T1?,Different,1,2,low,82,1.48,132,0.79,70,1.8,Yes,unsure,fa,3.325723886489868,NA
156,2s!m14b,False,141,1,unequal,ST2_high_5_a1,P != T1?,Same,2,1,high,96,1.18,132,0.93,132,0.98,Yes,sure,hit,1.2858128547668457,NA
157,2s!m14b,False,142,1,unequal,STb_5_a1,P != T1?,Same,0,1,None,112,1.07,112,1.15,112,0.98,No,quiteSure,cr,1.8282387256622314,NA
158,2s!m14b,False,143,1,unequal,ST2_high_3_a1,P != T2?,Same,2,1,high,70,1.58,96,1.33,96,1.39,No,sure,cr,1.3515520095825195,NA
159,2s!m14b,False,144,1,unequal,STb_7_a2,P != T2?,Same,0,2,None,154,0.73,154,0.95,154,0.73,No,sure,cr,1.383112907409668,NA
160,2s!m14b,False,145,1,unequal,ST2_high_1_a2,P != T1?,Same,2,2,high,82,1.58,112,1.0,112,1.01,No,unsure,miss,3.0614750385284424,NA
161,2s!m14b,False,146,1,unequal,ST1_high_1_a1,P != T1?,Same,1,1,high,82,1.23,112,1.11,82,1.6,No,quiteSure,cr,3.2972121238708496,NA
162,2s!m14b,False,147,1,unequal,ST2_high_6_a1,P != T2?,Same,2,1,high,132,0.79,96,1.24,96,1.33,No,sure,cr,1.3178141117095947,NA
163,2s!m14b,False,148,1,unequal,ST1_high_2_a2,P != T1?,Same,1,2,high,112,1.09,82,1.43,112,1.08,No,quiteSure,cr,2.6388537883758545,NA
164,2s!m14b,False,149,1,unequal,ST2_high_6_a1,P != T1?,Same,2,1,high,132,1.03,96,1.3,96,1.14,Yes,sure,hit,1.2010698318481445,NA
165,2s!m14b,False,150,1,unequal,STb_1_a1,P != T2?,Same,0,1,None,60,1.62,60,1.79,60,1.81,No,sure,cr,2.8809852600097656,NA
166,2s!m14b,False,151,1,unequal,DT2_high_6_a2,P != T2?,Different,2,2,high,132,0.85,96,1.35,82,1.35,No,sure,cr,1.231032133102417,NA
167,2s!m14b,False,152,1,unequal,ST2_low_6_a2,P != T1?,Same,2,2,low,154,0.88,96,1.15,96,1.15,Yes,sure,hit,1.107226848602295,NA
168,2s!m14b,False,153,1,unequal,ST1_high_3_a1,P != T2?,Same,1,1,high,70,1.59,96,1.3,70,1.81,Yes,unsure,hit,2.0089669227600098,NA
169,2s!m14b,False,154,1,unequal,ST2_low_6_a2,P != T2?,Same,2,2,low,154,0.95,96,1.31,96,1.17,No,sure,cr,2.014965057373047,NA
170,2s!m14b,False,155,1,unequal,ST2_low_6_a2,P != T1?,Same,2,2,low,154,0.72,96,1.33,96,1.35,Yes,quiteSure,hit,1.295626163482666,NA
171,2s!m14b,False,156,1,unequal,ST1_low_1_a1,P != T1?,Same,1,1,low,82,1.48,132,0.97,82,1.22,No,sure,cr,2.9700570106506348,NA
172,2s!m14b,False,157,1,unequal,ST1_low_3_a2,P != T1?,Same,1,2,low,70,1.65,112,1.12,70,1.53,Yes,sure,fa,2.18786883354187,NA
173,2s!m14b,False,158,1,unequal,ST1_high_1_a1,P != T2?,Same,1,1,high,82,1.53,112,1.13,82,1.52,No,unsure,miss,4.470144987106323,NA
174,2s!m14b,False,159,1,unequal,ST1_high_6_a2,P != T1?,Same,1,2,high,132,0.81,96,1.31,132,1.01,No,unsure,cr,2.0450081825256348,NA
175,2s!m14b,False,160,1,unequal,ST2_high_3_a2,P != T1?,Same,2,2,high,70,1.76,96,1.19,96,1.37,No,quiteSure,miss,3.451261043548584,NA
176,2s!m14b,False,161,1,unequal,ST2_high_2_a2,P != T2?,Same,2,2,high,112,1.06,82,1.44,82,1.25,No,sure,cr,2.164168119430542,NA
177,2s!m14b,False,162,1,unequal,ST1_high_2_a2,P != T1?,Same,1,2,high,112,0.95,82,1.28,112,1.19,Yes,unsure,fa,2.696657180786133,NA
178,2s!m14b,False,163,1,unequal,ST2_low_5_a1,P != T2?,Same,2,1,low,96,1.32,154,0.81,154,0.76,No,sure,cr,1.2922921180725098,NA
179,2s!m14b,False,164,1,unequal,ST2_high_6_a2,P != T2?,Same,2,2,high,132,0.87,96,1.22,96,1.16,No,sure,cr,1.5593199729919434,NA
180,2s!m14b,False,165,1,unequal,ST1_low_2_a1,P != T1?,Same,1,1,low,132,0.9,82,1.34,132,1.01,Yes,unsure,fa,3.5698001384735107,NA
181,2s!m14b,False,166,1,unequal,ST2_high_2_a2,P != T1?,Same,2,2,high,112,1.0,82,1.39,82,1.55,Yes,quiteSure,hit,1.8865981101989746,NA
182,2s!m14b,False,167,1,unequal,ST2_low_5_a1,P != T1?,Same,2,1,low,96,1.36,154,0.79,154,0.72,Yes,sure,hit,1.8583478927612305,NA
183,2s!m14b,False,168,1,unequal,ST2_high_1_a2,P != T2?,Same,2,2,high,82,1.25,112,1.08,112,0.99,No,sure,cr,1.0774710178375244,NA
184,2s!m14b,False,169,1,unequal,ST1_low_4_a2,P != T1?,Same,1,2,low,112,0.99,70,1.77,112,1.09,No,sure,cr,3.1794989109039307,NA
185,2s!m14b,False,170,1,unequal,ST2_high_3_a2,P != T2?,Same,2,2,high,70,1.45,96,1.32,96,1.27,No,sure,cr,0.8987960815429688,NA
186,2s!m14b,False,171,1,unequal,ST2_low_5_a2,P != T1?,Same,2,2,low,96,1.31,154,0.79,154,0.82,Yes,sure,hit,1.293609857559204,NA
187,2s!m14b,False,172,1,unequal,DT1_low_1_a1,P != T2?,Different,1,1,low,82,1.52,132,0.83,70,1.51,Yes,sure,hit,2.340485095977783,NA
188,2s!m14b,False,173,1,unequal,ST2_high_5_a2,P != T1?,Same,2,2,high,96,1.1,132,0.88,132,0.8,Yes,quiteSure,hit,1.500708818435669,NA
189,2s!m14b,False,174,1,unequal,ST1_high_3_a2,P != T1?,Same,1,2,high,70,1.54,96,1.43,70,1.8,No,unsure,cr,4.94572901725769,NA
190,2s!m14b,False,175,1,unequal,ST1_high_6_a2,P != T1?,Same,1,2,high,132,0.95,96,1.08,132,1.0,No,sure,cr,1.0517351627349854,NA
191,2s!m14b,False,176,1,unequal,ST1_low_4_a2,P != T2?,Same,1,2,low,112,0.92,70,1.54,112,0.97,No,unsure,miss,1.5042610168457031,NA
192,2s!m14b,False,177,1,unequal,ST2_high_5_a1,P != T2?,Same,2,1,high,96,1.41,132,0.89,132,0.99,No,sure,cr,0.9885768890380859,NA
193,2s!m14b,False,178,1,unequal,ST1_low_6_a1,P != T2?,Same,1,1,low,154,0.83,96,1.33,154,0.86,Yes,unsure,hit,2.704158067703247,NA
194,2s!m14b,False,179,1,unequal,ST2_high_5_a2,P != T1?,Same,2,2,high,96,1.11,132,0.87,132,0.93,No,sure,miss,1.3478801250457764,NA
195,2s!m14b,False,180,1,unequal,ST1_low_2_a2,P != T2?,Same,1,2,low,132,0.84,82,1.39,132,0.89,Yes,sure,hit,1.9202287197113037,NA
196,2s!m14b,False,181,1,unequal,ST2_high_6_a1,P != T2?,Same,2,1,high,132,1.05,96,1.27,96,1.11,No,sure,cr,1.117906093597412,NA
197,2s!m14b,False,182,1,unequal,ST2_low_6_a1,P != T1?,Same,2,1,low,154,0.85,96,1.2,96,1.31,Yes,sure,hit,1.169118881225586,NA
198,2s!m14b,False,183,1,unequal,ST2_high_1_a1,P != T1?,Same,2,1,high,82,1.39,112,1.21,112,1.04,Yes,unsure,hit,1.351701021194458,NA
199,2s!m14b,False,184,1,unequal,ST2_low_5_a2,P != T2?,Same,2,2,low,96,1.22,154,0.9,154,0.95,No,sure,cr,1.5870361328125,NA
200,2s!m14b,False,185,1,unequal,STb_3_a1,P != T1?,Same,0,1,None,82,1.36,82,1.63,82,1.48,No,quiteSure,cr,1.4984142780303955,NA
201,2s!m14b,False,186,1,unequal,ST2_high_4_a2,P != T2?,Same,2,2,high,96,1.29,70,1.82,70,1.75,Yes,unsure,fa,1.4089770317077637,NA
202,2s!m14b,False,187,1,unequal,ST1_high_3_a2,P != T2?,Same,1,2,high,70,1.64,96,1.06,70,1.68,No,sure,miss,1.047565221786499,NA
203,2s!m14b,False,188,1,unequal,ST2_high_4_a2,P != T1?,Same,2,2,high,96,1.38,70,1.37,70,1.64,No,quiteSure,miss,2.9710183143615723,NA
204,2s!m14b,False,189,1,unequal,ST1_high_3_a2,P != T2?,Same,1,2,high,70,1.79,96,1.34,70,1.75,No,quiteSure,miss,1.8573689460754395,NA
205,2s!m14b,False,190,1,unequal,ST2_high_1_a1,P != T2?,Same,2,1,high,82,1.31,112,1.23,112,0.99,Yes,sure,fa,1.7967660427093506,NA
206,2s!m14b,False,191,1,unequal,STb_7_a2,P != T1?,Same,0,2,None,154,0.72,154,0.71,154,0.8,No,sure,cr,1.797990083694458,NA
207,2s!m14b,False,192,1,unequal,ST2_low_4_a1,P != T2?,Same,2,1,low,112,1.15,70,1.76,70,1.82,No,sure,cr,1.1701750755310059,NA
208,2s!m14b,False,193,1,unequal,ST2_high_5_a2,P != T2?,Same,2,2,high,96,1.42,132,0.8,132,0.92,Yes,unsure,fa,1.6219301223754883,NA
209,2s!m14b,False,194,1,unequal,ST1_high_4_a2,P != T2?,Same,1,2,high,96,1.19,70,1.76,96,1.19,Yes,unsure,hit,1.3179848194122314,NA
210,2s!m14b,False,195,1,unequal,ST1_low_5_a1,P != T1?,Same,1,1,low,96,1.42,154,0.92,96,1.06,No,quiteSure,cr,2.758697986602783,NA
211,2s!m14b,False,196,1,unequal,ST2_high_5_a2,P != T2?,Same,2,2,high,96,1.15,132,0.86,132,0.97,No,sure,cr,1.019665002822876,NA
212,2s!m14b,False,197,1,unequal,ST2_high_1_a1,P != T2?,Same,2,1,high,82,1.57,112,1.15,112,0.99,No,sure,cr,1.111741304397583,NA
213,2s!m14b,False,198,1,unequal,ST1_low_4_a2,P != T1?,Same,1,2,low,112,0.91,70,1.46,112,1.18,No,sure,cr,1.829444169998169,NA
214,2s!m14b,False,199,1,unequal,DT2_high_1_a1,P != T1?,Different,2,1,high,82,1.5,112,0.98,132,0.83,Yes,unsure,hit,1.6517391204833984,NA
215,2s!m14b,False,200,1,unequal,ST1_high_4_a1,P != T1?,Same,1,1,high,96,1.38,70,1.53,96,1.3,Yes,unsure,fa,2.1575379371643066,NA
216,2s!m14b,False,201,1,unequal,ST1_high_5_a1,P != T1?,Same,1,1,high,96,1.16,132,0.97,96,1.18,No,quiteSure,cr,2.1932480335235596,NA
217,2s!m14b,False,202,1,unequal,ST1_high_3_a2,P != T1?,Same,1,2,high,70,1.57,96,1.33,70,1.61,No,quiteSure,cr,1.5588059425354004,NA
218,2s!m14b,False,203,1,unequal,ST2_high_3_a1,P != T1?,Same,2,1,high,70,1.57,96,1.42,96,1.26,Yes,unsure,hit,2.759394884109497,NA
219,2s!m14b,False,204,1,unequal,ST2_high_2_a2,P != T2?,Same,2,2,high,112,1.2,82,1.37,82,1.58,No,sure,cr,1.0222721099853516,NA
220,2s!m14b,False,205,1,unequal,ST2_low_5_a2,P != T2?,Same,2,2,low,96,1.31,154,0.83,154,0.81,Yes,quiteSure,fa,2.336655855178833,NA
221,2s!m14b,False,206,1,unequal,ST1_high_5_a1,P != T1?,Same,1,1,high,96,1.12,132,0.95,96,1.34,No,sure,cr,3.5127387046813965,NA
222,2s!m14b,False,207,1,unequal,ST2_low_3_a2,P != T1?,Same,2,2,low,70,1.69,112,1.08,112,0.93,Yes,sure,hit,2.403729200363159,NA
223,2s!m14b,False,208,1,unequal,ST1_high_5_a1,P != T2?,Same,1,1,high,96,1.4,132,0.79,96,1.34,No,sure,miss,1.9187390804290771,NA
224,2s!m14b,False,209,1,unequal,ST2_high_4_a1,P != T2?,Same,2,1,high,96,1.07,70,1.85,70,1.59,No,sure,cr,1.2019221782684326,NA
225,2s!m14b,False,210,1,unequal,ST2_high_2_a1,P != T1?,Same,2,1,high,112,1.22,82,1.48,82,1.23,No,unsure,miss,1.7698967456817627,NA
226,2s!m14b,False,211,1,unequal,ST2_low_1_a1,P != T2?,Same,2,1,low,82,1.42,132,0.98,132,1.03,No,sure,cr,1.380418062210083,NA
227,2s!m14b,False,212,1,unequal,ST2_high_4_a2,P != T1?,Same,2,2,high,96,1.1,70,1.57,70,1.74,Yes,sure,hit,1.143913984298706,NA
228,2s!m14b,False,213,1,unequal,ST2_high_1_a2,P != T1?,Same,2,2,high,82,1.36,112,0.97,112,0.94,No,quiteSure,miss,0.5784852504730225,NA
229,2s!m14b,False,214,1,unequal,ST1_high_3_a1,P != T1?,Same,1,1,high,70,1.76,96,1.32,70,1.53,No,unsure,cr,2.5535151958465576,NA
230,2s!m14b,False,215,1,unequal,ST2_low_1_a1,P != T2?,Same,2,1,low,82,1.49,132,0.84,132,0.94,Yes,sure,fa,1.9212520122528076,NA
231,2s!m14b,False,216,1,unequal,ST1_high_2_a1,P != T2?,Same,1,1,high,112,1.13,82,1.5,112,0.97,No,quiteSure,miss,2.3453731536865234,NA
232,2s!m14b,False,217,1,unequal,ST1_low_2_a1,P != T2?,Same,1,1,low,132,1.04,82,1.5,132,0.91,No,sure,miss,2.1606690883636475,NA
233,2s!m14b,False,218,1,unequal,ST1_high_5_a2,P != T1?,Same,1,2,high,96,1.37,132,1.0,96,1.07,Yes,unsure,fa,1.2339301109313965,NA
234,2s!m14b,False,219,1,unequal,ST1_low_5_a2,P != T2?,Same,1,2,low,96,1.33,154,0.94,96,1.39,Yes,sure,hit,1.5923850536346436,NA
235,2s!m14b,False,220,1,unequal,DT2_low_4_a2,P != T1?,Different,2,2,low,112,1.16,70,1.5,60,1.71,Yes,sure,hit,1.0810341835021973,NA
236,2s!m14b,False,221,1,unequal,ST2_low_4_a1,P != T2?,Same,2,1,low,112,1.2,70,1.59,70,1.46,No,sure,cr,1.0471398830413818,NA
237,2s!m14b,False,222,1,unequal,ST2_low_6_a1,P != T1?,Same,2,1,low,154,0.93,96,1.26,96,1.37,Yes,quiteSure,hit,1.0219640731811523,NA
238,2s!m14b,False,223,1,unequal,ST1_high_1_a1,P != T2?,Same,1,1,high,82,1.25,112,1.15,82,1.43,No,unsure,miss,1.2605409622192383,NA
239,2s!m14b,False,224,1,unequal,ST2_low_3_a1,P != T2?,Same,2,1,low,70,1.56,112,1.15,112,1.23,No,sure,cr,0.9344160556793213,NA
240,2s!m14b,False,225,1,unequal,ST1_high_3_a1,P != T2?,Same,1,1,high,70,1.45,96,1.28,70,1.64,Yes,quiteSure,hit,1.5919969081878662,NA
241,2s!m14b,False,226,1,unequal,DT1_high_1_a1,P != T2?,Different,1,1,high,82,1.38,112,1.15,70,1.52,Yes,sure,hit,1.6498689651489258,NA
242,2s!m14b,False,227,1,unequal,ST2_low_1_a2,P != T1?,Same,2,2,low,82,1.42,132,0.85,132,0.94,Yes,quiteSure,hit,1.740635871887207,NA
243,2s!m14b,False,228,1,unequal,ST2_low_6_a2,P != T2?,Same,2,2,low,154,0.81,96,1.19,96,1.33,No,sure,cr,1.0898661613464355,NA
244,2s!m14b,False,229,1,unequal,STb_6_a1,P != T2?,Same,0,1,None,132,1.03,132,0.88,132,1.04,Yes,quiteSure,fa,1.1736080646514893,NA
245,2s!m14b,False,230,1,unequal,ST2_low_3_a2,P != T1?,Same,2,2,low,70,1.58,112,1.09,112,1.05,No,sure,miss,0.9578337669372559,NA
246,2s!m14b,False,231,1,unequal,STb_1_a2,P != T2?,Same,0,2,None,60,1.61,60,1.97,60,1.64,No,sure,cr,1.4444103240966797,NA
247,2s!m14b,False,232,1,unequal,ST1_low_5_a1,P != T1?,Same,1,1,low,96,1.21,154,0.88,96,1.09,Yes,unsure,fa,1.3559229373931885,NA
248,2s!m14b,False,233,1,unequal,ST2_low_5_a2,P != T1?,Same,2,2,low,96,1.24,154,0.77,154,0.81,Yes,sure,hit,1.085625171661377,NA
249,2s!m14b,False,234,1,unequal,ST1_high_4_a2,P != T2?,Same,1,2,high,96,1.2,70,1.7,96,1.23,No,sure,miss,1.1403138637542725,NA
250,2s!m14b,False,235,1,unequal,ST1_low_3_a1,P != T1?,Same,1,1,low,70,1.49,112,1.02,70,1.47,Yes,unsure,fa,0.7786250114440918,NA
251,2s!m14b,False,236,1,unequal,ST1_low_2_a2,P != T2?,Same,1,2,low,132,0.99,82,1.49,132,0.83,No,sure,miss,1.1990981101989746,NA
252,2s!m14b,False,237,1,unequal,DT1_low_1_a2,P != T2?,Different,1,2,low,82,1.58,132,0.79,70,1.17,Yes,unsure,hit,1.0207362174987793,NA
253,2s!m14b,False,238,1,unequal,ST2_low_3_a2,P != T2?,Same,2,2,low,70,1.63,112,1.03,112,1.13,Yes,unsure,fa,1.1456859111785889,NA
254,2s!m14b,False,239,1,unequal,ST2_low_3_a2,P != T2?,Same,2,2,low,70,1.78,112,1.23,112,1.15,No,sure,cr,1.412423849105835,NA
255,2s!m14b,False,240,1,unequal,ST2_high_4_a1,P != T1?,Same,2,1,high,96,1.13,70,1.81,70,1.41,Yes,unsure,hit,1.1698522567749023,NA
256,2s!m14b,False,241,1,unequal,ST2_low_3_a1,P != T2?,Same,2,1,low,70,1.7,112,0.98,112,1.21,No,sure,cr,0.9939420223236084,NA
257,2s!m14b,False,242,1,unequal,ST1_high_2_a1,P != T1?,Same,1,1,high,112,1.06,82,1.49,112,1.02,No,sure,cr,1.113713026046753,NA
258,2s!m14b,False,243,1,unequal,ST1_high_3_a1,P != T2?,Same,1,1,high,70,1.55,96,1.07,70,1.82,Yes,unsure,hit,2.848052978515625,NA
259,2s!m14b,False,244,1,unequal,ST1_low_1_a1,P != T2?,Same,1,1,low,82,1.32,132,0.79,82,1.22,No,sure,miss,1.1746511459350586,NA
260,2s!m14b,False,245,1,unequal,ST1_low_4_a2,P != T2?,Same,1,2,low,112,1.2,70,1.8,112,0.98,No,sure,miss,0.9581220149993896,NA
261,2s!m14b,False,246,1,unequal,ST1_high_6_a2,P != T2?,Same,1,2,high,132,0.91,96,1.07,132,0.99,Yes,sure,hit,1.138179063796997,NA
262,2s!m14b,False,247,1,unequal,ST2_low_2_a1,P != T1?,Same,2,1,low,132,0.83,82,1.48,82,1.38,No,sure,miss,1.7713019847869873,NA
263,2s!m14b,False,248,1,unequal,ST2_high_1_a2,P != T2?,Same,2,2,high,82,1.34,112,1.06,112,1.12,Yes,quiteSure,fa,1.409019947052002,NA
264,2s!m14b,False,249,1,unequal,ST1_high_4_a2,P != T1?,Same,1,2,high,96,1.14,70,1.77,96,1.13,No,sure,cr,3.3621082305908203,NA
265,2s!m14b,False,250,1,unequal,ST2_low_4_a1,P != T2?,Same,2,1,low,112,1.17,70,1.76,70,1.76,No,sure,cr,1.4729280471801758,NA
266,2s!m14b,False,251,1,unequal,ST2_high_6_a2,P != T2?,Same,2,2,high,132,0.93,96,1.12,96,1.23,No,sure,cr,1.2599129676818848,NA
267,2s!m14b,False,252,1,unequal,ST1_low_1_a1,P != T1?,Same,1,1,low,82,1.4,132,0.92,82,1.36,No,sure,cr,1.5992093086242676,NA
268,2s!m14b,False,253,1,unequal,ST1_high_5_a2,P != T2?,Same,1,2,high,96,1.11,132,1.01,96,1.11,Yes,sure,hit,2.014613628387451,NA
269,2s!m14b,False,254,1,unequal,ST1_high_2_a1,P != T2?,Same,1,1,high,112,1.17,82,1.4,112,1.05,Yes,sure,hit,1.4117403030395508,NA
270,2s!m14b,False,255,1,unequal,ST1_low_6_a2,P != T2?,Same,1,2,low,154,0.92,96,1.38,154,0.86,Yes,sure,hit,1.5905988216400146,NA
271,2s!m14b,False,256,1,unequal,ST2_low_1_a1,P != T1?,Same,2,1,low,82,1.25,132,1.04,132,0.93,Yes,sure,hit,1.1113040447235107,NA
272,2s!m14b,False,257,1,unequal,ST2_low_6_a2,P != T1?,Same,2,2,low,154,0.86,96,1.2,96,1.28,No,sure,miss,1.890794038772583,NA
273,2s!m14b,False,258,1,unequal,ST1_low_6_a2,P != T1?,Same,1,2,low,154,0.9,96,1.12,154,0.85,No,sure,cr,2.1894822120666504,NA
274,2s!m14b,False,259,1,unequal,ST1_high_4_a2,P != T1?,Same,1,2,high,96,1.08,70,1.68,96,1.08,No,sure,cr,3.1840860843658447,NA
275,2s!m14b,False,260,1,unequal,ST2_low_2_a1,P != T1?,Same,2,1,low,132,0.94,82,1.44,82,1.64,Yes,unsure,hit,2.752310037612915,NA
276,2s!m14b,False,261,1,unequal,DT2_high_4_a1,P != T2?,Different,2,1,high,96,1.22,70,1.37,60,1.62,No,quiteSure,cr,1.709817886352539,NA
277,2s!m14b,False,262,1,unequal,DT1_low_2_a1,P != T1?,Different,1,1,low,132,0.94,82,1.48,154,0.89,Yes,quiteSure,fa,1.4417500495910645,NA
278,2s!m14b,False,263,1,unequal,ST1_low_3_a2,P != T1?,Same,1,2,low,70,1.45,112,0.94,70,1.7,No,sure,cr,1.1766259670257568,NA
279,2s!m14b,False,264,1,unequal,ST2_high_3_a2,P != T1?,Same,2,2,high,70,1.64,96,1.2,96,1.14,Yes,unsure,hit,1.8334720134735107,NA
280,2s!m14b,False,265,1,unequal,ST1_low_2_a1,P != T2?,Same,1,1,low,132,0.86,82,1.52,132,0.99,No,sure,miss,2.192969799041748,NA
281,2s!m14b,False,266,1,unequal,ST1_high_4_a1,P != T2?,Same,1,1,high,96,1.12,70,1.75,96,1.43,No,sure,miss,1.8915252685546875,NA
282,2s!m14b,False,267,1,unequal,ST1_low_4_a1,P != T2?,Same,1,1,low,112,1.1,70,1.65,112,1.15,Yes,sure,hit,1.5869479179382324,NA
283,2s!m14b,False,268,1,unequal,ST1_low_4_a1,P != T1?,Same,1,1,low,112,1.05,70,1.81,112,1.11,No,sure,cr,1.9230012893676758,NA
284,2s!m14b,False,269,1,unequal,ST2_low_5_a1,P != T2?,Same,2,1,low,96,1.3,154,0.95,154,0.83,No,sure,cr,1.0399858951568604,NA
285,2s!m14b,False,270,1,unequal,ST2_high_4_a1,P != T2?,Same,2,1,high,96,1.2,70,1.56,70,1.58,Yes,quiteSure,fa,1.9848229885101318,NA
286,2s!m14b,False,271,1,unequal,ST1_high_2_a2,P != T2?,Same,1,2,high,112,1.1,82,1.3,112,1.19,No,unsure,miss,1.2580296993255615,NA
287,2s!m14b,False,272,1,unequal,ST1_high_1_a1,P != T2?,Same,1,1,high,82,1.25,112,1.09,82,1.3,Yes,sure,hit,1.3462591171264648,NA
288,2s!m14b,False,273,1,unequal,ST1_low_1_a1,P != T2?,Same,1,1,low,82,1.57,132,1.06,82,1.37,Yes,unsure,hit,1.9229469299316406,NA
289,2s!m14b,False,274,1,unequal,ST1_low_5_a1,P != T2?,Same,1,1,low,96,1.28,154,0.77,96,1.19,Yes,sure,hit,1.106825828552246,NA
290,2s!m14b,False,275,1,unequal,ST1_low_3_a1,P != T2?,Same,1,1,low,70,1.42,112,1.07,70,1.72,Yes,quiteSure,hit,1.7132148742675781,NA
291,2s!m14b,False,276,1,unequal,ST1_high_1_a1,P != T1?,Same,1,1,high,82,1.54,112,1.06,82,1.33,No,sure,cr,1.5027871131896973,NA
292,2s!m14b,False,277,1,unequal,ST1_low_1_a2,P != T2?,Same,1,2,low,82,1.5,132,0.93,82,1.54,Yes,sure,hit,1.6502652168273926,NA
293,2s!m14b,False,278,1,unequal,ST1_low_4_a1,P != T1?,Same,1,1,low,112,1.04,70,1.73,112,1.12,Yes,quiteSure,fa,1.6836659908294678,NA
294,2s!m14b,False,279,1,unequal,ST1_low_3_a2,P != T1?,Same,1,2,low,70,1.58,112,1.09,70,1.41,No,sure,cr,2.0393521785736084,NA
295,2s!m14b,False,280,1,unequal,STb_1_a1,P != T1?,Same,0,1,None,60,1.67,60,1.72,60,1.72,No,quiteSure,cr,1.7958500385284424,NA
296,2s!m14b,False,281,1,unequal,ST1_high_5_a1,P != T1?,Same,1,1,high,96,1.16,132,1.06,96,1.27,No,quiteSure,cr,1.707792043685913,NA
297,2s!m14b,False,282,1,unequal,ST1_high_6_a1,P != T1?,Same,1,1,high,132,0.84,96,1.11,132,0.91,Yes,sure,fa,1.885725975036621,NA
298,2s!m14b,False,283,1,unequal,ST2_low_2_a2,P != T1?,Same,2,2,low,132,0.93,82,1.31,82,1.35,Yes,quiteSure,hit,1.4385249614715576,NA
299,2s!m14b,False,284,1,unequal,ST1_low_4_a1,P != T2?,Same,1,1,low,112,1.02,70,1.66,112,1.21,Yes,quiteSure,hit,0.8705649375915527,NA
300,2s!m14b,False,285,1,unequal,ST2_high_6_a2,P != T1?,Same,2,2,high,132,0.99,96,1.36,96,1.22,No,quiteSure,miss,1.8894288539886475,NA
301,2s!m14b,False,286,1,unequal,ST1_low_5_a2,P != T1?,Same,1,2,low,96,1.3,154,0.77,96,1.21,Yes,sure,fa,1.2272491455078125,NA
302,2s!m14b,False,287,1,unequal,ST2_low_1_a2,P != T2?,Same,2,2,low,82,1.47,132,0.94,132,0.98,No,quiteSure,cr,0.7499608993530273,NA
303,2s!m14b,False,288,1,unequal,ST2_high_4_a1,P != T1?,Same,2,1,high,96,1.3,70,1.53,70,1.8,No,sure,miss,2.1367721557617188,NA
304,2s!m14b,False,289,1,unequal,ST2_high_5_a2,P != T1?,Same,2,2,high,96,1.25,132,1.04,132,0.79,No,sure,miss,1.3207817077636719,NA
305,2s!m14b,False,290,1,unequal,ST1_low_2_a2,P != T1?,Same,1,2,low,132,0.9,82,1.6,132,0.83,No,sure,cr,1.3232712745666504,NA
306,2s!m14b,False,291,1,unequal,ST2_low_1_a2,P != T2?,Same,2,2,low,82,1.57,132,1.03,132,0.99,No,sure,cr,1.0793190002441406,NA
307,2s!m14b,False,292,1,unequal,ST1_low_2_a2,P != T1?,Same,1,2,low,132,0.83,82,1.44,132,0.97,No,sure,cr,1.7100207805633545,NA
308,2s!m14b,False,293,1,unequal,STb_2_a2,P != T1?,Same,0,2,None,70,1.84,70,1.55,70,1.57,No,sure,cr,2.0407910346984863,NA
309,2s!m14b,False,294,1,unequal,ST2_low_2_a1,P != T2?,Same,2,1,low,132,0.81,82,1.6,82,1.35,No,quiteSure,cr,1.3215749263763428,NA
310,2s!m14b,False,295,1,unequal,ST2_low_2_a2,P != T2?,Same,2,2,low,132,0.82,82,1.55,82,1.51,No,sure,cr,1.4988481998443604,NA
311,2s!m14b,False,296,1,unequal,ST2_low_1_a2,P != T1?,Same,2,2,low,82,1.5,132,1.03,132,0.86,Yes,sure,hit,1.1978628635406494,NA
312,2s!m14b,False,297,1,unequal,ST2_low_3_a2,P != T1?,Same,2,2,low,70,1.72,112,1.0,112,1.15,No,unsure,miss,2.0393881797790527,NA
313,2s!m14b,False,298,1,unequal,ST2_low_4_a2,P != T2?,Same,2,2,low,112,1.12,70,1.49,70,1.5,No,quiteSure,cr,1.018822193145752,NA
314,2s!m14b,False,299,1,unequal,ST1_low_4_a1,P != T2?,Same,1,1,low,112,1.04,70,1.49,112,1.13,No,sure,miss,1.0211951732635498,NA
315,2s!m14b,False,300,1,unequal,ST2_low_2_a2,P != T1?,Same,2,2,low,132,0.87,82,1.42,82,1.59,No,sure,miss,1.3504199981689453,NA
316,2s!m14b,False,301,1,unequal,ST2_high_4_a2,P != T2?,Same,2,2,high,96,1.15,70,1.66,70,1.78,Yes,quiteSure,fa,1.231752872467041,NA
317,2s!m14b,False,302,1,unequal,ST1_low_4_a1,P != T1?,Same,1,1,low,112,1.23,70,1.63,112,1.04,No,sure,cr,3.12044095993042,NA
318,2s!m14b,False,303,1,unequal,ST1_high_1_a2,P != T2?,Same,1,2,high,82,1.25,112,1.23,82,1.45,Yes,quiteSure,hit,1.949767827987671,NA
319,2s!m14b,False,304,1,unequal,ST2_low_4_a1,P != T1?,Same,2,1,low,112,0.95,70,1.46,70,1.74,No,sure,miss,2.6648080348968506,NA
320,2s!m14b,False,305,1,unequal,ST2_low_6_a1,P != T2?,Same,2,1,low,154,0.9,96,1.24,96,1.07,No,sure,cr,0.9850959777832031,NA
321,2s!m14b,False,306,1,unequal,STb_6_a1,P != T1?,Same,0,1,None,132,0.84,132,1.01,132,0.84,Yes,sure,fa,1.0840728282928467,NA
322,2s!m14b,False,307,1,unequal,DT1_low_5_a1,P != T1?,Different,1,1,low,96,1.19,154,0.8,82,1.38,No,sure,cr,1.4495611190795898,NA
323,2s!m14b,False,308,1,unequal,ST2_low_5_a1,P != T1?,Same,2,1,low,96,1.25,154,0.77,154,0.94,Yes,sure,hit,1.6566588878631592,NA
324,2s!m14b,False,309,1,unequal,ST2_low_4_a2,P != T1?,Same,2,2,low,112,0.92,70,1.75,70,1.57,No,unsure,miss,1.2305381298065186,NA
325,2s!m14b,False,310,1,unequal,ST1_low_3_a1,P != T1?,Same,1,1,low,70,1.52,112,0.99,70,1.81,Yes,quiteSure,fa,1.3885586261749268,NA
326,2s!m14b,False,311,1,unequal,ST1_low_3_a1,P != T2?,Same,1,1,low,70,1.7,112,0.91,70,1.52,No,sure,miss,0.9000067710876465,NA
327,2s!m14b,False,312,1,unequal,ST1_low_3_a1,P != T1?,Same,1,1,low,70,1.81,112,1.19,70,1.62,No,sure,cr,1.4402680397033691,NA
328,2s!m14b,False,313,1,unequal,ST2_high_1_a1,P != T1?,Same,2,1,high,82,1.49,112,0.94,112,1.1,Yes,quiteSure,hit,1.1412670612335205,NA
329,2s!m14b,False,314,1,unequal,ST2_low_5_a1,P != T1?,Same,2,1,low,96,1.43,154,0.77,154,0.79,Yes,sure,hit,1.1706953048706055,NA
330,2s!m14b,False,315,1,unequal,ST1_high_3_a1,P != T1?,Same,1,1,high,70,1.69,96,1.13,70,1.51,Yes,sure,fa,1.019049882888794,NA
331,2s!m14b,False,316,1,unequal,ST2_low_1_a2,P != T2?,Same,2,2,low,82,1.6,132,0.8,132,0.9,No,sure,cr,0.6578240394592285,NA
332,2s!m14b,False,317,1,unequal,ST2_high_2_a2,P != T1?,Same,2,2,high,112,0.99,82,1.22,82,1.58,No,unsure,miss,0.8937580585479736,NA
333,2s!m14b,False,318,1,unequal,ST1_high_4_a2,P != T2?,Same,1,2,high,96,1.37,70,1.84,96,1.21,No,sure,miss,1.793755054473877,NA
334,2s!m14b,False,319,1,unequal,ST1_low_6_a2,P != T2?,Same,1,2,low,154,0.81,96,1.07,154,0.84,Yes,sure,hit,1.7131083011627197,NA
335,2s!m14b,False,320,1,unequal,ST1_low_4_a2,P != T1?,Same,1,2,low,112,0.93,70,1.56,112,1.05,No,sure,cr,1.5599610805511475,0.25
