,pcode,practice,trial,block,questionType,condition,question,PTS,TargetPosition,AccessoryPosition,TNS,T1_hz,T1_amp,T2_hz,T2_amp,P_hz,P_amp,response_dicho,response_rating,response_sdt,rt,P_correct
0,!g89m2k,True,1,1,unequal,STb_4_a2,P != T1?,Same,0,2,None,96,1.07,96,1.17,96,1.12,No,quiteSure,cr,6.663588047027588,NA
1,!g89m2k,True,2,1,unequal,STb_4_a1,P != T1?,Same,0,1,None,96,1.29,96,1.4,96,1.39,No,quiteSure,cr,1.7865850925445557,NA
2,!g89m2k,True,3,1,unequal,ST2_low_6_a2,P != T2?,Same,2,2,low,154,0.85,96,1.38,96,0.95,Yes,unsure,fa,12.112760066986084,NA
3,!g89m2k,True,4,1,unequal,DT2_high_4_a1,P != T1?,Different,2,1,high,96,1.31,70,1.42,60,1.7,Yes,quiteSure,hit,3.0199949741363525,NA
4,!g89m2k,True,5,1,unequal,DT1_high_3_a2,P != T2?,Different,1,2,high,70,1.83,96,1.2,60,2.0,Yes,sure,hit,2.9831197261810303,NA
5,!g89m2k,True,6,1,unequal,STb_5_a1,P != T2?,Same,0,1,None,112,0.95,112,1.19,112,1.15,No,quiteSure,cr,3.13971209526062,NA
6,!g89m2k,True,7,1,unequal,DT1_low_6_a1,P != T1?,Different,1,1,low,154,0.87,96,1.35,180,0.88,Yes,quiteSure,fa,2.5123021602630615,NA
7,!g89m2k,True,8,1,unequal,ST2_high_3_a2,P != T1?,Same,2,2,high,70,1.93,96,1.39,96,1.22,Yes,sure,hit,2.866297960281372,NA
8,!g89m2k,True,9,1,unequal,ST1_high_4_a1,P != T2?,Same,1,1,high,96,1.29,70,1.69,96,1.03,Yes,sure,hit,2.1921732425689697,NA
9,!g89m2k,True,10,1,unequal,ST2_high_3_a2,P != T1?,Same,2,2,high,70,1.45,96,1.21,96,1.32,Yes,sure,hit,2.3512930870056152,NA
10,!g89m2k,True,11,1,unequal,DT1_high_5_a1,P != T2?,Different,1,1,high,96,1.21,132,1.03,82,1.3,Yes,sure,hit,2.1265220642089844,NA
11,!g89m2k,True,12,1,unequal,ST2_high_5_a2,P != T2?,Same,2,2,high,96,1.63,132,0.93,132,1.01,No,sure,cr,1.7852051258087158,NA
12,!g89m2k,True,13,1,unequal,ST1_low_5_a2,P != T1?,Same,1,2,low,96,1.43,154,0.85,96,1.14,No,sure,cr,1.9493029117584229,NA
13,!g89m2k,True,14,1,unequal,STb_3_a1,P != T2?,Same,0,1,None,82,1.26,82,1.38,82,1.36,No,sure,cr,1.767759084701538,NA
14,!g89m2k,True,15,1,unequal,ST1_low_4_a1,P != T2?,Same,1,1,low,112,1.11,70,1.45,112,1.26,No,sure,miss,1.5642468929290771,NA
15,!g89m2k,True,16,1,unequal,ST1_low_4_a2,P != T1?,Same,1,2,low,112,1.04,70,1.71,112,1.02,No,quiteSure,cr,1.6796760559082031,0.625
16,!g89m2k,False,1,1,unequal,ST1_high_3_a1,P != T2?,Same,1,1,high,70,1.64,96,1.16,70,1.47,Yes,sure,hit,2.600778102874756,NA
17,!g89m2k,False,2,1,unequal,STb_8_a2,P != T2?,Same,0,2,None,180,0.72,180,0.88,180,0.79,No,sure,cr,1.9701709747314453,NA
18,!g89m2k,False,3,1,unequal,ST1_high_6_a2,P != T2?,Same,1,2,high,132,0.9,96,1.3,132,0.98,Yes,sure,hit,2.5262367725372314,NA
19,!g89m2k,False,4,1,unequal,ST2_high_3_a1,P != T1?,Same,2,1,high,70,1.64,96,1.41,96,1.18,No,unsure,miss,5.816419839859009,NA
20,!g89m2k,False,5,1,unequal,ST2_low_5_a2,P != T1?,Same,2,2,low,96,1.17,154,0.72,154,0.85,Yes,sure,hit,1.6979939937591553,NA
21,!g89m2k,False,6,1,unequal,ST2_high_1_a1,P != T1?,Same,2,1,high,82,1.33,112,1.02,112,1.16,No,sure,miss,2.842271089553833,NA
22,!g89m2k,False,7,1,unequal,ST1_high_5_a2,P != T1?,Same,1,2,high,96,1.38,132,0.97,96,1.35,No,sure,cr,1.6103858947753906,NA
23,!g89m2k,False,8,1,unequal,ST1_high_5_a1,P != T2?,Same,1,1,high,96,1.42,132,0.82,96,1.42,Yes,sure,hit,1.9236929416656494,NA
24,!g89m2k,False,9,1,unequal,ST1_high_4_a1,P != T1?,Same,1,1,high,96,1.35,70,1.83,96,1.11,No,quiteSure,cr,1.5211460590362549,NA
25,!g89m2k,False,10,1,unequal,ST2_high_3_a2,P != T2?,Same,2,2,high,70,1.63,96,1.12,96,1.24,No,quiteSure,cr,1.4731721878051758,NA
26,!g89m2k,False,11,1,unequal,ST1_low_1_a2,P != T2?,Same,1,2,low,82,1.28,132,1.02,82,1.27,Yes,sure,hit,1.8149449825286865,NA
27,!g89m2k,False,12,1,unequal,DT2_high_4_a2,P != T2?,Different,2,2,high,96,1.17,70,1.73,60,1.83,No,unsure,cr,2.0574021339416504,NA
28,!g89m2k,False,13,1,unequal,ST1_high_3_a1,P != T1?,Same,1,1,high,70,1.66,96,1.08,70,1.63,No,quiteSure,cr,1.2691481113433838,NA
29,!g89m2k,False,14,1,unequal,ST1_low_4_a1,P != T2?,Same,1,1,low,112,1.06,70,1.43,112,1.14,Yes,quiteSure,hit,3.271217107772827,NA
30,!g89m2k,False,15,1,unequal,DT1_high_5_a1,P != T2?,Different,1,1,high,96,1.21,132,1.03,82,1.3,Yes,sure,hit,2.022860050201416,NA
31,!g89m2k,False,16,1,unequal,ST1_low_4_a2,P != T1?,Same,1,2,low,112,1.04,70,1.71,112,1.02,No,sure,cr,2.6159298419952393,NA
32,!g89m2k,False,17,1,unequal,STb_1_a2,P != T2?,Same,0,2,None,60,1.94,60,1.97,60,1.66,No,sure,cr,1.3829960823059082,NA
33,!g89m2k,False,18,1,unequal,ST2_high_2_a1,P != T2?,Same,2,1,high,112,1.0,82,1.42,82,1.57,No,sure,cr,2.2838099002838135,NA
34,!g89m2k,False,19,1,unequal,ST2_high_4_a1,P != T1?,Same,2,1,high,96,1.09,70,1.7,70,1.81,Yes,quiteSure,hit,1.721480369567871,NA
35,!g89m2k,False,20,1,unequal,ST2_low_6_a2,P != T1?,Same,2,2,low,154,0.71,96,1.26,96,1.17,Yes,sure,hit,1.8799540996551514,NA
36,!g89m2k,False,21,1,unequal,ST2_low_3_a1,P != T1?,Same,2,1,low,70,1.45,112,1.11,112,1.15,Yes,sure,hit,2.2797842025756836,NA
37,!g89m2k,False,22,1,unequal,ST1_high_6_a1,P != T1?,Same,1,1,high,132,0.99,96,1.17,132,0.79,No,quiteSure,cr,1.6730151176452637,NA
38,!g89m2k,False,23,1,unequal,ST2_low_2_a1,P != T1?,Same,2,1,low,132,1.04,82,1.25,82,1.55,Yes,sure,hit,1.8376500606536865,NA
39,!g89m2k,False,24,1,unequal,ST2_low_2_a1,P != T2?,Same,2,1,low,132,0.81,82,1.43,82,1.38,No,sure,cr,1.5209698677062988,NA
40,!g89m2k,False,25,1,unequal,ST2_high_5_a1,P != T1?,Same,2,1,high,96,1.15,132,0.96,132,0.9,Yes,sure,hit,2.3946290016174316,NA
41,!g89m2k,False,26,1,unequal,ST2_high_5_a1,P != T2?,Same,2,1,high,96,1.06,132,0.93,132,0.92,No,sure,cr,1.270641803741455,NA
42,!g89m2k,False,27,1,unequal,ST2_low_4_a2,P != T1?,Same,2,2,low,112,1.07,70,1.56,70,1.78,Yes,sure,hit,1.792436122894287,NA
43,!g89m2k,False,28,1,unequal,ST1_high_1_a1,P != T2?,Same,1,1,high,82,1.34,112,0.94,82,1.52,Yes,sure,hit,3.2727270126342773,NA
44,!g89m2k,False,29,1,unequal,ST2_high_3_a1,P != T1?,Same,2,1,high,70,1.59,96,1.17,96,1.16,Yes,sure,hit,1.8982839584350586,NA
45,!g89m2k,False,30,1,unequal,ST1_low_3_a2,P != T2?,Same,1,2,low,70,1.58,112,0.95,70,1.46,Yes,quiteSure,hit,1.4747998714447021,NA
46,!g89m2k,False,31,1,unequal,STb_3_a2,P != T2?,Same,0,2,None,82,1.48,82,1.43,82,1.55,No,sure,cr,1.2444767951965332,NA
47,!g89m2k,False,32,1,unequal,ST2_high_3_a1,P != T2?,Same,2,1,high,70,1.49,96,1.07,96,1.19,No,quiteSure,cr,1.5837550163269043,NA
48,!g89m2k,False,33,1,unequal,ST1_low_5_a1,P != T2?,Same,1,1,low,96,1.13,154,0.76,96,1.3,Yes,sure,hit,3.4292330741882324,NA
49,!g89m2k,False,34,1,unequal,ST2_low_1_a1,P != T1?,Same,2,1,low,82,1.35,132,0.79,132,1.05,Yes,sure,hit,1.3857200145721436,NA
50,!g89m2k,False,35,1,unequal,ST1_high_5_a2,P != T2?,Same,1,2,high,96,1.09,132,0.99,96,1.32,Yes,sure,hit,2.302814245223999,NA
51,!g89m2k,False,36,1,unequal,ST1_low_4_a2,P != T2?,Same,1,2,low,112,1.16,70,1.45,112,1.02,Yes,sure,hit,1.812242031097412,NA
52,!g89m2k,False,37,1,unequal,ST2_high_6_a2,P != T2?,Same,2,2,high,132,0.8,96,1.21,96,1.4,No,quiteSure,cr,1.4507770538330078,NA
53,!g89m2k,False,38,1,unequal,ST1_high_4_a1,P != T2?,Same,1,1,high,96,1.15,70,1.51,96,1.32,Yes,sure,hit,1.8549139499664307,NA
54,!g89m2k,False,39,1,unequal,ST2_high_2_a1,P != T2?,Same,2,1,high,112,1.1,82,1.49,82,1.46,No,sure,cr,1.1376619338989258,NA
55,!g89m2k,False,40,1,unequal,ST2_low_4_a1,P != T1?,Same,2,1,low,112,1.04,70,1.83,70,1.54,Yes,sure,hit,1.6353650093078613,NA
56,!g89m2k,False,41,1,unequal,ST2_low_4_a2,P != T2?,Same,2,2,low,112,1.21,70,1.7,70,1.42,No,sure,cr,2.0828139781951904,NA
57,!g89m2k,False,42,1,unequal,ST1_low_1_a1,P != T2?,Same,1,1,low,82,1.63,132,1.01,82,1.3,No,unsure,miss,2.4405508041381836,NA
58,!g89m2k,False,43,1,unequal,ST2_low_2_a1,P != T2?,Same,2,1,low,132,0.8,82,1.34,82,1.54,No,sure,cr,2.0129668712615967,NA
59,!g89m2k,False,44,1,unequal,ST1_low_6_a2,P != T1?,Same,1,2,low,154,0.85,96,1.36,154,0.89,No,sure,cr,1.1302971839904785,NA
60,!g89m2k,False,45,1,unequal,ST2_low_4_a1,P != T2?,Same,2,1,low,112,1.07,70,1.52,70,1.84,No,unsure,cr,2.6645071506500244,NA
61,!g89m2k,False,46,1,unequal,ST2_low_2_a2,P != T1?,Same,2,2,low,132,0.98,82,1.47,82,1.52,Yes,sure,hit,1.9893438816070557,NA
62,!g89m2k,False,47,1,unequal,ST2_low_2_a2,P != T2?,Same,2,2,low,132,0.96,82,1.31,82,1.6,No,sure,cr,1.8771541118621826,NA
63,!g89m2k,False,48,1,unequal,ST1_low_2_a2,P != T1?,Same,1,2,low,132,0.79,82,1.42,132,1.06,No,sure,cr,1.8990352153778076,NA
64,!g89m2k,False,49,1,unequal,ST2_high_1_a2,P != T2?,Same,2,2,high,82,1.38,112,1.2,112,1.09,No,sure,cr,1.6310489177703857,NA
65,!g89m2k,False,50,1,unequal,ST2_low_1_a1,P != T2?,Same,2,1,low,82,1.61,132,1.02,132,0.94,No,sure,cr,1.0318090915679932,NA
66,!g89m2k,False,51,1,unequal,ST1_low_5_a1,P != T2?,Same,1,1,low,96,1.09,154,0.89,96,1.06,Yes,sure,hit,1.6277520656585693,NA
67,!g89m2k,False,52,1,unequal,ST2_low_1_a2,P != T2?,Same,2,2,low,82,1.35,132,0.79,132,1.0,No,sure,cr,1.1789522171020508,NA
68,!g89m2k,False,53,1,unequal,STb_2_a2,P != T1?,Same,0,2,None,70,1.69,70,1.66,70,1.73,Yes,unsure,fa,2.7324719429016113,NA
69,!g89m2k,False,54,1,unequal,ST2_low_5_a2,P != T2?,Same,2,2,low,96,1.39,154,0.79,154,0.83,No,sure,cr,1.4737441539764404,NA
70,!g89m2k,False,55,1,unequal,ST2_high_2_a1,P != T2?,Same,2,1,high,112,0.97,82,1.24,82,1.57,No,quiteSure,cr,1.5176639556884766,NA
71,!g89m2k,False,56,1,unequal,ST2_high_4_a2,P != T2?,Same,2,2,high,96,1.25,70,1.55,70,1.5,No,sure,cr,1.6027719974517822,NA
72,!g89m2k,False,57,1,unequal,ST1_low_5_a2,P != T2?,Same,1,2,low,96,1.24,154,0.82,96,1.42,No,sure,miss,1.2486631870269775,NA
73,!g89m2k,False,58,1,unequal,ST2_low_6_a1,P != T2?,Same,2,1,low,154,0.71,96,1.26,96,1.33,No,sure,cr,2.822251081466675,NA
74,!g89m2k,False,59,1,unequal,ST1_high_2_a1,P != T1?,Same,1,1,high,112,1.1,82,1.62,112,1.22,No,sure,cr,1.5168907642364502,NA
75,!g89m2k,False,60,1,unequal,ST2_high_4_a2,P != T1?,Same,2,2,high,96,1.36,70,1.43,70,1.53,Yes,sure,hit,1.9263548851013184,NA
76,!g89m2k,False,61,1,unequal,ST1_low_3_a2,P != T1?,Same,1,2,low,70,1.49,112,1.18,70,1.82,No,sure,cr,1.8370611667633057,NA
77,!g89m2k,False,62,1,unequal,ST1_low_2_a2,P != T2?,Same,1,2,low,132,0.92,82,1.6,132,1.03,Yes,sure,hit,1.857438087463379,NA
78,!g89m2k,False,63,1,unequal,ST2_high_6_a1,P != T1?,Same,2,1,high,132,0.95,96,1.17,96,1.33,Yes,sure,hit,1.6304931640625,NA
79,!g89m2k,False,64,1,unequal,ST2_high_2_a1,P != T1?,Same,2,1,high,112,1.02,82,1.35,82,1.54,Yes,sure,hit,1.559384822845459,NA
80,!g89m2k,False,65,1,unequal,ST2_low_4_a1,P != T2?,Same,2,1,low,112,1.07,70,1.6,70,1.72,No,unsure,cr,2.072551965713501,NA
81,!g89m2k,False,66,1,unequal,ST2_low_2_a2,P != T2?,Same,2,2,low,132,0.96,82,1.64,82,1.47,No,sure,cr,1.899317979812622,NA
82,!g89m2k,False,67,1,unequal,ST1_low_4_a2,P != T2?,Same,1,2,low,112,1.13,70,1.69,112,1.08,Yes,sure,hit,1.9204459190368652,NA
83,!g89m2k,False,68,1,unequal,ST1_high_1_a1,P != T1?,Same,1,1,high,82,1.3,112,0.97,82,1.39,No,sure,cr,2.844956874847412,NA
84,!g89m2k,False,69,1,unequal,ST1_low_2_a1,P != T1?,Same,1,1,low,132,0.88,82,1.33,132,0.82,No,sure,cr,1.3149781227111816,NA
85,!g89m2k,False,70,1,unequal,ST2_low_1_a1,P != T1?,Same,2,1,low,82,1.37,132,0.79,132,0.9,Yes,sure,hit,1.9668967723846436,NA
86,!g89m2k,False,71,1,unequal,ST1_high_1_a1,P != T1?,Same,1,1,high,82,1.26,112,1.06,82,1.37,No,quiteSure,cr,1.4043948650360107,NA
87,!g89m2k,False,72,1,unequal,ST1_low_1_a2,P != T1?,Same,1,2,low,82,1.64,132,0.84,82,1.21,No,unsure,cr,2.3998656272888184,NA
88,!g89m2k,False,73,1,unequal,STb_6_a2,P != T1?,Same,0,2,None,132,0.92,132,0.8,132,0.8,No,sure,cr,1.748049020767212,NA
89,!g89m2k,False,74,1,unequal,ST2_high_4_a1,P != T2?,Same,2,1,high,96,1.38,70,1.67,70,1.55,No,unsure,cr,3.4580700397491455,NA
90,!g89m2k,False,75,1,unequal,ST1_high_4_a1,P != T1?,Same,1,1,high,96,1.1,70,1.59,96,1.22,No,sure,cr,1.3804128170013428,NA
91,!g89m2k,False,76,1,unequal,ST2_high_5_a1,P != T1?,Same,2,1,high,96,1.39,132,1.05,132,0.88,Yes,sure,hit,2.484018087387085,NA
92,!g89m2k,False,77,1,unequal,ST1_high_1_a2,P != T2?,Same,1,2,high,82,1.43,112,1.22,82,1.3,Yes,sure,hit,4.532968997955322,NA
93,!g89m2k,False,78,1,unequal,ST2_low_1_a1,P != T1?,Same,2,1,low,82,1.52,132,0.8,132,0.86,Yes,sure,hit,1.880441665649414,NA
94,!g89m2k,False,79,1,unequal,ST2_high_5_a2,P != T2?,Same,2,2,high,96,1.63,132,0.93,132,1.01,No,sure,cr,1.4770359992980957,NA
95,!g89m2k,False,80,1,unequal,ST2_high_1_a1,P != T1?,Same,2,1,high,82,1.37,112,1.06,112,1.16,Yes,sure,hit,1.3587822914123535,NA
96,!g89m2k,False,81,1,unequal,ST1_high_2_a1,P != T2?,Same,1,1,high,112,1.13,82,1.51,112,1.2,Yes,sure,hit,1.6544110774993896,NA
97,!g89m2k,False,82,1,unequal,ST1_low_1_a1,P != T1?,Same,1,1,low,82,1.47,132,0.81,82,1.26,No,sure,cr,1.3146328926086426,NA
98,!g89m2k,False,83,1,unequal,ST2_low_5_a2,P != T1?,Same,2,2,low,96,1.32,154,0.73,154,0.75,Yes,sure,hit,1.4498350620269775,NA
99,!g89m2k,False,84,1,unequal,ST1_high_3_a2,P != T2?,Same,1,2,high,70,1.54,96,1.3,70,1.81,Yes,sure,hit,1.7654502391815186,NA
100,!g89m2k,False,85,1,unequal,ST1_high_1_a1,P != T1?,Same,1,1,high,82,1.41,112,1.2,82,1.57,No,sure,cr,2.07818865776062,NA
101,!g89m2k,False,86,1,unequal,ST1_high_5_a1,P != T2?,Same,1,1,high,96,1.33,132,0.98,96,1.31,Yes,sure,hit,2.619935989379883,NA
102,!g89m2k,False,87,1,unequal,ST1_high_4_a2,P != T1?,Same,1,2,high,96,1.25,70,1.39,96,1.14,No,sure,cr,1.946444034576416,NA
103,!g89m2k,False,88,1,unequal,ST2_high_6_a2,P != T1?,Same,2,2,high,132,0.79,96,1.1,96,1.32,Yes,sure,hit,1.6063451766967773,NA
104,!g89m2k,False,89,1,unequal,ST2_high_2_a2,P != T1?,Same,2,2,high,112,1.02,82,1.61,82,1.27,Yes,sure,hit,1.925900936126709,NA
105,!g89m2k,False,90,1,unequal,STb_4_a2,P != T1?,Same,0,2,None,96,1.07,96,1.17,96,1.12,No,quiteSure,cr,1.4487218856811523,NA
106,!g89m2k,False,91,1,unequal,ST1_low_5_a1,P != T1?,Same,1,1,low,96,1.42,154,0.89,96,1.08,No,quiteSure,cr,1.4743318557739258,NA
107,!g89m2k,False,92,1,unequal,ST1_low_1_a2,P != T1?,Same,1,2,low,82,1.43,132,0.97,82,1.41,No,sure,cr,2.504607915878296,NA
108,!g89m2k,False,93,1,unequal,ST2_low_6_a2,P != T1?,Same,2,2,low,154,0.8,96,1.18,96,1.27,Yes,sure,hit,1.8746271133422852,NA
109,!g89m2k,False,94,1,unequal,ST1_high_5_a1,P != T2?,Same,1,1,high,96,1.24,132,0.98,96,1.33,Yes,sure,hit,1.4947788715362549,NA
110,!g89m2k,False,95,1,unequal,ST2_low_3_a1,P != T2?,Same,2,1,low,70,1.38,112,1.17,112,1.07,No,sure,cr,1.3608849048614502,NA
111,!g89m2k,False,96,1,unequal,ST2_high_5_a1,P != T1?,Same,2,1,high,96,1.43,132,0.81,132,0.83,Yes,sure,hit,1.651803970336914,NA
112,!g89m2k,False,97,1,unequal,ST2_high_1_a2,P != T2?,Same,2,2,high,82,1.57,112,0.95,112,1.15,No,sure,cr,2.140758991241455,NA
113,!g89m2k,False,98,1,unequal,STb_3_a2,P != T1?,Same,0,2,None,82,1.48,82,1.3,82,1.55,No,sure,cr,1.3432252407073975,NA
114,!g89m2k,False,99,1,unequal,STb_2_a2,P != T2?,Same,0,2,None,70,1.38,70,1.49,70,1.7,No,quiteSure,cr,1.404616117477417,NA
115,!g89m2k,False,100,1,unequal,ST1_low_3_a1,P != T2?,Same,1,1,low,70,1.58,112,1.2,70,1.48,Yes,sure,hit,2.1692800521850586,NA
116,!g89m2k,False,101,1,unequal,ST1_low_3_a1,P != T1?,Same,1,1,low,70,1.61,112,1.03,70,1.76,No,sure,cr,1.4695439338684082,NA
117,!g89m2k,False,102,1,unequal,ST2_high_5_a2,P != T1?,Same,2,2,high,96,1.36,132,0.88,132,0.92,Yes,sure,hit,1.2469780445098877,NA
118,!g89m2k,False,103,1,unequal,ST2_high_2_a2,P != T1?,Same,2,2,high,112,1.1,82,1.25,82,1.32,Yes,sure,hit,1.2721259593963623,NA
119,!g89m2k,False,104,1,unequal,ST1_high_4_a2,P != T2?,Same,1,2,high,96,1.1,70,1.44,96,1.3,Yes,sure,hit,1.9003009796142578,NA
120,!g89m2k,False,105,1,unequal,ST1_high_4_a1,P != T1?,Same,1,1,high,96,1.42,70,1.82,96,1.4,No,sure,cr,1.8340001106262207,NA
121,!g89m2k,False,106,1,unequal,ST1_high_3_a2,P != T2?,Same,1,2,high,70,1.5,96,1.39,70,1.57,Yes,sure,hit,1.2255067825317383,NA
122,!g89m2k,False,107,1,unequal,ST1_low_2_a2,P != T1?,Same,1,2,low,132,0.87,82,1.22,132,1.0,No,sure,cr,2.082995891571045,NA
123,!g89m2k,False,108,1,unequal,ST2_high_5_a2,P != T2?,Same,2,2,high,96,1.08,132,0.87,132,0.97,No,sure,cr,1.2667272090911865,NA
124,!g89m2k,False,109,1,unequal,ST2_low_5_a1,P != T2?,Same,2,1,low,96,1.2,154,0.83,154,0.81,No,sure,cr,2.733386993408203,NA
125,!g89m2k,False,110,1,unequal,ST1_high_4_a2,P != T2?,Same,1,2,high,96,1.24,70,1.77,96,1.41,Yes,sure,hit,1.4711296558380127,NA
126,!g89m2k,False,111,1,unequal,DT1_high_5_a2,P != T2?,Different,1,2,high,96,1.22,132,0.91,82,1.49,Yes,quiteSure,hit,1.4948561191558838,NA
127,!g89m2k,False,112,1,unequal,DT1_high_6_a1,P != T1?,Different,1,1,high,132,0.93,96,1.31,154,0.77,Yes,sure,fa,1.4293010234832764,NA
128,!g89m2k,False,113,1,unequal,ST2_low_6_a1,P != T2?,Same,2,1,low,154,0.83,96,1.23,96,1.13,No,sure,cr,1.498147964477539,NA
129,!g89m2k,False,114,1,unequal,ST1_high_1_a2,P != T1?,Same,1,2,high,82,1.45,112,0.93,82,1.3,No,sure,cr,1.6541481018066406,NA
130,!g89m2k,False,115,1,unequal,ST1_high_4_a2,P != T2?,Same,1,2,high,96,1.31,70,1.46,96,1.23,Yes,sure,hit,4.19138503074646,NA
131,!g89m2k,False,116,1,unequal,ST2_low_3_a2,P != T1?,Same,2,2,low,70,1.58,112,1.23,112,1.23,Yes,sure,hit,1.835299015045166,NA
132,!g89m2k,False,117,1,unequal,ST2_high_2_a1,P != T1?,Same,2,1,high,112,1.2,82,1.4,82,1.62,Yes,sure,hit,3.088340997695923,NA
133,!g89m2k,False,118,1,unequal,ST2_low_6_a2,P != T2?,Same,2,2,low,154,0.75,96,1.41,96,1.14,No,sure,cr,1.4048869609832764,NA
134,!g89m2k,False,119,1,unequal,ST2_low_2_a2,P != T1?,Same,2,2,low,132,0.87,82,1.26,82,1.47,Yes,sure,hit,1.3817760944366455,NA
135,!g89m2k,False,120,1,unequal,ST2_low_3_a1,P != T1?,Same,2,1,low,70,1.45,112,0.94,112,1.07,Yes,sure,hit,1.5819880962371826,NA
136,!g89m2k,False,121,1,unequal,ST1_high_6_a1,P != T2?,Same,1,1,high,132,0.84,96,1.4,132,0.82,Yes,sure,hit,1.4486372470855713,NA
137,!g89m2k,False,122,1,unequal,ST1_high_5_a2,P != T1?,Same,1,2,high,96,1.23,132,1.02,96,1.31,No,sure,cr,1.5797839164733887,NA
138,!g89m2k,False,123,1,unequal,ST2_high_1_a1,P != T2?,Same,2,1,high,82,1.34,112,1.03,112,1.19,No,sure,cr,1.767462968826294,NA
139,!g89m2k,False,124,1,unequal,ST2_high_4_a1,P != T1?,Same,2,1,high,96,1.28,70,1.57,70,1.74,Yes,sure,hit,1.4999189376831055,NA
140,!g89m2k,False,125,1,unequal,ST2_low_3_a2,P != T2?,Same,2,2,low,70,1.58,112,1.11,112,0.95,No,sure,cr,1.876236915588379,NA
141,!g89m2k,False,126,1,unequal,ST1_low_1_a1,P != T1?,Same,1,1,low,82,1.59,132,0.99,82,1.33,No,sure,cr,2.2143049240112305,NA
142,!g89m2k,False,127,1,unequal,ST1_low_2_a2,P != T2?,Same,1,2,low,132,0.88,82,1.29,132,0.99,Yes,sure,hit,1.4443409442901611,NA
143,!g89m2k,False,128,1,unequal,ST2_low_5_a1,P != T2?,Same,2,1,low,96,1.43,154,0.93,154,0.95,No,sure,cr,1.3189780712127686,NA
144,!g89m2k,False,129,1,unequal,ST2_high_2_a1,P != T1?,Same,2,1,high,112,1.1,82,1.27,82,1.24,Yes,sure,hit,1.7192268371582031,NA
145,!g89m2k,False,130,1,unequal,ST2_high_6_a2,P != T2?,Same,2,2,high,132,1.05,96,1.37,96,1.07,No,sure,cr,1.068493127822876,NA
146,!g89m2k,False,131,1,unequal,ST2_low_5_a2,P != T2?,Same,2,2,low,96,1.22,154,0.85,154,0.71,No,sure,cr,1.0893018245697021,NA
147,!g89m2k,False,132,1,unequal,ST1_low_6_a1,P != T2?,Same,1,1,low,154,0.71,96,1.16,154,0.95,No,sure,miss,2.0340747833251953,NA
148,!g89m2k,False,133,1,unequal,ST1_high_3_a2,P != T1?,Same,1,2,high,70,1.71,96,1.17,70,1.76,Yes,unsure,fa,3.4364888668060303,NA
149,!g89m2k,False,134,1,unequal,ST1_high_1_a2,P != T2?,Same,1,2,high,82,1.58,112,1.08,82,1.5,Yes,sure,hit,1.5606768131256104,NA
150,!g89m2k,False,135,1,unequal,ST2_high_3_a2,P != T2?,Same,2,2,high,70,1.46,96,1.32,96,1.32,No,sure,cr,2.843687057495117,NA
151,!g89m2k,False,136,1,unequal,ST1_low_2_a1,P != T1?,Same,1,1,low,132,1.01,82,1.34,132,1.06,No,sure,cr,1.336388111114502,NA
152,!g89m2k,False,137,1,unequal,ST1_high_2_a1,P != T2?,Same,1,1,high,112,1.19,82,1.52,112,1.11,Yes,sure,hit,1.8571629524230957,NA
153,!g89m2k,False,138,1,unequal,ST2_high_1_a1,P != T2?,Same,2,1,high,82,1.23,112,0.98,112,1.0,No,sure,cr,2.7325828075408936,NA
154,!g89m2k,False,139,1,unequal,ST2_low_6_a2,P != T1?,Same,2,2,low,154,0.87,96,1.09,96,1.18,Yes,sure,hit,1.6251871585845947,NA
155,!g89m2k,False,140,1,unequal,ST2_low_1_a2,P != T2?,Same,2,2,low,82,1.33,132,0.9,132,0.99,No,sure,cr,1.3622050285339355,NA
156,!g89m2k,False,141,1,unequal,ST1_high_1_a2,P != T1?,Same,1,2,high,82,1.24,112,0.93,82,1.3,No,sure,cr,1.6289947032928467,NA
157,!g89m2k,False,142,1,unequal,ST1_low_6_a2,P != T1?,Same,1,2,low,154,0.92,96,1.22,154,0.87,No,sure,cr,1.7678158283233643,NA
158,!g89m2k,False,143,1,unequal,ST2_low_3_a2,P != T2?,Same,2,2,low,70,1.61,112,1.0,112,1.23,No,sure,cr,1.136207103729248,NA
159,!g89m2k,False,144,1,unequal,ST1_high_4_a1,P != T2?,Same,1,1,high,96,1.15,70,1.65,96,1.08,No,sure,miss,1.0679750442504883,NA
160,!g89m2k,False,145,1,unequal,ST2_low_6_a1,P != T1?,Same,2,1,low,154,0.84,96,1.4,96,1.13,Yes,sure,hit,1.2251942157745361,NA
161,!g89m2k,False,146,1,unequal,ST1_high_2_a2,P != T2?,Same,1,2,high,112,1.23,82,1.34,112,1.22,Yes,sure,hit,1.3602662086486816,NA
162,!g89m2k,False,147,1,unequal,ST1_high_5_a2,P != T2?,Same,1,2,high,96,1.21,132,0.91,96,1.14,Yes,sure,hit,1.4957249164581299,NA
163,!g89m2k,False,148,1,unequal,ST1_low_1_a2,P != T2?,Same,1,2,low,82,1.5,132,0.91,82,1.31,Yes,sure,hit,1.8099472522735596,NA
164,!g89m2k,False,149,1,unequal,ST1_low_1_a1,P != T2?,Same,1,1,low,82,1.49,132,1.05,82,1.51,Yes,quiteSure,hit,3.2618408203125,NA
165,!g89m2k,False,150,1,unequal,ST1_high_6_a1,P != T2?,Same,1,1,high,132,0.86,96,1.12,132,0.98,Yes,sure,hit,2.9588661193847656,NA
166,!g89m2k,False,151,1,unequal,ST1_low_1_a1,P != T2?,Same,1,1,low,82,1.36,132,0.8,82,1.46,Yes,quiteSure,hit,2.734628677368164,NA
167,!g89m2k,False,152,1,unequal,ST1_high_3_a1,P != T2?,Same,1,1,high,70,1.8,96,1.21,70,1.39,Yes,quiteSure,hit,1.9215219020843506,NA
168,!g89m2k,False,153,1,unequal,ST2_high_3_a2,P != T1?,Same,2,2,high,70,1.93,96,1.39,96,1.22,Yes,sure,hit,1.7678680419921875,NA
169,!g89m2k,False,154,1,unequal,ST1_high_4_a2,P != T1?,Same,1,2,high,96,1.37,70,1.41,96,1.4,No,sure,cr,2.417484998703003,NA
170,!g89m2k,False,155,1,unequal,ST2_high_4_a2,P != T2?,Same,2,2,high,96,1.09,70,1.47,70,1.57,No,sure,cr,1.5005087852478027,NA
171,!g89m2k,False,156,1,unequal,ST1_high_6_a1,P != T1?,Same,1,1,high,132,0.86,96,1.42,132,0.89,No,sure,cr,1.402228832244873,NA
172,!g89m2k,False,157,1,unequal,ST1_high_5_a1,P != T1?,Same,1,1,high,96,1.16,132,0.81,96,1.1,No,quiteSure,cr,2.730672836303711,NA
173,!g89m2k,False,158,1,unequal,ST2_high_4_a1,P != T2?,Same,2,1,high,96,1.18,70,1.83,70,1.49,No,sure,cr,5.569386005401611,NA
174,!g89m2k,False,159,1,unequal,ST1_low_3_a2,P != T2?,Same,1,2,low,70,1.83,112,1.19,70,1.76,Yes,sure,hit,2.010935068130493,NA
175,!g89m2k,False,160,1,unequal,ST2_high_6_a1,P != T1?,Same,2,1,high,132,0.83,96,1.35,96,1.23,Yes,sure,hit,1.8326311111450195,NA
176,!g89m2k,False,161,1,unequal,ST1_low_6_a2,P != T2?,Same,1,2,low,154,0.91,96,1.19,154,0.88,Yes,sure,hit,2.85042405128479,NA
177,!g89m2k,False,162,1,unequal,DT2_low_5_a1,P != T2?,Different,2,1,low,96,1.39,154,0.79,180,0.93,Yes,quiteSure,fa,1.449949026107788,NA
178,!g89m2k,False,163,1,unequal,ST1_low_4_a2,P != T1?,Same,1,2,low,112,0.96,70,1.49,112,0.96,No,sure,cr,1.784127950668335,NA
179,!g89m2k,False,164,1,unequal,ST1_low_3_a1,P != T2?,Same,1,1,low,70,1.84,112,0.93,70,1.38,Yes,sure,hit,1.5152029991149902,NA
180,!g89m2k,False,165,1,unequal,DT2_low_6_a1,P != T1?,Different,2,1,low,154,0.77,96,1.1,82,1.63,Yes,sure,hit,1.362454891204834,NA
181,!g89m2k,False,166,1,unequal,ST2_high_1_a2,P != T1?,Same,2,2,high,82,1.64,112,0.96,112,1.03,Yes,sure,hit,1.6710319519042969,NA
182,!g89m2k,False,167,1,unequal,ST2_high_5_a1,P != T2?,Same,2,1,high,96,1.22,132,0.92,132,0.88,No,quiteSure,cr,1.7147979736328125,NA
183,!g89m2k,False,168,1,unequal,ST1_low_5_a2,P != T2?,Same,1,2,low,96,1.42,154,0.93,96,1.13,Yes,sure,hit,1.560197114944458,NA
184,!g89m2k,False,169,1,unequal,ST1_low_4_a1,P != T1?,Same,1,1,low,112,1.12,70,1.54,112,1.08,No,sure,cr,1.4960148334503174,NA
185,!g89m2k,False,170,1,unequal,ST2_low_3_a2,P != T1?,Same,2,2,low,70,1.76,112,1.2,112,1.06,Yes,sure,hit,2.056579113006592,NA
186,!g89m2k,False,171,1,unequal,ST1_low_2_a1,P != T2?,Same,1,1,low,132,1.04,82,1.26,132,0.97,Yes,sure,hit,1.5849969387054443,NA
187,!g89m2k,False,172,1,unequal,ST2_high_2_a2,P != T2?,Same,2,2,high,112,1.17,82,1.54,82,1.64,No,sure,cr,1.7426252365112305,NA
188,!g89m2k,False,173,1,unequal,DT2_low_3_a1,P != T1?,Different,2,1,low,70,1.56,112,1.04,132,1.0,Yes,sure,hit,2.4819440841674805,NA
189,!g89m2k,False,174,1,unequal,ST2_high_3_a1,P != T2?,Same,2,1,high,70,1.49,96,1.43,96,1.13,No,sure,cr,1.496441125869751,NA
190,!g89m2k,False,175,1,unequal,ST1_low_4_a1,P != T2?,Same,1,1,low,112,1.11,70,1.45,112,1.26,Yes,sure,hit,1.4227380752563477,NA
191,!g89m2k,False,176,1,unequal,ST1_low_4_a1,P != T1?,Same,1,1,low,112,1.12,70,1.64,112,0.93,Yes,sure,fa,1.1343300342559814,NA
192,!g89m2k,False,177,1,unequal,ST2_low_1_a2,P != T1?,Same,2,2,low,82,1.55,132,0.96,132,0.81,No,sure,miss,1.2913398742675781,NA
193,!g89m2k,False,178,1,unequal,ST1_low_5_a1,P != T2?,Same,1,1,low,96,1.42,154,0.87,96,1.16,Yes,sure,hit,2.554560899734497,NA
194,!g89m2k,False,179,1,unequal,ST2_high_5_a2,P != T1?,Same,2,2,high,96,1.18,132,0.81,132,1.02,Yes,sure,hit,1.7202749252319336,NA
195,!g89m2k,False,180,1,unequal,ST2_low_6_a1,P != T2?,Same,2,1,low,154,0.87,96,1.14,96,1.42,No,sure,cr,1.920809268951416,NA
196,!g89m2k,False,181,1,unequal,ST2_low_6_a1,P != T1?,Same,2,1,low,154,0.77,96,1.11,96,1.25,Yes,sure,hit,1.8075377941131592,NA
197,!g89m2k,False,182,1,unequal,ST1_high_2_a2,P != T1?,Same,1,2,high,112,1.1,82,1.58,112,1.0,No,sure,cr,1.9929070472717285,NA
198,!g89m2k,False,183,1,unequal,ST2_high_1_a1,P != T2?,Same,2,1,high,82,1.4,112,1.04,112,1.22,No,sure,cr,1.853559970855713,NA
199,!g89m2k,False,184,1,unequal,ST1_high_5_a1,P != T1?,Same,1,1,high,96,1.42,132,0.99,96,1.17,No,sure,cr,1.518010139465332,NA
200,!g89m2k,False,185,1,unequal,ST2_high_3_a1,P != T2?,Same,2,1,high,70,1.55,96,1.31,96,1.2,No,sure,cr,1.607414960861206,NA
201,!g89m2k,False,186,1,unequal,DT1_high_5_a2,P != T1?,Different,1,2,high,96,1.4,132,1.06,82,1.53,Yes,unsure,fa,2.2857069969177246,NA
202,!g89m2k,False,187,1,unequal,ST2_high_3_a2,P != T2?,Same,2,2,high,70,1.79,96,1.25,96,1.15,No,sure,cr,1.2210519313812256,NA
203,!g89m2k,False,188,1,unequal,ST2_low_4_a1,P != T1?,Same,2,1,low,112,1.22,70,1.8,70,1.63,Yes,sure,hit,2.015511989593506,NA
204,!g89m2k,False,189,1,unequal,DT2_high_6_a1,P != T1?,Different,2,1,high,132,0.84,96,1.38,82,1.36,Yes,sure,hit,1.447995901107788,NA
205,!g89m2k,False,190,1,unequal,ST1_high_2_a2,P != T1?,Same,1,2,high,112,1.17,82,1.45,112,1.24,No,quiteSure,cr,1.8769810199737549,NA
206,!g89m2k,False,191,1,unequal,ST1_high_1_a2,P != T2?,Same,1,2,high,82,1.54,112,0.96,82,1.25,No,quiteSure,miss,1.8081767559051514,NA
207,!g89m2k,False,192,1,unequal,ST2_high_1_a1,P != T1?,Same,2,1,high,82,1.49,112,0.92,112,1.07,Yes,sure,hit,2.5750458240509033,NA
208,!g89m2k,False,193,1,unequal,ST1_high_2_a1,P != T1?,Same,1,1,high,112,1.12,82,1.46,112,1.23,No,quiteSure,cr,1.988396167755127,NA
209,!g89m2k,False,194,1,unequal,ST1_high_2_a1,P != T1?,Same,1,1,high,112,1.23,82,1.64,112,1.19,No,quiteSure,cr,3.4982268810272217,NA
210,!g89m2k,False,195,1,unequal,ST1_high_2_a2,P != T2?,Same,1,2,high,112,1.03,82,1.47,112,1.0,Yes,sure,hit,1.944403886795044,NA
211,!g89m2k,False,196,1,unequal,ST1_low_2_a2,P != T2?,Same,1,2,low,132,0.97,82,1.49,132,1.0,Yes,sure,hit,1.6529567241668701,NA
212,!g89m2k,False,197,1,unequal,ST2_high_6_a1,P != T2?,Same,2,1,high,132,1.06,96,1.31,96,1.31,No,sure,cr,2.1940228939056396,NA
213,!g89m2k,False,198,1,unequal,ST2_high_5_a1,P != T2?,Same,2,1,high,96,1.34,132,0.79,132,0.82,No,quiteSure,cr,1.9697902202606201,NA
214,!g89m2k,False,199,1,unequal,ST2_low_1_a2,P != T1?,Same,2,2,low,82,1.21,132,0.84,132,0.99,Yes,sure,hit,1.9653990268707275,NA
215,!g89m2k,False,200,1,unequal,ST1_low_3_a1,P != T2?,Same,1,1,low,70,1.47,112,1.04,70,1.49,Yes,sure,hit,3.2745800018310547,NA
216,!g89m2k,False,201,1,unequal,ST1_high_4_a2,P != T1?,Same,1,2,high,96,1.39,70,1.76,96,1.1,No,sure,cr,2.079612970352173,NA
217,!g89m2k,False,202,1,unequal,ST2_low_1_a1,P != T2?,Same,2,1,low,82,1.53,132,0.87,132,0.96,No,sure,cr,3.317929267883301,NA
218,!g89m2k,False,203,1,unequal,ST1_low_6_a1,P != T2?,Same,1,1,low,154,0.81,96,1.08,154,0.74,Yes,sure,hit,2.7081949710845947,NA
219,!g89m2k,False,204,1,unequal,ST1_low_6_a2,P != T2?,Same,1,2,low,154,0.86,96,1.09,154,0.78,Yes,sure,hit,1.7199597358703613,NA
220,!g89m2k,False,205,1,unequal,ST1_high_6_a2,P != T2?,Same,1,2,high,132,1.01,96,1.42,132,0.81,Yes,sure,hit,1.4254541397094727,NA
221,!g89m2k,False,206,1,unequal,ST1_low_5_a2,P != T2?,Same,1,2,low,96,1.33,154,0.92,96,1.42,Yes,sure,hit,1.206103801727295,NA
222,!g89m2k,False,207,1,unequal,ST2_low_2_a2,P != T1?,Same,2,2,low,132,1.02,82,1.36,82,1.49,Yes,sure,hit,2.1067960262298584,NA
223,!g89m2k,False,208,1,unequal,ST1_low_6_a1,P != T2?,Same,1,1,low,154,0.78,96,1.24,154,0.82,Yes,sure,hit,0.9299259185791016,NA
224,!g89m2k,False,209,1,unequal,ST2_low_2_a1,P != T2?,Same,2,1,low,132,0.79,82,1.46,82,1.42,No,sure,cr,1.5834808349609375,NA
225,!g89m2k,False,210,1,unequal,ST1_high_6_a2,P != T1?,Same,1,2,high,132,0.85,96,1.29,132,0.9,No,sure,cr,1.3815531730651855,NA
226,!g89m2k,False,211,1,unequal,ST2_low_5_a1,P != T1?,Same,2,1,low,96,1.08,154,0.95,154,0.73,Yes,sure,hit,1.4052150249481201,NA
227,!g89m2k,False,212,1,unequal,ST1_low_2_a2,P != T1?,Same,1,2,low,132,0.89,82,1.35,132,1.0,No,sure,cr,1.3384859561920166,NA
228,!g89m2k,False,213,1,unequal,ST2_high_3_a2,P != T1?,Same,2,2,high,70,1.62,96,1.4,96,1.4,Yes,quiteSure,hit,1.335994005203247,NA
229,!g89m2k,False,214,1,unequal,ST1_high_5_a2,P != T1?,Same,1,2,high,96,1.11,132,0.83,96,1.32,No,sure,cr,1.8830280303955078,NA
230,!g89m2k,False,215,1,unequal,ST2_low_2_a1,P != T1?,Same,2,1,low,132,0.8,82,1.23,82,1.61,Yes,sure,hit,5.478518962860107,NA
231,!g89m2k,False,216,1,unequal,ST1_low_1_a2,P != T1?,Same,1,2,low,82,1.43,132,0.79,82,1.46,No,sure,cr,2.3474130630493164,NA
232,!g89m2k,False,217,1,unequal,ST2_low_1_a1,P != T2?,Same,2,1,low,82,1.25,132,0.86,132,1.05,No,quiteSure,cr,2.3993451595306396,NA
233,!g89m2k,False,218,1,unequal,ST2_low_4_a2,P != T2?,Same,2,2,low,112,1.12,70,1.69,70,1.48,No,sure,cr,2.3484420776367188,NA
234,!g89m2k,False,219,1,unequal,STb_3_a1,P != T1?,Same,0,1,None,82,1.31,82,1.44,82,1.53,No,quiteSure,cr,2.9110147953033447,NA
235,!g89m2k,False,220,1,unequal,ST1_low_3_a2,P != T1?,Same,1,2,low,70,1.72,112,1.22,70,1.54,No,quiteSure,cr,3.8356242179870605,NA
236,!g89m2k,False,221,1,unequal,ST2_high_4_a2,P != T1?,Same,2,2,high,96,1.07,70,1.7,70,1.38,No,unsure,miss,4.167098045349121,NA
237,!g89m2k,False,222,1,unequal,ST1_high_1_a1,P != T2?,Same,1,1,high,82,1.4,112,0.92,82,1.53,Yes,quiteSure,hit,1.7871148586273193,NA
238,!g89m2k,False,223,1,unequal,ST1_low_5_a2,P != T1?,Same,1,2,low,96,1.22,154,0.9,96,1.12,No,quiteSure,cr,2.034301996231079,NA
239,!g89m2k,False,224,1,unequal,ST1_low_2_a1,P != T2?,Same,1,1,low,132,0.92,82,1.35,132,0.97,Yes,quiteSure,hit,1.6765921115875244,NA
240,!g89m2k,False,225,1,unequal,ST2_low_4_a2,P != T1?,Same,2,2,low,112,1.03,70,1.76,70,1.57,Yes,quiteSure,hit,1.3570058345794678,NA
241,!g89m2k,False,226,1,unequal,ST2_high_4_a1,P != T1?,Same,2,1,high,96,1.17,70,1.74,70,1.56,Yes,quiteSure,hit,2.300503730773926,NA
242,!g89m2k,False,227,1,unequal,ST2_low_5_a1,P != T1?,Same,2,1,low,96,1.25,154,0.74,154,0.83,Yes,quiteSure,hit,1.0900940895080566,NA
243,!g89m2k,False,228,1,unequal,ST2_low_3_a1,P != T2?,Same,2,1,low,70,1.46,112,1.0,112,0.98,No,quiteSure,cr,1.694382905960083,NA
244,!g89m2k,False,229,1,unequal,ST2_high_6_a1,P != T2?,Same,2,1,high,132,0.97,96,1.33,96,1.13,No,quiteSure,cr,1.6060340404510498,NA
245,!g89m2k,False,230,1,unequal,ST1_high_1_a1,P != T2?,Same,1,1,high,82,1.48,112,1.23,82,1.45,Yes,sure,hit,1.539003849029541,NA
246,!g89m2k,False,231,1,unequal,ST1_high_6_a1,P != T2?,Same,1,1,high,132,0.87,96,1.16,132,0.99,Yes,quiteSure,hit,1.4505760669708252,NA
247,!g89m2k,False,232,1,unequal,ST2_low_2_a2,P != T2?,Same,2,2,low,132,0.83,82,1.59,82,1.39,No,quiteSure,cr,1.7644438743591309,NA
248,!g89m2k,False,233,1,unequal,ST2_low_6_a1,P != T1?,Same,2,1,low,154,0.83,96,1.11,96,1.41,Yes,sure,hit,2.441499948501587,NA
249,!g89m2k,False,234,1,unequal,ST2_high_6_a1,P != T1?,Same,2,1,high,132,0.89,96,1.35,96,1.07,Yes,quiteSure,hit,1.7175359725952148,NA
250,!g89m2k,False,235,1,unequal,ST1_low_6_a1,P != T1?,Same,1,1,low,154,0.73,96,1.27,154,0.92,No,sure,cr,1.8753387928009033,NA
251,!g89m2k,False,236,1,unequal,DT1_low_2_a1,P != T2?,Different,1,1,low,132,0.97,82,1.59,154,0.76,Yes,quiteSure,hit,2.575092077255249,NA
252,!g89m2k,False,237,1,unequal,ST2_low_3_a1,P != T1?,Same,2,1,low,70,1.45,112,0.96,112,1.21,Yes,sure,hit,2.508060932159424,NA
253,!g89m2k,False,238,1,unequal,ST2_high_5_a2,P != T1?,Same,2,2,high,96,1.24,132,0.94,132,0.8,Yes,sure,hit,1.3413667678833008,NA
254,!g89m2k,False,239,1,unequal,DT1_high_5_a1,P != T1?,Different,1,1,high,96,1.35,132,1.03,82,1.3,No,unsure,cr,3.3162758350372314,NA
255,!g89m2k,False,240,1,unequal,ST1_low_5_a1,P != T1?,Same,1,1,low,96,1.22,154,0.75,96,1.26,No,sure,cr,2.045984983444214,NA
256,!g89m2k,False,241,1,unequal,ST1_low_1_a1,P != T1?,Same,1,1,low,82,1.64,132,0.99,82,1.55,No,sure,cr,1.2925989627838135,NA
257,!g89m2k,False,242,1,unequal,ST2_high_1_a2,P != T2?,Same,2,2,high,82,1.38,112,1.13,112,1.01,No,quiteSure,cr,3.2274281978607178,NA
258,!g89m2k,False,243,1,unequal,ST2_high_6_a2,P != T2?,Same,2,2,high,132,0.83,96,1.41,96,1.21,No,quiteSure,cr,2.9778499603271484,NA
259,!g89m2k,False,244,1,unequal,ST1_high_1_a2,P != T1?,Same,1,2,high,82,1.62,112,1.17,82,1.63,No,sure,cr,3.806344985961914,NA
260,!g89m2k,False,245,1,unequal,ST1_low_3_a2,P != T1?,Same,1,2,low,70,1.69,112,1.06,70,1.82,No,sure,cr,1.5361578464508057,NA
261,!g89m2k,False,246,1,unequal,STb_7_a1,P != T1?,Same,0,1,None,154,0.87,154,0.92,154,0.88,No,sure,cr,2.9761228561401367,NA
262,!g89m2k,False,247,1,unequal,ST1_low_6_a1,P != T1?,Same,1,1,low,154,0.92,96,1.3,154,0.87,No,sure,cr,1.96449613571167,NA
263,!g89m2k,False,248,1,unequal,ST2_low_5_a2,P != T1?,Same,2,2,low,96,1.24,154,0.83,154,0.73,Yes,sure,hit,1.7229487895965576,NA
264,!g89m2k,False,249,1,unequal,STb_6_a1,P != T1?,Same,0,1,None,132,1.01,132,0.85,132,0.98,No,quiteSure,cr,1.6355772018432617,NA
265,!g89m2k,False,250,1,unequal,DT2_low_2_a2,P != T1?,Different,2,2,low,132,0.87,82,1.51,70,1.83,Yes,sure,hit,1.3337383270263672,NA
266,!g89m2k,False,251,1,unequal,ST1_high_6_a1,P != T1?,Same,1,1,high,132,0.85,96,1.41,132,0.85,No,quiteSure,cr,2.707468032836914,NA
267,!g89m2k,False,252,1,unequal,ST2_high_2_a2,P != T1?,Same,2,2,high,112,0.92,82,1.64,82,1.38,Yes,unsure,hit,2.5946178436279297,NA
268,!g89m2k,False,253,1,unequal,ST2_high_3_a2,P != T1?,Same,2,2,high,70,1.45,96,1.21,96,1.32,Yes,sure,hit,2.353355884552002,NA
269,!g89m2k,False,254,1,unequal,ST1_high_3_a1,P != T2?,Same,1,1,high,70,1.37,96,1.15,70,1.63,Yes,quiteSure,hit,1.493062973022461,NA
270,!g89m2k,False,255,1,unequal,ST1_low_3_a1,P != T1?,Same,1,1,low,70,1.67,112,1.0,70,1.43,No,quiteSure,cr,2.8217270374298096,NA
271,!g89m2k,False,256,1,unequal,ST2_low_3_a2,P != T1?,Same,2,2,low,70,1.49,112,1.23,112,1.18,Yes,sure,hit,1.6076569557189941,NA
272,!g89m2k,False,257,1,unequal,ST2_low_4_a2,P != T2?,Same,2,2,low,112,0.94,70,1.4,70,1.76,No,sure,cr,1.677567958831787,NA
273,!g89m2k,False,258,1,unequal,ST1_low_1_a2,P != T2?,Same,1,2,low,82,1.35,132,0.96,82,1.38,Yes,sure,hit,1.7010118961334229,NA
274,!g89m2k,False,259,1,unequal,ST2_high_6_a2,P != T1?,Same,2,2,high,132,1.01,96,1.41,96,1.25,Yes,sure,hit,1.762995958328247,NA
275,!g89m2k,False,260,1,unequal,DT1_high_1_a2,P != T1?,Different,1,2,high,82,1.53,112,0.96,70,1.6,Yes,unsure,fa,2.0116140842437744,NA
276,!g89m2k,False,261,1,unequal,STb_8_a2,P != T1?,Same,0,2,None,180,0.73,180,0.75,180,0.77,No,sure,cr,1.8078289031982422,NA
277,!g89m2k,False,262,1,unequal,ST2_low_5_a2,P != T2?,Same,2,2,low,96,1.35,154,0.73,154,0.82,No,quiteSure,cr,1.7020988464355469,NA
278,!g89m2k,False,263,1,unequal,ST2_low_3_a2,P != T2?,Same,2,2,low,70,1.78,112,0.99,112,1.04,No,quiteSure,cr,2.0345630645751953,NA
279,!g89m2k,False,264,1,unequal,ST1_high_4_a1,P != T2?,Same,1,1,high,96,1.29,70,1.69,96,1.03,Yes,sure,hit,2.1265909671783447,NA
280,!g89m2k,False,265,1,unequal,ST2_high_2_a2,P != T2?,Same,2,2,high,112,0.93,82,1.53,82,1.41,No,sure,cr,1.2455101013183594,NA
281,!g89m2k,False,266,1,unequal,ST1_high_2_a2,P != T2?,Same,1,2,high,112,1.22,82,1.26,112,1.13,Yes,sure,hit,1.5176692008972168,NA
282,!g89m2k,False,267,1,unequal,ST2_high_4_a1,P != T2?,Same,2,1,high,96,1.07,70,1.51,70,1.52,No,sure,cr,1.0693340301513672,NA
283,!g89m2k,False,268,1,unequal,ST1_high_3_a2,P != T1?,Same,1,2,high,70,1.54,96,1.09,70,1.55,No,sure,cr,1.338468074798584,NA
284,!g89m2k,False,269,1,unequal,ST2_high_6_a2,P != T1?,Same,2,2,high,132,1.0,96,1.26,96,1.07,Yes,sure,hit,1.5880000591278076,NA
285,!g89m2k,False,270,1,unequal,ST1_low_6_a2,P != T1?,Same,1,2,low,154,0.9,96,1.27,154,0.83,Yes,quiteSure,fa,2.3083598613739014,NA
286,!g89m2k,False,271,1,unequal,ST2_high_5_a2,P != T2?,Same,2,2,high,96,1.13,132,0.82,132,0.88,No,sure,cr,1.0673720836639404,NA
287,!g89m2k,False,272,1,unequal,STb_8_a1,P != T2?,Same,0,1,None,180,0.71,180,0.71,180,0.9,No,sure,cr,1.496649980545044,NA
288,!g89m2k,False,273,1,unequal,ST1_high_5_a2,P != T2?,Same,1,2,high,96,1.16,132,0.8,96,1.26,Yes,sure,hit,4.174717903137207,NA
289,!g89m2k,False,274,1,unequal,ST1_low_4_a1,P != T2?,Same,1,1,low,112,1.17,70,1.57,112,0.95,Yes,sure,hit,1.2926850318908691,NA
290,!g89m2k,False,275,1,unequal,ST1_low_5_a2,P != T1?,Same,1,2,low,96,1.43,154,0.85,96,1.14,No,sure,cr,1.9218568801879883,NA
291,!g89m2k,False,276,1,unequal,ST1_low_4_a1,P != T1?,Same,1,1,low,112,1.0,70,1.46,112,1.16,No,unsure,cr,2.550074815750122,NA
292,!g89m2k,False,277,1,unequal,ST2_low_5_a1,P != T1?,Same,2,1,low,96,1.36,154,0.94,154,0.9,Yes,sure,hit,1.470031976699829,NA
293,!g89m2k,False,278,1,unequal,ST2_low_4_a2,P != T1?,Same,2,2,low,112,1.02,70,1.7,70,1.46,Yes,sure,hit,1.7385308742523193,NA
294,!g89m2k,False,279,1,unequal,ST2_low_2_a1,P != T1?,Same,2,1,low,132,0.9,82,1.51,82,1.56,Yes,sure,hit,1.2093391418457031,NA
295,!g89m2k,False,280,1,unequal,ST1_low_3_a1,P != T1?,Same,1,1,low,70,1.81,112,0.97,70,1.77,No,sure,cr,1.6982638835906982,NA
296,!g89m2k,False,281,1,unequal,ST1_high_6_a2,P != T1?,Same,1,2,high,132,0.92,96,1.28,132,0.93,No,sure,cr,0.9783451557159424,NA
297,!g89m2k,False,282,1,unequal,ST1_high_2_a2,P != T1?,Same,1,2,high,112,1.05,82,1.61,112,1.04,No,quiteSure,cr,1.586378812789917,NA
298,!g89m2k,False,283,1,unequal,ST1_high_3_a1,P != T1?,Same,1,1,high,70,1.49,96,1.25,70,1.83,No,quiteSure,cr,1.5173330307006836,NA
299,!g89m2k,False,284,1,unequal,ST1_low_4_a2,P != T2?,Same,1,2,low,112,1.17,70,1.76,112,1.23,Yes,sure,hit,1.5667247772216797,NA
300,!g89m2k,False,285,1,unequal,DT1_low_1_a2,P != T2?,Different,1,2,low,82,1.42,132,0.89,70,1.7,Yes,sure,hit,1.2955079078674316,NA
301,!g89m2k,False,286,1,unequal,ST1_low_6_a1,P != T1?,Same,1,1,low,154,0.89,96,1.22,154,0.71,No,sure,cr,1.0628852844238281,NA
302,!g89m2k,False,287,1,unequal,STb_5_a1,P != T2?,Same,0,1,None,112,0.95,112,1.19,112,1.15,No,sure,cr,1.3837099075317383,NA
303,!g89m2k,False,288,1,unequal,ST1_low_3_a2,P != T2?,Same,1,2,low,70,1.56,112,1.13,70,1.71,Yes,sure,hit,1.246462106704712,NA
304,!g89m2k,False,289,1,unequal,ST2_low_4_a1,P != T1?,Same,2,1,low,112,1.16,70,1.79,70,1.63,Yes,sure,hit,1.134263038635254,NA
305,!g89m2k,False,290,1,unequal,STb_7_a2,P != T2?,Same,0,2,None,154,0.81,154,0.83,154,0.83,No,sure,cr,1.2481820583343506,NA
306,!g89m2k,False,291,1,unequal,ST1_low_2_a1,P != T2?,Same,1,1,low,132,0.9,82,1.29,132,0.99,Yes,sure,hit,3.2747201919555664,NA
307,!g89m2k,False,292,1,unequal,ST2_high_2_a2,P != T2?,Same,2,2,high,112,0.94,82,1.27,82,1.36,No,sure,cr,1.900305986404419,NA
308,!g89m2k,False,293,1,unequal,ST2_low_1_a2,P != T2?,Same,2,2,low,82,1.63,132,1.03,132,1.01,No,quiteSure,cr,2.0586678981781006,NA
309,!g89m2k,False,294,1,unequal,ST1_low_4_a2,P != T1?,Same,1,2,low,112,1.18,70,1.61,112,1.15,No,quiteSure,cr,1.7886347770690918,NA
310,!g89m2k,False,295,1,unequal,ST1_low_2_a1,P != T1?,Same,1,1,low,132,0.99,82,1.51,132,0.96,No,quiteSure,cr,1.2453811168670654,NA
311,!g89m2k,False,296,1,unequal,ST2_high_6_a1,P != T2?,Same,2,1,high,132,0.92,96,1.12,96,1.23,No,quiteSure,cr,1.1838138103485107,NA
312,!g89m2k,False,297,1,unequal,ST1_high_6_a2,P != T2?,Same,1,2,high,132,0.94,96,1.32,132,0.88,Yes,sure,hit,1.6955640316009521,NA
313,!g89m2k,False,298,1,unequal,DT2_high_3_a2,P != T2?,Different,2,2,high,70,1.6,96,1.25,112,1.01,Yes,quiteSure,fa,1.3600869178771973,NA
314,!g89m2k,False,299,1,unequal,STb_4_a2,P != T2?,Same,0,2,None,96,1.21,96,1.25,96,1.24,No,quiteSure,cr,1.449826717376709,NA
315,!g89m2k,False,300,1,unequal,ST2_high_1_a2,P != T1?,Same,2,2,high,82,1.31,112,1.18,112,0.97,Yes,sure,hit,1.5408971309661865,NA
316,!g89m2k,False,301,1,unequal,ST1_high_3_a2,P != T2?,Same,1,2,high,70,1.71,96,1.13,70,1.47,Yes,sure,hit,1.3836958408355713,NA
317,!g89m2k,False,302,1,unequal,ST2_high_4_a2,P != T1?,Same,2,2,high,96,1.25,70,1.47,70,1.68,No,quiteSure,miss,1.0876870155334473,NA
318,!g89m2k,False,303,1,unequal,ST2_low_6_a2,P != T2?,Same,2,2,low,154,0.85,96,1.38,96,0.95,No,unsure,cr,3.140385150909424,NA
319,!g89m2k,False,304,1,unequal,ST1_high_3_a2,P != T1?,Same,1,2,high,70,1.43,96,1.3,70,1.69,No,quiteSure,cr,1.0014219284057617,NA
320,!g89m2k,False,305,1,unequal,DT2_low_1_a1,P != T2?,Different,2,1,low,82,1.39,132,0.81,154,0.87,Yes,sure,fa,1.3580207824707031,NA
321,!g89m2k,False,306,1,unequal,ST2_low_1_a2,P != T1?,Same,2,2,low,82,1.51,132,1.05,132,1.03,Yes,sure,hit,1.4075489044189453,NA
322,!g89m2k,False,307,1,unequal,ST2_high_1_a2,P != T1?,Same,2,2,high,82,1.4,112,0.95,112,1.02,Yes,quiteSure,hit,1.51780104637146,NA
323,!g89m2k,False,308,1,unequal,ST1_high_5_a1,P != T1?,Same,1,1,high,96,1.37,132,0.79,96,1.07,No,quiteSure,cr,1.2267718315124512,NA
324,!g89m2k,False,309,1,unequal,ST2_low_3_a1,P != T2?,Same,2,1,low,70,1.41,112,1.2,112,1.21,No,quiteSure,cr,1.4515609741210938,NA
325,!g89m2k,False,310,1,unequal,ST2_low_5_a1,P != T2?,Same,2,1,low,96,1.3,154,0.79,154,0.83,No,sure,cr,1.4504549503326416,NA
326,!g89m2k,False,311,1,unequal,ST2_low_4_a1,P != T2?,Same,2,1,low,112,1.17,70,1.67,70,1.65,No,quiteSure,cr,1.6083478927612305,NA
327,!g89m2k,False,312,1,unequal,ST1_low_5_a1,P != T1?,Same,1,1,low,96,1.42,154,0.95,96,1.18,No,quiteSure,cr,1.2497711181640625,NA
328,!g89m2k,False,313,1,unequal,ST1_low_6_a2,P != T2?,Same,1,2,low,154,0.77,96,1.26,154,0.93,Yes,sure,hit,1.805069923400879,NA
329,!g89m2k,False,314,1,unequal,ST1_high_2_a1,P != T2?,Same,1,1,high,112,1.14,82,1.23,112,0.97,Yes,sure,hit,1.3317670822143555,NA
330,!g89m2k,False,315,1,unequal,ST1_high_6_a2,P != T1?,Same,1,2,high,132,0.97,96,1.09,132,1.04,No,quiteSure,cr,1.4720349311828613,NA
331,!g89m2k,False,316,1,unequal,ST1_low_5_a2,P != T1?,Same,1,2,low,96,1.28,154,0.85,96,1.11,No,sure,cr,1.447464942932129,NA
332,!g89m2k,False,317,1,unequal,ST2_high_4_a2,P != T2?,Same,2,2,high,96,1.14,70,1.63,70,1.5,No,sure,cr,1.988495111465454,NA
333,!g89m2k,False,318,1,unequal,ST2_high_3_a1,P != T1?,Same,2,1,high,70,1.67,96,1.35,96,1.1,Yes,sure,hit,1.6520366668701172,NA
334,!g89m2k,False,319,1,unequal,ST2_low_6_a2,P != T2?,Same,2,2,low,154,0.87,96,1.15,96,1.15,No,sure,cr,2.7326772212982178,NA
335,!g89m2k,False,320,1,unequal,ST1_high_3_a1,P != T1?,Same,1,1,high,70,1.74,96,1.14,70,1.56,No,unsure,cr,2.0165481567382812,1.0
