,pcode,practice,trial,block,questionType,condition,question,PTS,TargetPosition,AccessoryPosition,TNS,T1_hz,T1_amp,T2_hz,T2_amp,P_hz,P_amp,response_dicho,response_rating,response_sdt,rt,P_correct
0,6dg8k!1,True,1,2,equal,STb_2_a1,P = T2?,Same,0,1,None,70,1.58,70,1.59,70,1.43,Yes,quiteSure,hit,14.682011127471924,NA
1,6dg8k!1,True,2,2,equal,ST1_high_5_a2,P = T1?,Same,1,2,high,96,1.14,132,0.76,96,1.23,Yes,quiteSure,hit,3.1316580772399902,NA
2,6dg8k!1,True,3,2,equal,DT1_high_6_a2,P = T1?,Different,1,2,high,132,1.0,96,1.22,154,0.92,Yes,quiteSure,hit,1.240588665008545,NA
3,6dg8k!1,True,4,2,equal,ST2_high_1_a1,P = T1?,Same,2,1,high,82,1.28,112,1.02,112,1.03,No,quiteSure,cr,3.4456560611724854,NA
4,6dg8k!1,True,5,2,equal,STb_6_a1,P = T1?,Same,0,1,None,132,0.77,132,0.88,132,0.88,Yes,quiteSure,hit,2.8610730171203613,NA
5,6dg8k!1,True,6,2,equal,ST1_low_4_a2,P = T1?,Same,1,2,low,112,1.24,70,1.34,112,1.04,Yes,quiteSure,hit,3.536113977432251,NA
6,6dg8k!1,True,7,2,equal,STb_2_a2,P = T1?,Same,0,2,None,70,1.6,70,1.96,70,1.59,No,quiteSure,miss,3.2392659187316895,NA
7,6dg8k!1,True,8,2,equal,STb_4_a2,P = T2?,Same,0,2,None,96,1.34,96,1.35,96,1.33,Yes,quiteSure,hit,4.408238887786865,NA
8,6dg8k!1,True,9,2,equal,ST1_low_5_a1,P = T2?,Same,1,1,low,96,1.41,154,0.66,96,1.38,No,quiteSure,cr,2.9450361728668213,NA
9,6dg8k!1,True,10,2,equal,DT2_low_3_a1,P = T2?,Different,2,1,low,70,1.7,112,1.09,132,0.8,Yes,quiteSure,hit,3.0613350868225098,NA
10,6dg8k!1,True,11,2,equal,DT1_low_6_a2,P = T2?,Different,1,2,low,154,0.73,96,1.21,180,0.92,No,quiteSure,cr,2.479515790939331,NA
11,6dg8k!1,True,12,2,equal,ST2_low_4_a2,P = T2?,Same,2,2,low,112,1.02,70,1.33,70,1.61,Yes,quiteSure,hit,2.835662841796875,NA
12,6dg8k!1,True,13,2,equal,DT1_high_2_a1,P = T1?,Different,1,1,high,112,1.16,82,1.45,132,0.94,Yes,quiteSure,hit,4.7230658531188965,NA
13,6dg8k!1,True,14,2,equal,ST1_low_1_a1,P = T2?,Same,1,1,low,82,1.29,132,0.74,82,1.71,Yes,quiteSure,fa,2.229273796081543,NA
14,6dg8k!1,True,15,2,equal,ST2_high_5_a1,P = T1?,Same,2,1,high,96,1.21,132,1.02,132,1.09,No,quiteSure,cr,1.7806289196014404,NA
15,6dg8k!1,True,16,2,equal,ST2_high_2_a1,P = T2?,Same,2,1,high,112,1.23,82,1.67,82,1.56,Yes,quiteSure,hit,3.9791362285614014,0.75
16,6dg8k!1,False,1,2,equal,ST1_high_6_a2,P = T1?,Same,1,2,high,132,1.0,96,1.13,132,0.84,Yes,quiteSure,hit,3.534101963043213,NA
17,6dg8k!1,False,2,2,equal,ST1_low_1_a2,P = T1?,Same,1,2,low,82,1.23,132,0.8,82,1.34,Yes,quiteSure,hit,2.0701849460601807,NA
18,6dg8k!1,False,3,2,equal,ST2_high_2_a2,P = T2?,Same,2,2,high,112,0.96,82,1.59,82,1.35,Yes,quiteSure,hit,1.6437427997589111,NA
19,6dg8k!1,False,4,2,equal,ST2_high_3_a1,P = T2?,Same,2,1,high,70,1.79,96,1.25,96,1.31,Yes,quiteSure,hit,1.3479790687561035,NA
20,6dg8k!1,False,5,2,equal,ST1_low_1_a1,P = T2?,Same,1,1,low,82,1.63,132,0.93,82,1.59,No,quiteSure,cr,1.775575876235962,NA
21,6dg8k!1,False,6,2,equal,ST1_high_6_a1,P = T2?,Same,1,1,high,132,0.85,96,1.22,132,1.0,Yes,quiteSure,fa,2.2514379024505615,NA
22,6dg8k!1,False,7,2,equal,STb_2_a2,P = T1?,Same,0,2,None,70,1.6,70,1.96,70,1.59,Yes,quiteSure,hit,1.349264144897461,NA
23,6dg8k!1,False,8,2,equal,ST1_high_5_a1,P = T1?,Same,1,1,high,96,1.16,132,0.81,96,1.26,Yes,quiteSure,hit,3.666341781616211,NA
24,6dg8k!1,False,9,2,equal,ST1_low_4_a2,P = T2?,Same,1,2,low,112,1.23,70,1.45,112,0.97,Yes,quiteSure,fa,2.115817070007324,NA
25,6dg8k!1,False,10,2,equal,ST2_low_3_a2,P = T2?,Same,2,2,low,70,1.43,112,0.99,112,1.14,Yes,quiteSure,hit,3.2647218704223633,NA
26,6dg8k!1,False,11,2,equal,ST2_low_4_a1,P = T1?,Same,2,1,low,112,1.2,70,1.38,70,1.69,No,quiteSure,cr,2.4982969760894775,NA
27,6dg8k!1,False,12,2,equal,ST1_high_4_a1,P = T1?,Same,1,1,high,96,1.37,70,1.42,96,1.29,Yes,quiteSure,hit,1.622873067855835,NA
28,6dg8k!1,False,13,2,equal,ST1_low_4_a1,P = T2?,Same,1,1,low,112,1.07,70,1.7,112,1.09,Yes,quiteSure,fa,5.287776947021484,NA
29,6dg8k!1,False,14,2,equal,ST2_low_1_a1,P = T1?,Same,2,1,low,82,1.64,132,0.81,132,0.92,Yes,quiteSure,fa,4.051095008850098,NA
30,6dg8k!1,False,15,2,equal,ST2_high_1_a2,P = T2?,Same,2,2,high,82,1.64,112,1.0,112,1.08,Yes,quiteSure,hit,1.32193922996521,NA
31,6dg8k!1,False,16,2,equal,ST2_high_3_a2,P = T1?,Same,2,2,high,70,1.51,96,1.17,96,1.12,Yes,quiteSure,fa,0.4500112533569336,NA
32,6dg8k!1,False,17,2,equal,ST1_low_4_a1,P = T1?,Same,1,1,low,112,1.16,70,1.41,112,1.19,Yes,quiteSure,hit,3.172297954559326,NA
33,6dg8k!1,False,18,2,equal,ST2_high_3_a2,P = T1?,Same,2,2,high,70,1.79,96,1.19,96,1.24,Yes,quiteSure,fa,1.463526725769043,NA
34,6dg8k!1,False,19,2,equal,ST1_low_6_a2,P = T1?,Same,1,2,low,154,0.72,96,1.27,154,0.71,Yes,quiteSure,hit,1.2638578414916992,NA
35,6dg8k!1,False,20,2,equal,ST2_high_2_a1,P = T1?,Same,2,1,high,112,0.97,82,1.54,82,1.33,No,quiteSure,cr,2.0500736236572266,NA
36,6dg8k!1,False,21,2,equal,ST2_high_3_a2,P = T2?,Same,2,2,high,70,1.52,96,1.26,96,1.37,Yes,quiteSure,hit,3.1267919540405273,NA
37,6dg8k!1,False,22,2,equal,STb_4_a1,P = T1?,Same,0,1,None,96,1.23,96,1.28,96,1.12,Yes,quiteSure,hit,2.678266763687134,NA
38,6dg8k!1,False,23,2,equal,ST2_high_2_a2,P = T1?,Same,2,2,high,112,1.15,82,1.6,82,1.26,Yes,quiteSure,fa,2.6128578186035156,NA
39,6dg8k!1,False,24,2,equal,ST2_high_2_a2,P = T2?,Same,2,2,high,112,1.11,82,1.55,82,1.5,Yes,quiteSure,hit,1.8695099353790283,NA
40,6dg8k!1,False,25,2,equal,DT2_low_4_a2,P = T2?,Different,2,2,low,112,1.22,70,1.79,60,1.96,Yes,quiteSure,hit,1.4198157787322998,NA
41,6dg8k!1,False,26,2,equal,ST1_high_6_a1,P = T1?,Same,1,1,high,132,0.98,96,1.11,132,1.02,No,quiteSure,miss,2.632606029510498,NA
42,6dg8k!1,False,27,2,equal,ST2_high_6_a2,P = T1?,Same,2,2,high,132,0.99,96,1.22,96,1.41,No,quiteSure,cr,2.4964659214019775,NA
43,6dg8k!1,False,28,2,equal,ST1_low_3_a1,P = T2?,Same,1,1,low,70,1.46,112,1.09,70,1.7,Yes,quiteSure,fa,2.1338350772857666,NA
44,6dg8k!1,False,29,2,equal,ST1_high_6_a2,P = T1?,Same,1,2,high,132,0.89,96,1.25,132,0.99,No,quiteSure,miss,3.7842841148376465,NA
45,6dg8k!1,False,30,2,equal,ST2_high_1_a2,P = T2?,Same,2,2,high,82,1.51,112,1.11,112,0.94,Yes,quiteSure,hit,3.917630195617676,NA
46,6dg8k!1,False,31,2,equal,DT2_low_6_a2,P = T1?,Different,2,2,low,154,0.9,96,1.12,82,1.4,No,quiteSure,cr,2.02746319770813,NA
47,6dg8k!1,False,32,2,equal,ST1_low_4_a1,P = T1?,Same,1,1,low,112,1.11,70,1.73,112,1.09,No,quiteSure,miss,1.1237821578979492,NA
48,6dg8k!1,False,33,2,equal,ST1_low_1_a2,P = T2?,Same,1,2,low,82,1.61,132,1.03,82,1.63,No,quiteSure,cr,1.3279130458831787,NA
49,6dg8k!1,False,34,2,equal,ST1_low_5_a2,P = T2?,Same,1,2,low,96,1.36,154,0.93,96,1.32,No,quiteSure,cr,4.205524921417236,NA
50,6dg8k!1,False,35,2,equal,ST2_low_3_a1,P = T1?,Same,2,1,low,70,1.44,112,1.19,112,1.2,Yes,quiteSure,fa,4.119341135025024,NA
51,6dg8k!1,False,36,2,equal,ST1_low_3_a2,P = T2?,Same,1,2,low,70,1.75,112,0.97,70,1.6,Yes,quiteSure,fa,1.5548100471496582,NA
52,6dg8k!1,False,37,2,equal,ST2_high_4_a1,P = T1?,Same,2,1,high,96,1.12,70,1.78,70,1.57,No,quiteSure,cr,2.2506821155548096,NA
53,6dg8k!1,False,38,2,equal,ST2_high_6_a1,P = T2?,Same,2,1,high,132,1.0,96,1.34,96,1.31,Yes,quiteSure,hit,1.8237881660461426,NA
54,6dg8k!1,False,39,2,equal,ST2_low_4_a2,P = T2?,Same,2,2,low,112,1.02,70,1.33,70,1.61,Yes,quiteSure,hit,1.7807738780975342,NA
55,6dg8k!1,False,40,2,equal,ST1_low_6_a1,P = T1?,Same,1,1,low,154,0.96,96,1.08,154,0.94,Yes,quiteSure,hit,1.5522160530090332,NA
56,6dg8k!1,False,41,2,equal,ST2_high_6_a1,P = T1?,Same,2,1,high,132,1.0,96,1.19,96,1.13,No,quiteSure,cr,2.2736289501190186,NA
57,6dg8k!1,False,42,2,equal,ST1_high_5_a1,P = T2?,Same,1,1,high,96,1.25,132,0.89,96,1.18,Yes,quiteSure,fa,1.6683459281921387,NA
58,6dg8k!1,False,43,2,equal,STb_4_a2,P = T2?,Same,0,2,None,96,1.34,96,1.35,96,1.33,No,quiteSure,miss,2.6773221492767334,NA
59,6dg8k!1,False,44,2,equal,ST1_high_5_a2,P = T1?,Same,1,2,high,96,1.14,132,0.76,96,1.23,Yes,quiteSure,hit,7.869773864746094,NA
60,6dg8k!1,False,45,2,equal,ST2_high_4_a2,P = T1?,Same,2,2,high,96,1.37,70,1.78,70,1.77,No,quiteSure,cr,2.4317378997802734,NA
61,6dg8k!1,False,46,2,equal,ST2_high_3_a1,P = T1?,Same,2,1,high,70,1.85,96,1.23,96,1.09,No,quiteSure,cr,2.1110401153564453,NA
62,6dg8k!1,False,47,2,equal,ST1_low_6_a2,P = T2?,Same,1,2,low,154,0.81,96,1.24,154,0.91,Yes,quiteSure,fa,2.722165107727051,NA
63,6dg8k!1,False,48,2,equal,ST2_high_5_a2,P = T1?,Same,2,2,high,96,1.15,132,1.01,132,1.0,Yes,quiteSure,fa,2.0074551105499268,NA
64,6dg8k!1,False,49,2,equal,ST2_low_4_a2,P = T2?,Same,2,2,low,112,1.1,70,1.65,70,1.81,Yes,sure,hit,1.572793960571289,NA
65,6dg8k!1,False,50,2,equal,ST1_low_4_a1,P = T2?,Same,1,1,low,112,1.0,70,1.6,112,1.12,No,quiteSure,cr,1.8048882484436035,NA
66,6dg8k!1,False,51,2,equal,ST1_low_3_a2,P = T2?,Same,1,2,low,70,1.68,112,1.22,70,1.49,No,quiteSure,cr,3.980994939804077,NA
67,6dg8k!1,False,52,2,equal,ST1_high_2_a2,P = T1?,Same,1,2,high,112,1.03,82,1.48,112,1.21,Yes,quiteSure,hit,1.439668893814087,NA
68,6dg8k!1,False,53,2,equal,ST1_high_4_a1,P = T1?,Same,1,1,high,96,1.42,70,1.84,96,1.36,Yes,quiteSure,hit,1.8230810165405273,NA
69,6dg8k!1,False,54,2,equal,ST2_low_4_a2,P = T2?,Same,2,2,low,112,0.96,70,1.78,70,1.48,Yes,quiteSure,hit,1.1476759910583496,NA
70,6dg8k!1,False,55,2,equal,ST1_high_3_a2,P = T2?,Same,1,2,high,70,1.63,96,1.4,70,1.52,Yes,quiteSure,fa,1.5988540649414062,NA
71,6dg8k!1,False,56,2,equal,ST1_low_3_a1,P = T1?,Same,1,1,low,70,1.46,112,1.11,70,1.43,Yes,quiteSure,hit,3.0587260723114014,NA
72,6dg8k!1,False,57,2,equal,ST1_low_5_a2,P = T2?,Same,1,2,low,96,1.41,154,0.85,96,1.35,Yes,quiteSure,fa,4.07189679145813,NA
73,6dg8k!1,False,58,2,equal,ST1_high_6_a2,P = T1?,Same,1,2,high,132,0.86,96,1.41,132,0.97,Yes,quiteSure,hit,0.941241979598999,NA
74,6dg8k!1,False,59,2,equal,ST2_low_5_a1,P = T1?,Same,2,1,low,96,1.33,154,0.9,154,0.81,No,quiteSure,cr,1.8264830112457275,NA
75,6dg8k!1,False,60,2,equal,ST2_low_2_a2,P = T1?,Same,2,2,low,132,0.96,82,1.61,82,1.35,No,quiteSure,cr,1.6439290046691895,NA
76,6dg8k!1,False,61,2,equal,ST1_high_4_a2,P = T1?,Same,1,2,high,96,1.06,70,1.52,96,1.25,Yes,quiteSure,hit,1.6227822303771973,NA
77,6dg8k!1,False,62,2,equal,ST1_low_2_a2,P = T2?,Same,1,2,low,132,0.82,82,1.55,132,0.97,No,quiteSure,cr,1.9619948863983154,NA
78,6dg8k!1,False,63,2,equal,ST1_high_1_a1,P = T1?,Same,1,1,high,82,1.49,112,1.07,82,1.5,No,quiteSure,miss,1.192770004272461,NA
79,6dg8k!1,False,64,2,equal,ST2_high_5_a2,P = T2?,Same,2,2,high,96,1.21,132,0.8,132,0.8,Yes,quiteSure,hit,2.7442808151245117,NA
80,6dg8k!1,False,65,2,equal,ST2_low_3_a2,P = T1?,Same,2,2,low,70,1.79,112,1.0,112,0.97,Yes,quiteSure,fa,1.4518659114837646,NA
81,6dg8k!1,False,66,2,equal,ST1_high_5_a2,P = T2?,Same,1,2,high,96,1.25,132,1.01,96,1.26,No,quiteSure,cr,1.7044956684112549,NA
82,6dg8k!1,False,67,2,equal,ST2_low_4_a1,P = T1?,Same,2,1,low,112,1.18,70,1.79,70,1.84,No,quiteSure,cr,1.7526838779449463,NA
83,6dg8k!1,False,68,2,equal,DT1_high_4_a2,P = T1?,Different,1,2,high,96,1.21,70,1.44,112,0.99,Yes,quiteSure,hit,1.532580852508545,NA
84,6dg8k!1,False,69,2,equal,ST2_low_2_a1,P = T2?,Same,2,1,low,132,0.82,82,1.54,82,1.22,Yes,quiteSure,hit,2.431534767150879,NA
85,6dg8k!1,False,70,2,equal,ST1_high_5_a1,P = T1?,Same,1,1,high,96,1.27,132,1.01,96,1.15,Yes,quiteSure,hit,2.092106819152832,NA
86,6dg8k!1,False,71,2,equal,ST1_high_6_a1,P = T1?,Same,1,1,high,132,0.88,96,1.21,132,0.97,Yes,quiteSure,hit,5.3530192375183105,NA
87,6dg8k!1,False,72,2,equal,ST2_low_6_a2,P = T1?,Same,2,2,low,154,0.75,96,1.31,96,1.42,No,quiteSure,cr,4.322150230407715,NA
88,6dg8k!1,False,73,2,equal,ST2_low_6_a1,P = T1?,Same,2,1,low,154,0.75,96,1.34,96,1.4,No,quiteSure,cr,2.1837947368621826,NA
89,6dg8k!1,False,74,2,equal,ST2_low_6_a1,P = T2?,Same,2,1,low,154,0.85,96,1.34,96,1.43,Yes,quiteSure,hit,0.9286019802093506,NA
90,6dg8k!1,False,75,2,equal,ST1_high_1_a1,P = T1?,Same,1,1,high,82,1.36,112,0.92,82,1.44,Yes,quiteSure,hit,1.5995678901672363,NA
91,6dg8k!1,False,76,2,equal,ST1_low_3_a1,P = T2?,Same,1,1,low,70,1.65,112,1.02,70,1.75,Yes,quiteSure,fa,0.8325691223144531,NA
92,6dg8k!1,False,77,2,equal,ST2_low_2_a1,P = T1?,Same,2,1,low,132,0.8,82,1.32,82,1.36,No,quiteSure,cr,1.6443159580230713,NA
93,6dg8k!1,False,78,2,equal,DT2_high_5_a2,P = T2?,Different,2,2,high,96,1.22,132,0.81,154,0.82,No,quiteSure,miss,1.6860370635986328,NA
94,6dg8k!1,False,79,2,equal,ST1_high_1_a2,P = T2?,Same,1,2,high,82,1.42,112,1.04,82,1.33,Yes,quiteSure,fa,4.257426977157593,NA
95,6dg8k!1,False,80,2,equal,ST2_low_5_a2,P = T2?,Same,2,2,low,96,1.32,154,0.78,154,0.85,No,quiteSure,miss,3.1958401203155518,NA
96,6dg8k!1,False,81,2,equal,ST2_high_4_a2,P = T1?,Same,2,2,high,96,1.07,70,1.39,70,1.76,Yes,quiteSure,fa,2.1860573291778564,NA
97,6dg8k!1,False,82,2,equal,ST1_high_1_a2,P = T1?,Same,1,2,high,82,1.49,112,1.11,82,1.4,Yes,quiteSure,hit,1.4842700958251953,NA
98,6dg8k!1,False,83,2,equal,ST1_low_1_a2,P = T1?,Same,1,2,low,82,1.34,132,0.93,82,1.51,Yes,quiteSure,hit,1.3495700359344482,NA
99,6dg8k!1,False,84,2,equal,ST1_high_4_a1,P = T2?,Same,1,1,high,96,1.11,70,1.78,96,1.06,Yes,quiteSure,fa,0.6330292224884033,NA
100,6dg8k!1,False,85,2,equal,DT1_low_5_a2,P = T1?,Different,1,2,low,96,1.1,154,0.92,82,1.31,Yes,quiteSure,hit,1.5481538772583008,NA
101,6dg8k!1,False,86,2,equal,ST2_high_2_a2,P = T1?,Same,2,2,high,112,0.91,82,1.39,82,1.58,Yes,quiteSure,fa,3.239604949951172,NA
102,6dg8k!1,False,87,2,equal,ST1_high_2_a1,P = T2?,Same,1,1,high,112,0.93,82,1.27,112,1.2,Yes,quiteSure,fa,3.0167031288146973,NA
103,6dg8k!1,False,88,2,equal,ST1_high_3_a1,P = T1?,Same,1,1,high,70,1.41,96,1.36,70,1.58,No,quiteSure,miss,10.962805032730103,NA
104,6dg8k!1,False,89,2,equal,ST2_high_5_a1,P = T1?,Same,2,1,high,96,1.26,132,1.0,132,0.85,No,quiteSure,cr,1.9332427978515625,NA
105,6dg8k!1,False,90,2,equal,ST1_low_1_a1,P = T1?,Same,1,1,low,82,1.34,132,0.86,82,1.44,Yes,quiteSure,hit,7.49315619468689,NA
106,6dg8k!1,False,91,2,equal,ST2_low_2_a1,P = T2?,Same,2,1,low,132,0.87,82,1.45,82,1.27,Yes,quiteSure,hit,4.45481014251709,NA
107,6dg8k!1,False,92,2,equal,ST1_high_1_a2,P = T2?,Same,1,2,high,82,1.5,112,0.98,82,1.57,Yes,quiteSure,fa,4.992224931716919,NA
108,6dg8k!1,False,93,2,equal,DT1_high_2_a2,P = T2?,Different,1,2,high,112,1.13,82,1.45,132,0.96,Yes,quiteSure,fa,4.451900959014893,NA
109,6dg8k!1,False,94,2,equal,ST1_low_5_a1,P = T2?,Same,1,1,low,96,1.12,154,0.89,96,1.37,Yes,quiteSure,fa,1.3500897884368896,NA
110,6dg8k!1,False,95,2,equal,ST1_low_3_a2,P = T1?,Same,1,2,low,70,1.69,112,1.01,70,1.44,Yes,quiteSure,hit,1.8895618915557861,NA
111,6dg8k!1,False,96,2,equal,ST1_high_5_a2,P = T2?,Same,1,2,high,96,1.41,132,1.05,96,1.09,Yes,quiteSure,fa,1.7346611022949219,NA
112,6dg8k!1,False,97,2,equal,STb_7_a2,P = T1?,Same,0,2,None,154,0.76,154,0.84,154,0.74,Yes,quiteSure,hit,2.314725875854492,NA
113,6dg8k!1,False,98,2,equal,ST2_high_1_a2,P = T1?,Same,2,2,high,82,1.25,112,1.2,112,1.01,No,quiteSure,cr,1.6408777236938477,NA
114,6dg8k!1,False,99,2,equal,ST2_low_4_a1,P = T2?,Same,2,1,low,112,1.0,70,1.42,70,1.57,Yes,quiteSure,hit,1.5284578800201416,NA
115,6dg8k!1,False,100,2,equal,STb_1_a1,P = T2?,Same,0,1,None,60,1.75,60,1.8,60,1.87,Yes,quiteSure,hit,1.4644269943237305,NA
116,6dg8k!1,False,101,2,equal,ST1_high_5_a1,P = T2?,Same,1,1,high,96,1.07,132,0.83,96,1.34,Yes,quiteSure,fa,1.557197093963623,NA
117,6dg8k!1,False,102,2,equal,ST2_high_4_a2,P = T2?,Same,2,2,high,96,1.2,70,1.75,70,1.38,Yes,quiteSure,hit,1.8938860893249512,NA
118,6dg8k!1,False,103,2,equal,ST2_high_3_a2,P = T2?,Same,2,2,high,70,1.77,96,1.21,96,1.16,Yes,quiteSure,hit,1.5261766910552979,NA
119,6dg8k!1,False,104,2,equal,ST2_low_5_a1,P = T1?,Same,2,1,low,96,1.13,154,0.95,154,0.8,No,quiteSure,cr,1.348174810409546,NA
120,6dg8k!1,False,105,2,equal,ST1_high_4_a2,P = T1?,Same,1,2,high,96,1.17,70,1.53,96,1.06,Yes,quiteSure,hit,3.8834547996520996,NA
121,6dg8k!1,False,106,2,equal,STb_5_a1,P = T1?,Same,0,1,None,112,1.2,112,1.19,112,1.16,Yes,quiteSure,hit,1.3093500137329102,NA
122,6dg8k!1,False,107,2,equal,ST2_low_6_a1,P = T1?,Same,2,1,low,154,0.94,96,1.07,96,1.09,No,quiteSure,cr,1.5498790740966797,NA
123,6dg8k!1,False,108,2,equal,ST1_high_4_a2,P = T2?,Same,1,2,high,96,1.4,70,1.65,96,1.25,Yes,quiteSure,fa,1.4180541038513184,NA
124,6dg8k!1,False,109,2,equal,ST2_high_5_a2,P = T2?,Same,2,2,high,96,1.12,132,0.96,132,0.93,Yes,quiteSure,hit,2.183055877685547,NA
125,6dg8k!1,False,110,2,equal,ST2_low_2_a2,P = T2?,Same,2,2,low,132,0.86,82,1.43,82,1.6,Yes,quiteSure,hit,1.2576119899749756,NA
126,6dg8k!1,False,111,2,equal,ST2_low_1_a1,P = T2?,Same,2,1,low,82,1.42,132,1.02,132,0.93,Yes,quiteSure,hit,1.8270959854125977,NA
127,6dg8k!1,False,112,2,equal,ST2_high_6_a1,P = T1?,Same,2,1,high,132,1.05,96,1.24,96,1.38,No,quiteSure,cr,1.5776278972625732,NA
128,6dg8k!1,False,113,2,equal,ST1_high_6_a1,P = T1?,Same,1,1,high,132,1.0,96,1.22,132,1.04,Yes,quiteSure,hit,1.373722791671753,NA
129,6dg8k!1,False,114,2,equal,ST1_low_2_a1,P = T2?,Same,1,1,low,132,0.82,82,1.44,132,0.96,Yes,quiteSure,fa,1.976902961730957,NA
130,6dg8k!1,False,115,2,equal,ST1_high_3_a1,P = T2?,Same,1,1,high,70,1.5,96,1.29,70,1.62,No,quiteSure,cr,1.6608901023864746,NA
131,6dg8k!1,False,116,2,equal,ST2_high_2_a1,P = T1?,Same,2,1,high,112,1.03,82,1.44,82,1.32,No,quiteSure,cr,3.5001437664031982,NA
132,6dg8k!1,False,117,2,equal,ST2_high_1_a1,P = T1?,Same,2,1,high,82,1.55,112,1.11,112,1.06,No,quiteSure,cr,2.002890110015869,NA
133,6dg8k!1,False,118,2,equal,ST1_low_3_a1,P = T2?,Same,1,1,low,70,1.75,112,1.19,70,1.44,No,quiteSure,cr,2.970745086669922,NA
134,6dg8k!1,False,119,2,equal,STb_6_a1,P = T1?,Same,0,1,None,132,0.77,132,0.88,132,0.88,No,quiteSure,miss,1.1691839694976807,NA
135,6dg8k!1,False,120,2,equal,ST1_low_6_a1,P = T2?,Same,1,1,low,154,0.94,96,1.4,154,0.92,No,quiteSure,cr,1.6410760879516602,NA
136,6dg8k!1,False,121,2,equal,ST1_high_5_a2,P = T1?,Same,1,2,high,96,1.23,132,1.02,96,1.07,No,quiteSure,miss,2.9944260120391846,NA
137,6dg8k!1,False,122,2,equal,ST1_high_4_a1,P = T1?,Same,1,1,high,96,1.22,70,1.48,96,1.43,No,quiteSure,miss,6.4555840492248535,NA
138,6dg8k!1,False,123,2,equal,ST2_low_2_a2,P = T1?,Same,2,2,low,132,0.83,82,1.22,82,1.59,No,quiteSure,cr,1.730672836303711,NA
139,6dg8k!1,False,124,2,equal,ST1_low_2_a2,P = T2?,Same,1,2,low,132,0.88,82,1.29,132,0.88,No,quiteSure,cr,1.7587671279907227,NA
140,6dg8k!1,False,125,2,equal,ST1_high_6_a1,P = T2?,Same,1,1,high,132,0.94,96,1.34,132,1.0,Yes,quiteSure,fa,1.4162230491638184,NA
141,6dg8k!1,False,126,2,equal,ST1_low_2_a2,P = T1?,Same,1,2,low,132,0.8,82,1.3,132,0.82,Yes,quiteSure,hit,2.0505731105804443,NA
142,6dg8k!1,False,127,2,equal,ST2_low_3_a2,P = T1?,Same,2,2,low,70,1.85,112,1.09,112,0.93,No,quiteSure,cr,8.278840780258179,NA
143,6dg8k!1,False,128,2,equal,ST1_high_3_a2,P = T2?,Same,1,2,high,70,1.64,96,1.43,70,1.62,Yes,quiteSure,fa,7.5612499713897705,NA
144,6dg8k!1,False,129,2,equal,ST2_low_5_a1,P = T2?,Same,2,1,low,96,1.19,154,0.8,154,0.95,Yes,quiteSure,hit,2.4997167587280273,NA
145,6dg8k!1,False,130,2,equal,ST2_low_5_a1,P = T1?,Same,2,1,low,96,1.26,154,0.94,154,0.93,No,quiteSure,cr,2.050673246383667,NA
146,6dg8k!1,False,131,2,equal,ST2_high_5_a2,P = T2?,Same,2,2,high,96,1.12,132,1.06,132,0.8,Yes,quiteSure,hit,3.173491954803467,NA
147,6dg8k!1,False,132,2,equal,ST2_high_1_a1,P = T1?,Same,2,1,high,82,1.39,112,1.16,112,1.21,No,quiteSure,cr,1.443512201309204,NA
148,6dg8k!1,False,133,2,equal,ST2_high_1_a2,P = T1?,Same,2,2,high,82,1.4,112,0.93,112,1.04,No,quiteSure,cr,2.540456771850586,NA
149,6dg8k!1,False,134,2,equal,ST2_low_1_a2,P = T2?,Same,2,2,low,82,1.54,132,0.8,132,1.01,Yes,quiteSure,hit,1.8223938941955566,NA
150,6dg8k!1,False,135,2,equal,ST2_low_5_a2,P = T1?,Same,2,2,low,96,1.38,154,0.83,154,0.94,No,quiteSure,cr,1.4642088413238525,NA
151,6dg8k!1,False,136,2,equal,ST1_high_1_a2,P = T2?,Same,1,2,high,82,1.53,112,1.19,82,1.32,Yes,quiteSure,fa,2.293087959289551,NA
152,6dg8k!1,False,137,2,equal,ST2_low_3_a1,P = T2?,Same,2,1,low,70,1.77,112,0.96,112,1.19,Yes,quiteSure,hit,1.2141928672790527,NA
153,6dg8k!1,False,138,2,equal,ST1_high_5_a1,P = T2?,Same,1,1,high,96,1.19,132,1.04,96,1.27,Yes,quiteSure,fa,7.7358949184417725,NA
154,6dg8k!1,False,139,2,equal,ST2_high_4_a2,P = T2?,Same,2,2,high,96,1.12,70,1.54,70,1.6,Yes,quiteSure,hit,1.3518898487091064,NA
155,6dg8k!1,False,140,2,equal,ST2_high_6_a2,P = T1?,Same,2,2,high,132,0.81,96,1.36,96,1.24,Yes,quiteSure,fa,1.572441816329956,NA
156,6dg8k!1,False,141,2,equal,ST1_high_3_a1,P = T2?,Same,1,1,high,70,1.68,96,1.34,70,1.58,Yes,quiteSure,fa,1.1927988529205322,NA
157,6dg8k!1,False,142,2,equal,ST2_high_1_a2,P = T2?,Same,2,2,high,82,1.38,112,1.11,112,1.01,Yes,quiteSure,hit,1.3251912593841553,NA
158,6dg8k!1,False,143,2,equal,ST2_low_5_a2,P = T2?,Same,2,2,low,96,1.34,154,0.87,154,0.79,Yes,quiteSure,hit,2.0891339778900146,NA
159,6dg8k!1,False,144,2,equal,ST1_high_2_a1,P = T1?,Same,1,1,high,112,0.94,82,1.33,112,0.99,Yes,quiteSure,hit,1.4641661643981934,NA
160,6dg8k!1,False,145,2,equal,ST1_high_4_a1,P = T2?,Same,1,1,high,96,1.13,70,1.59,96,1.13,Yes,quiteSure,fa,2.1390678882598877,NA
161,6dg8k!1,False,146,2,equal,ST1_low_5_a2,P = T1?,Same,1,2,low,96,1.18,154,0.75,96,1.38,Yes,quiteSure,hit,1.415215253829956,NA
162,6dg8k!1,False,147,2,equal,ST2_high_4_a1,P = T2?,Same,2,1,high,96,1.09,70,1.69,70,1.52,Yes,quiteSure,hit,1.1969406604766846,NA
163,6dg8k!1,False,148,2,equal,ST1_high_6_a2,P = T2?,Same,1,2,high,132,0.94,96,1.11,132,0.93,No,quiteSure,cr,2.4541430473327637,NA
164,6dg8k!1,False,149,2,equal,STb_3_a1,P = T2?,Same,0,1,None,82,1.57,82,1.26,82,1.38,Yes,quiteSure,hit,1.3101468086242676,NA
165,6dg8k!1,False,150,2,equal,ST2_low_4_a1,P = T2?,Same,2,1,low,112,0.93,70,1.38,70,1.52,Yes,quiteSure,hit,1.4610202312469482,NA
166,6dg8k!1,False,151,2,equal,DT1_high_6_a1,P = T1?,Different,1,1,high,132,0.81,96,1.31,154,0.8,No,quiteSure,miss,1.9992568492889404,NA
167,6dg8k!1,False,152,2,equal,ST1_low_1_a2,P = T2?,Same,1,2,low,82,1.46,132,0.98,82,1.41,Yes,quiteSure,fa,1.6491010189056396,NA
168,6dg8k!1,False,153,2,equal,ST2_low_6_a2,P = T1?,Same,2,2,low,154,0.71,96,1.37,96,1.29,No,quiteSure,cr,2.364021062850952,NA
169,6dg8k!1,False,154,2,equal,ST1_low_5_a1,P = T1?,Same,1,1,low,96,1.32,154,0.77,96,1.31,Yes,quiteSure,hit,1.4631450176239014,NA
170,6dg8k!1,False,155,2,equal,ST1_high_1_a1,P = T2?,Same,1,1,high,82,1.57,112,0.93,82,1.46,Yes,quiteSure,fa,2.3201210498809814,NA
171,6dg8k!1,False,156,2,equal,ST2_low_1_a1,P = T2?,Same,2,1,low,82,1.62,132,0.92,132,0.96,Yes,quiteSure,hit,3.426697015762329,NA
172,6dg8k!1,False,157,2,equal,ST1_high_4_a1,P = T2?,Same,1,1,high,96,1.1,70,1.62,96,1.23,No,quiteSure,cr,1.716064691543579,NA
173,6dg8k!1,False,158,2,equal,ST2_high_5_a1,P = T1?,Same,2,1,high,96,1.25,132,1.05,132,0.86,Yes,quiteSure,fa,1.755127191543579,NA
174,6dg8k!1,False,159,2,equal,ST2_low_3_a2,P = T2?,Same,2,2,low,70,1.56,112,0.92,112,1.06,Yes,quiteSure,hit,1.845259189605713,NA
175,6dg8k!1,False,160,2,equal,STb_1_a1,P = T1?,Same,0,1,None,60,1.53,60,1.67,60,2.02,Yes,quiteSure,hit,1.2382678985595703,NA
176,6dg8k!1,False,161,2,equal,ST1_high_2_a2,P = T1?,Same,1,2,high,112,0.95,82,1.38,112,0.98,Yes,quiteSure,hit,1.399172067642212,NA
177,6dg8k!1,False,162,2,equal,ST1_low_1_a1,P = T2?,Same,1,1,low,82,1.53,132,0.98,82,1.5,Yes,quiteSure,fa,0.6114521026611328,NA
178,6dg8k!1,False,163,2,equal,ST2_low_6_a2,P = T2?,Same,2,2,low,154,0.79,96,1.19,96,1.23,Yes,quiteSure,hit,0.9919288158416748,NA
179,6dg8k!1,False,164,2,equal,ST2_low_4_a2,P = T1?,Same,2,2,low,112,1.06,70,1.75,70,1.75,No,quiteSure,cr,1.1936681270599365,NA
180,6dg8k!1,False,165,2,equal,STb_8_a1,P = T1?,Same,0,1,None,180,0.91,180,0.83,180,0.74,Yes,quiteSure,hit,1.5937049388885498,NA
181,6dg8k!1,False,166,2,equal,ST2_high_4_a1,P = T1?,Same,2,1,high,96,1.33,70,1.55,70,1.67,Yes,quiteSure,fa,1.0353212356567383,NA
182,6dg8k!1,False,167,2,equal,ST1_high_1_a2,P = T1?,Same,1,2,high,82,1.24,112,1.02,82,1.38,Yes,quiteSure,hit,0.9888529777526855,NA
183,6dg8k!1,False,168,2,equal,ST2_low_1_a2,P = T1?,Same,2,2,low,82,1.22,132,0.82,132,0.91,Yes,quiteSure,fa,1.1078310012817383,NA
184,6dg8k!1,False,169,2,equal,ST1_low_4_a1,P = T1?,Same,1,1,low,112,0.96,70,1.38,112,1.05,Yes,quiteSure,hit,1.17159104347229,NA
185,6dg8k!1,False,170,2,equal,ST1_low_6_a1,P = T1?,Same,1,1,low,154,0.73,96,1.38,154,0.85,Yes,quiteSure,hit,0.8732941150665283,NA
186,6dg8k!1,False,171,2,equal,ST1_low_3_a1,P = T1?,Same,1,1,low,70,1.78,112,1.04,70,1.54,Yes,quiteSure,hit,0.36519503593444824,NA
187,6dg8k!1,False,172,2,equal,ST2_high_5_a1,P = T1?,Same,2,1,high,96,1.21,132,1.02,132,1.09,No,quiteSure,cr,1.534466028213501,NA
188,6dg8k!1,False,173,2,equal,STb_8_a2,P = T2?,Same,0,2,None,180,0.92,180,0.71,180,0.73,Yes,quiteSure,hit,1.0128300189971924,NA
189,6dg8k!1,False,174,2,equal,ST1_low_5_a2,P = T2?,Same,1,2,low,96,1.37,154,0.72,96,1.23,Yes,quiteSure,fa,1.0762417316436768,NA
190,6dg8k!1,False,175,2,equal,ST1_low_4_a2,P = T1?,Same,1,2,low,112,1.1,70,1.68,112,1.06,No,quiteSure,miss,2.5651490688323975,NA
191,6dg8k!1,False,176,2,equal,ST1_low_6_a1,P = T2?,Same,1,1,low,154,0.87,96,1.07,154,0.93,Yes,quiteSure,fa,2.973456859588623,NA
192,6dg8k!1,False,177,2,equal,ST1_low_6_a2,P = T1?,Same,1,2,low,154,0.9,96,1.17,154,0.88,Yes,quiteSure,hit,5.917643785476685,NA
193,6dg8k!1,False,178,2,equal,ST2_high_3_a2,P = T2?,Same,2,2,high,70,1.72,96,1.23,96,1.19,Yes,quiteSure,hit,2.9589741230010986,NA
194,6dg8k!1,False,179,2,equal,ST1_low_1_a2,P = T1?,Same,1,2,low,82,1.44,132,0.81,82,1.34,Yes,quiteSure,hit,2.9468600749969482,NA
195,6dg8k!1,False,180,2,equal,ST2_low_3_a2,P = T2?,Same,2,2,low,70,1.6,112,1.17,112,1.15,Yes,quiteSure,hit,2.4290778636932373,NA
196,6dg8k!1,False,181,2,equal,ST2_low_6_a1,P = T1?,Same,2,1,low,154,0.81,96,1.41,96,1.41,Yes,quiteSure,fa,2.948920965194702,NA
197,6dg8k!1,False,182,2,equal,ST2_high_5_a1,P = T2?,Same,2,1,high,96,1.24,132,0.82,132,1.0,Yes,quiteSure,hit,2.4353392124176025,NA
198,6dg8k!1,False,183,2,equal,ST2_high_1_a2,P = T1?,Same,2,2,high,82,1.54,112,1.12,112,0.94,Yes,quiteSure,fa,1.1029589176177979,NA
199,6dg8k!1,False,184,2,equal,STb_1_a2,P = T2?,Same,0,2,None,60,1.81,60,1.76,60,1.74,Yes,unsure,hit,1.1531271934509277,NA
200,6dg8k!1,False,185,2,equal,ST2_low_1_a1,P = T2?,Same,2,1,low,82,1.36,132,0.83,132,0.93,Yes,quiteSure,hit,2.2925477027893066,NA
201,6dg8k!1,False,186,2,equal,ST2_low_1_a1,P = T1?,Same,2,1,low,82,1.43,132,0.92,132,0.9,No,quiteSure,cr,1.9137871265411377,NA
202,6dg8k!1,False,187,2,equal,ST2_low_3_a1,P = T1?,Same,2,1,low,70,1.77,112,1.08,112,0.93,Yes,quiteSure,fa,1.7298998832702637,NA
203,6dg8k!1,False,188,2,equal,ST2_high_4_a1,P = T2?,Same,2,1,high,96,1.21,70,1.38,70,1.84,Yes,quiteSure,hit,1.3940269947052002,NA
204,6dg8k!1,False,189,2,equal,ST2_low_5_a2,P = T1?,Same,2,2,low,96,1.36,154,0.85,154,0.73,No,quiteSure,cr,1.3717758655548096,NA
205,6dg8k!1,False,190,2,equal,ST2_low_6_a2,P = T2?,Same,2,2,low,154,0.96,96,1.29,96,1.34,Yes,quiteSure,hit,1.1943778991699219,NA
206,6dg8k!1,False,191,2,equal,ST1_high_6_a1,P = T2?,Same,1,1,high,132,1.0,96,1.2,132,0.98,Yes,quiteSure,fa,4.232308387756348,NA
207,6dg8k!1,False,192,2,equal,ST2_low_6_a2,P = T1?,Same,2,2,low,154,0.76,96,1.32,96,1.09,Yes,quiteSure,fa,7.764585971832275,NA
208,6dg8k!1,False,193,2,equal,ST2_low_3_a2,P = T1?,Same,2,2,low,70,1.72,112,1.17,112,1.02,No,quiteSure,cr,1.4841930866241455,NA
209,6dg8k!1,False,194,2,equal,ST2_low_2_a2,P = T1?,Same,2,2,low,132,0.93,82,1.22,82,1.29,Yes,quiteSure,fa,1.887389898300171,NA
210,6dg8k!1,False,195,2,equal,ST1_low_3_a1,P = T1?,Same,1,1,low,70,1.77,112,1.17,70,1.38,No,quiteSure,miss,2.474116086959839,NA
211,6dg8k!1,False,196,2,equal,STb_5_a1,P = T2?,Same,0,1,None,112,0.96,112,0.93,112,1.2,Yes,quiteSure,hit,2.2680459022521973,NA
212,6dg8k!1,False,197,2,equal,ST2_high_1_a1,P = T1?,Same,2,1,high,82,1.28,112,1.02,112,1.03,No,quiteSure,cr,3.012610912322998,NA
213,6dg8k!1,False,198,2,equal,ST1_high_6_a2,P = T2?,Same,1,2,high,132,1.03,96,1.38,132,1.02,No,quiteSure,cr,8.773175954818726,NA
214,6dg8k!1,False,199,2,equal,ST1_low_1_a2,P = T2?,Same,1,2,low,82,1.49,132,0.92,82,1.24,No,quiteSure,cr,2.9472219944000244,NA
215,6dg8k!1,False,200,2,equal,ST1_low_4_a2,P = T1?,Same,1,2,low,112,0.95,70,1.53,112,1.07,No,quiteSure,miss,4.0071821212768555,NA
216,6dg8k!1,False,201,2,equal,ST2_high_4_a1,P = T1?,Same,2,1,high,96,1.14,70,1.81,70,1.76,No,quiteSure,cr,2.8820078372955322,NA
217,6dg8k!1,False,202,2,equal,ST1_high_3_a1,P = T1?,Same,1,1,high,70,1.71,96,1.22,70,1.62,Yes,quiteSure,hit,2.966984272003174,NA
218,6dg8k!1,False,203,2,equal,ST2_low_4_a2,P = T1?,Same,2,2,low,112,1.23,70,1.51,70,1.74,No,quiteSure,cr,3.149275064468384,NA
219,6dg8k!1,False,204,2,equal,ST2_low_4_a1,P = T1?,Same,2,1,low,112,0.94,70,1.79,70,1.75,Yes,quiteSure,fa,5.559138059616089,NA
220,6dg8k!1,False,205,2,equal,ST2_high_5_a1,P = T2?,Same,2,1,high,96,1.18,132,0.94,132,0.99,Yes,quiteSure,hit,3.684391736984253,NA
221,6dg8k!1,False,206,2,equal,STb_2_a1,P = T1?,Same,0,1,None,70,1.76,70,1.58,70,1.46,No,quiteSure,miss,9.426263809204102,NA
222,6dg8k!1,False,207,2,equal,ST2_low_1_a1,P = T1?,Same,2,1,low,82,1.45,132,0.98,132,0.94,No,quiteSure,cr,3.14758038520813,NA
223,6dg8k!1,False,208,2,equal,ST1_low_6_a2,P = T2?,Same,1,2,low,154,0.9,96,1.13,154,0.72,Yes,quiteSure,fa,6.702536106109619,NA
224,6dg8k!1,False,209,2,equal,ST2_low_2_a2,P = T2?,Same,2,2,low,132,0.94,82,1.22,82,1.59,Yes,quiteSure,hit,1.6659672260284424,NA
225,6dg8k!1,False,210,2,equal,STb_7_a2,P = T2?,Same,0,2,None,154,0.91,154,0.9,154,0.83,Yes,quiteSure,hit,1.2132220268249512,NA
226,6dg8k!1,False,211,2,equal,ST2_low_3_a1,P = T2?,Same,2,1,low,70,1.48,112,1.02,112,1.16,Yes,quiteSure,hit,2.606790065765381,NA
227,6dg8k!1,False,212,2,equal,ST1_high_6_a2,P = T2?,Same,1,2,high,132,0.91,96,1.36,132,0.87,Yes,quiteSure,fa,1.9802780151367188,NA
228,6dg8k!1,False,213,2,equal,ST1_low_1_a1,P = T2?,Same,1,1,low,82,1.29,132,0.74,82,1.71,No,quiteSure,cr,2.813241720199585,NA
229,6dg8k!1,False,214,2,equal,ST1_high_3_a2,P = T1?,Same,1,2,high,70,1.5,96,1.42,70,1.61,Yes,quiteSure,hit,5.079236030578613,NA
230,6dg8k!1,False,215,2,equal,DT1_low_2_a2,P = T2?,Different,1,2,low,132,0.9,82,1.6,154,0.73,No,quiteSure,cr,3.12481427192688,NA
231,6dg8k!1,False,216,2,equal,ST2_low_2_a2,P = T2?,Same,2,2,low,132,0.83,82,1.44,82,1.56,Yes,quiteSure,hit,6.819677114486694,NA
232,6dg8k!1,False,217,2,equal,ST2_high_4_a2,P = T1?,Same,2,2,high,96,1.09,70,1.58,70,1.4,Yes,quiteSure,fa,4.099203109741211,NA
233,6dg8k!1,False,218,2,equal,ST2_low_6_a2,P = T2?,Same,2,2,low,154,0.88,96,1.33,96,1.39,Yes,quiteSure,hit,7.713178873062134,NA
234,6dg8k!1,False,219,2,equal,ST2_high_3_a2,P = T1?,Same,2,2,high,70,1.47,96,1.07,96,1.27,Yes,quiteSure,fa,1.6878268718719482,NA
235,6dg8k!1,False,220,2,equal,ST2_high_2_a2,P = T2?,Same,2,2,high,112,1.14,82,1.23,82,1.59,Yes,quiteSure,hit,3.0648012161254883,NA
236,6dg8k!1,False,221,2,equal,ST1_high_5_a1,P = T1?,Same,1,1,high,96,1.25,132,0.83,96,1.14,No,quiteSure,miss,1.554260015487671,NA
237,6dg8k!1,False,222,2,equal,ST2_low_5_a2,P = T2?,Same,2,2,low,96,1.23,154,0.8,154,0.82,Yes,quiteSure,hit,1.510382890701294,NA
238,6dg8k!1,False,223,2,equal,ST2_high_6_a1,P = T1?,Same,2,1,high,132,0.99,96,1.39,96,1.19,Yes,quiteSure,fa,1.755385160446167,NA
239,6dg8k!1,False,224,2,equal,ST1_high_1_a1,P = T2?,Same,1,1,high,82,1.25,112,1.17,82,1.5,Yes,quiteSure,fa,2.1393699645996094,NA
240,6dg8k!1,False,225,2,equal,ST1_low_2_a1,P = T2?,Same,1,1,low,132,0.85,82,1.22,132,0.94,Yes,quiteSure,fa,2.7694528102874756,NA
241,6dg8k!1,False,226,2,equal,ST2_high_1_a1,P = T2?,Same,2,1,high,82,1.47,112,1.14,112,1.15,Yes,quiteSure,hit,1.304171085357666,NA
242,6dg8k!1,False,227,2,equal,ST1_low_5_a1,P = T2?,Same,1,1,low,96,1.1,154,0.89,96,1.16,Yes,quiteSure,fa,1.2776780128479004,NA
243,6dg8k!1,False,228,2,equal,ST1_low_6_a2,P = T1?,Same,1,2,low,154,0.95,96,1.08,154,0.87,Yes,quiteSure,hit,1.4802889823913574,NA
244,6dg8k!1,False,229,2,equal,ST2_low_1_a2,P = T1?,Same,2,2,low,82,1.34,132,1.0,132,0.91,No,quiteSure,cr,1.9998769760131836,NA
245,6dg8k!1,False,230,2,equal,ST1_high_3_a1,P = T1?,Same,1,1,high,70,1.69,96,1.37,70,1.69,No,quiteSure,miss,1.9834439754486084,NA
246,6dg8k!1,False,231,2,equal,ST2_high_2_a1,P = T2?,Same,2,1,high,112,1.23,82,1.67,82,1.56,Yes,quiteSure,hit,1.5763440132141113,NA
247,6dg8k!1,False,232,2,equal,ST1_high_4_a2,P = T2?,Same,1,2,high,96,1.16,70,1.7,96,1.21,Yes,quiteSure,fa,1.1247448921203613,NA
248,6dg8k!1,False,233,2,equal,ST1_low_2_a1,P = T2?,Same,1,1,low,132,0.98,82,1.44,132,0.95,Yes,quiteSure,fa,5.1007630825042725,NA
249,6dg8k!1,False,234,2,equal,DT2_high_4_a2,P = T2?,Different,2,2,high,96,1.07,70,1.57,60,1.82,Yes,quiteSure,hit,1.531938076019287,NA
250,6dg8k!1,False,235,2,equal,DT1_low_5_a1,P = T2?,Different,1,1,low,96,1.11,154,0.78,82,1.32,No,quiteSure,cr,1.6436030864715576,NA
251,6dg8k!1,False,236,2,equal,ST1_low_2_a1,P = T1?,Same,1,1,low,132,0.82,82,1.51,132,0.86,Yes,quiteSure,hit,1.801734209060669,NA
252,6dg8k!1,False,237,2,equal,ST1_high_4_a2,P = T1?,Same,1,2,high,96,1.35,70,1.71,96,1.23,Yes,quiteSure,hit,2.227431058883667,NA
253,6dg8k!1,False,238,2,equal,STb_6_a2,P = T2?,Same,0,2,None,132,0.91,132,0.82,132,0.92,Yes,quiteSure,hit,1.689272165298462,NA
254,6dg8k!1,False,239,2,equal,ST1_low_5_a2,P = T1?,Same,1,2,low,96,1.33,154,0.88,96,1.11,Yes,quiteSure,hit,2.5241410732269287,NA
255,6dg8k!1,False,240,2,equal,ST2_high_2_a1,P = T2?,Same,2,1,high,112,1.16,82,1.23,82,1.33,Yes,quiteSure,hit,1.7100141048431396,NA
256,6dg8k!1,False,241,2,equal,ST2_high_1_a1,P = T2?,Same,2,1,high,82,1.6,112,1.19,112,0.92,Yes,quiteSure,hit,1.2863068580627441,NA
257,6dg8k!1,False,242,2,equal,ST1_high_1_a1,P = T2?,Same,1,1,high,82,1.28,112,1.03,82,1.23,No,quiteSure,cr,2.252758026123047,NA
258,6dg8k!1,False,243,2,equal,ST1_low_4_a1,P = T2?,Same,1,1,low,112,1.15,70,1.38,112,1.09,No,quiteSure,cr,1.8005447387695312,NA
259,6dg8k!1,False,244,2,equal,ST1_low_5_a1,P = T1?,Same,1,1,low,96,1.18,154,0.8,96,1.17,Yes,quiteSure,hit,2.22617506980896,NA
260,6dg8k!1,False,245,2,equal,ST1_low_3_a2,P = T2?,Same,1,2,low,70,1.46,112,1.06,70,1.84,No,quiteSure,cr,2.6341590881347656,NA
261,6dg8k!1,False,246,2,equal,ST2_high_6_a2,P = T2?,Same,2,2,high,132,0.92,96,1.06,96,1.1,Yes,quiteSure,hit,6.927777051925659,NA
262,6dg8k!1,False,247,2,equal,ST1_low_2_a1,P = T1?,Same,1,1,low,132,0.89,82,1.41,132,0.93,Yes,quiteSure,hit,4.005300045013428,NA
263,6dg8k!1,False,248,2,equal,ST2_low_2_a1,P = T2?,Same,2,1,low,132,1.02,82,1.41,82,1.4,Yes,unsure,hit,1.615936040878296,NA
264,6dg8k!1,False,249,2,equal,ST1_high_2_a2,P = T2?,Same,1,2,high,112,1.22,82,1.47,112,0.91,Yes,quiteSure,fa,1.7320890426635742,NA
265,6dg8k!1,False,250,2,equal,ST1_high_2_a1,P = T1?,Same,1,1,high,112,1.21,82,1.22,112,1.09,Yes,quiteSure,hit,1.146718978881836,NA
266,6dg8k!1,False,251,2,equal,ST2_high_6_a1,P = T2?,Same,2,1,high,132,0.94,96,1.12,96,1.11,Yes,quiteSure,hit,1.4395740032196045,NA
267,6dg8k!1,False,252,2,equal,ST1_high_4_a2,P = T2?,Same,1,2,high,96,1.16,70,1.84,96,1.33,Yes,quiteSure,fa,1.1683461666107178,NA
268,6dg8k!1,False,253,2,equal,ST1_low_4_a2,P = T2?,Same,1,2,low,112,0.92,70,1.42,112,1.05,Yes,quiteSure,fa,5.133052825927734,NA
269,6dg8k!1,False,254,2,equal,ST2_high_3_a1,P = T1?,Same,2,1,high,70,1.71,96,1.23,96,1.37,Yes,quiteSure,fa,0.6053431034088135,NA
270,6dg8k!1,False,255,2,equal,ST1_low_4_a2,P = T1?,Same,1,2,low,112,1.24,70,1.34,112,1.04,Yes,quiteSure,hit,1.1870222091674805,NA
271,6dg8k!1,False,256,2,equal,ST1_low_5_a1,P = T2?,Same,1,1,low,96,1.41,154,0.66,96,1.38,Yes,quiteSure,fa,2.678436040878296,NA
272,6dg8k!1,False,257,2,equal,ST1_low_2_a2,P = T1?,Same,1,2,low,132,0.84,82,1.22,132,1.04,Yes,quiteSure,hit,1.2383151054382324,NA
273,6dg8k!1,False,258,2,equal,ST2_low_3_a1,P = T1?,Same,2,1,low,70,1.82,112,1.13,112,1.22,Yes,unsure,fa,4.8347508907318115,NA
274,6dg8k!1,False,259,2,equal,ST2_high_5_a2,P = T1?,Same,2,2,high,96,1.32,132,0.94,132,0.99,No,quiteSure,cr,1.9350378513336182,NA
275,6dg8k!1,False,260,2,equal,ST1_high_5_a2,P = T1?,Same,1,2,high,96,1.15,132,0.93,96,1.35,Yes,quiteSure,hit,3.7992031574249268,NA
276,6dg8k!1,False,261,2,equal,ST2_high_3_a1,P = T2?,Same,2,1,high,70,1.53,96,1.35,96,1.14,Yes,quiteSure,hit,1.8908231258392334,NA
277,6dg8k!1,False,262,2,equal,ST1_high_3_a2,P = T1?,Same,1,2,high,70,1.37,96,1.15,70,1.76,Yes,quiteSure,hit,1.3919999599456787,NA
278,6dg8k!1,False,263,2,equal,ST1_low_6_a2,P = T2?,Same,1,2,low,154,0.9,96,1.25,154,0.85,Yes,quiteSure,fa,1.9781413078308105,NA
279,6dg8k!1,False,264,2,equal,ST1_high_5_a2,P = T2?,Same,1,2,high,96,1.23,132,0.82,96,1.39,Yes,quiteSure,fa,2.765054941177368,NA
280,6dg8k!1,False,265,2,equal,ST2_low_2_a1,P = T1?,Same,2,1,low,132,0.98,82,1.47,82,1.34,No,quiteSure,cr,1.575019121170044,NA
281,6dg8k!1,False,266,2,equal,DT2_high_1_a2,P = T1?,Different,2,2,high,82,1.45,112,1.01,132,1.03,No,quiteSure,cr,3.915337085723877,NA
282,6dg8k!1,False,267,2,equal,ST2_high_6_a2,P = T2?,Same,2,2,high,132,1.04,96,1.29,96,1.42,Yes,quiteSure,hit,4.137341737747192,NA
283,6dg8k!1,False,268,2,equal,ST2_high_6_a1,P = T2?,Same,2,1,high,132,1.01,96,1.22,96,1.3,Yes,quiteSure,hit,2.2717082500457764,NA
284,6dg8k!1,False,269,2,equal,ST2_low_5_a2,P = T1?,Same,2,2,low,96,1.33,154,0.82,154,0.74,No,quiteSure,cr,3.488677978515625,NA
285,6dg8k!1,False,270,2,equal,ST1_low_3_a2,P = T1?,Same,1,2,low,70,1.39,112,1.13,70,1.61,Yes,quiteSure,hit,1.7069761753082275,NA
286,6dg8k!1,False,271,2,equal,ST2_high_2_a1,P = T2?,Same,2,1,high,112,1.22,82,1.37,82,1.51,Yes,quiteSure,hit,3.216048240661621,NA
287,6dg8k!1,False,272,2,equal,ST2_low_4_a2,P = T1?,Same,2,2,low,112,1.17,70,1.65,70,1.44,Yes,quiteSure,fa,1.2371699810028076,NA
288,6dg8k!1,False,273,2,equal,ST2_low_1_a2,P = T2?,Same,2,2,low,82,1.28,132,0.82,132,0.83,Yes,quiteSure,hit,1.211521863937378,NA
289,6dg8k!1,False,274,2,equal,ST1_high_3_a1,P = T2?,Same,1,1,high,70,1.57,96,1.09,70,1.7,Yes,quiteSure,fa,2.5424110889434814,NA
290,6dg8k!1,False,275,2,equal,ST1_low_5_a1,P = T1?,Same,1,1,low,96,1.28,154,0.9,96,1.32,Yes,quiteSure,hit,1.2619712352752686,NA
291,6dg8k!1,False,276,2,equal,ST1_high_3_a2,P = T2?,Same,1,2,high,70,1.54,96,1.07,70,1.79,No,quiteSure,cr,1.803760051727295,NA
292,6dg8k!1,False,277,2,equal,ST2_high_2_a2,P = T1?,Same,2,2,high,112,1.09,82,1.49,82,1.54,Yes,quiteSure,fa,1.8473126888275146,NA
293,6dg8k!1,False,278,2,equal,ST1_high_3_a2,P = T1?,Same,1,2,high,70,1.58,96,1.19,70,1.71,Yes,quiteSure,hit,1.3925600051879883,NA
294,6dg8k!1,False,279,2,equal,ST2_low_4_a1,P = T2?,Same,2,1,low,112,1.02,70,1.65,70,1.71,Yes,quiteSure,hit,1.0803110599517822,NA
295,6dg8k!1,False,280,2,equal,ST1_low_2_a2,P = T1?,Same,1,2,low,132,0.84,82,1.61,132,0.94,Yes,quiteSure,hit,2.0032870769500732,NA
296,6dg8k!1,False,281,2,equal,ST1_high_1_a1,P = T1?,Same,1,1,high,82,1.53,112,0.92,82,1.41,Yes,quiteSure,hit,1.8424551486968994,NA
297,6dg8k!1,False,282,2,equal,ST1_low_4_a2,P = T2?,Same,1,2,low,112,1.17,70,1.79,112,1.21,Yes,quiteSure,fa,1.0160589218139648,NA
298,6dg8k!1,False,283,2,equal,ST1_high_2_a1,P = T2?,Same,1,1,high,112,1.14,82,1.41,112,1.16,Yes,quiteSure,fa,4.290916204452515,NA
299,6dg8k!1,False,284,2,equal,ST2_high_5_a1,P = T2?,Same,2,1,high,96,1.35,132,1.02,132,0.94,Yes,quiteSure,hit,1.4832868576049805,NA
300,6dg8k!1,False,285,2,equal,DT2_high_1_a2,P = T2?,Different,2,2,high,82,1.35,112,0.93,132,1.05,No,quiteSure,miss,1.9381530284881592,NA
301,6dg8k!1,False,286,2,equal,ST1_high_2_a2,P = T1?,Same,1,2,high,112,1.05,82,1.37,112,1.14,No,quiteSure,miss,1.396038293838501,NA
302,6dg8k!1,False,287,2,equal,ST2_high_3_a1,P = T1?,Same,2,1,high,70,1.51,96,1.23,96,1.25,No,quiteSure,cr,1.8052408695220947,NA
303,6dg8k!1,False,288,2,equal,ST2_high_4_a2,P = T2?,Same,2,2,high,96,1.13,70,1.8,70,1.74,Yes,quiteSure,hit,4.205419063568115,NA
304,6dg8k!1,False,289,2,equal,ST2_low_1_a2,P = T2?,Same,2,2,low,82,1.53,132,1.05,132,0.87,Yes,quiteSure,hit,2.0254621505737305,NA
305,6dg8k!1,False,290,2,equal,ST1_low_1_a1,P = T1?,Same,1,1,low,82,1.52,132,0.86,82,1.42,Yes,quiteSure,hit,3.95888614654541,NA
306,6dg8k!1,False,291,2,equal,DT2_high_3_a2,P = T1?,Different,2,2,high,70,1.61,96,1.32,112,1.16,Yes,quiteSure,fa,1.2117300033569336,NA
307,6dg8k!1,False,292,2,equal,ST2_low_2_a1,P = T1?,Same,2,1,low,132,0.88,82,1.55,82,1.51,Yes,quiteSure,fa,1.293485164642334,NA
308,6dg8k!1,False,293,2,equal,ST2_low_6_a1,P = T2?,Same,2,1,low,154,0.8,96,1.15,96,1.06,Yes,quiteSure,hit,1.2141149044036865,NA
309,6dg8k!1,False,294,2,equal,ST1_low_6_a1,P = T1?,Same,1,1,low,154,0.75,96,1.1,154,0.75,Yes,quiteSure,hit,1.2593138217926025,NA
310,6dg8k!1,False,295,2,equal,ST1_high_1_a2,P = T1?,Same,1,2,high,82,1.27,112,1.16,82,1.4,Yes,quiteSure,hit,1.0757689476013184,NA
311,6dg8k!1,False,296,2,equal,ST1_low_6_a1,P = T2?,Same,1,1,low,154,0.81,96,1.26,154,0.91,No,quiteSure,cr,1.3043720722198486,NA
312,6dg8k!1,False,297,2,equal,DT2_high_4_a1,P = T1?,Different,2,1,high,96,1.3,70,1.46,60,2.02,Yes,quiteSure,fa,2.653459072113037,NA
313,6dg8k!1,False,298,2,equal,ST2_low_1_a2,P = T1?,Same,2,2,low,82,1.35,132,1.02,132,0.79,No,quiteSure,cr,1.7117297649383545,NA
314,6dg8k!1,False,299,2,equal,ST2_high_3_a1,P = T2?,Same,2,1,high,70,1.37,96,1.28,96,1.35,Yes,quiteSure,hit,1.8257830142974854,NA
315,6dg8k!1,False,300,2,equal,ST1_low_3_a2,P = T1?,Same,1,2,low,70,1.7,112,1.16,70,1.42,Yes,quiteSure,hit,1.2586889266967773,NA
316,6dg8k!1,False,301,2,equal,ST2_high_6_a2,P = T1?,Same,2,2,high,132,0.96,96,1.39,96,1.11,Yes,quiteSure,fa,2.274610757827759,NA
317,6dg8k!1,False,302,2,equal,ST2_low_5_a1,P = T2?,Same,2,1,low,96,1.12,154,0.91,154,0.92,Yes,quiteSure,hit,1.0108530521392822,NA
318,6dg8k!1,False,303,2,equal,ST1_high_2_a2,P = T2?,Same,1,2,high,112,1.23,82,1.35,112,1.22,Yes,quiteSure,fa,1.3094909191131592,NA
319,6dg8k!1,False,304,2,equal,ST1_low_1_a1,P = T1?,Same,1,1,low,82,1.26,132,0.98,82,1.31,Yes,quiteSure,hit,2.1371989250183105,NA
320,6dg8k!1,False,305,2,equal,ST1_low_5_a2,P = T1?,Same,1,2,low,96,1.27,154,0.92,96,1.28,Yes,quiteSure,hit,1.2412617206573486,NA
321,6dg8k!1,False,306,2,equal,ST1_high_2_a1,P = T2?,Same,1,1,high,112,1.21,82,1.28,112,1.17,Yes,quiteSure,fa,1.126673936843872,NA
322,6dg8k!1,False,307,2,equal,ST2_high_5_a2,P = T1?,Same,2,2,high,96,1.36,132,0.84,132,0.96,Yes,quiteSure,fa,4.162598133087158,NA
323,6dg8k!1,False,308,2,equal,ST2_high_6_a2,P = T2?,Same,2,2,high,132,0.95,96,1.19,96,1.4,Yes,quiteSure,hit,1.7945477962493896,NA
324,6dg8k!1,False,309,2,equal,ST2_high_2_a1,P = T1?,Same,2,1,high,112,1.01,82,1.31,82,1.36,Yes,quiteSure,fa,1.461000919342041,NA
325,6dg8k!1,False,310,2,equal,ST2_low_3_a1,P = T2?,Same,2,1,low,70,1.72,112,1.03,112,1.1,No,quiteSure,miss,1.7990190982818604,NA
326,6dg8k!1,False,311,2,equal,ST1_high_2_a1,P = T1?,Same,1,1,high,112,1.2,82,1.59,112,1.23,Yes,quiteSure,hit,1.1934118270874023,NA
327,6dg8k!1,False,312,2,equal,DT2_low_6_a1,P = T2?,Different,2,1,low,154,0.84,96,1.18,82,1.42,Yes,quiteSure,hit,1.3653230667114258,NA
328,6dg8k!1,False,313,2,equal,ST1_low_2_a2,P = T2?,Same,1,2,low,132,1.02,82,1.55,132,0.83,Yes,quiteSure,fa,0.8138489723205566,NA
329,6dg8k!1,False,314,2,equal,ST1_low_2_a1,P = T1?,Same,1,1,low,132,0.88,82,1.35,132,1.02,No,quiteSure,miss,4.296348333358765,NA
330,6dg8k!1,False,315,2,equal,DT1_low_4_a2,P = T1?,Different,1,2,low,112,1.13,70,1.59,132,0.99,Yes,quiteSure,hit,3.397918224334717,NA
331,6dg8k!1,False,316,2,equal,ST2_high_4_a1,P = T2?,Same,2,1,high,96,1.23,70,1.42,70,1.44,Yes,quiteSure,hit,2.765437126159668,NA
332,6dg8k!1,False,317,2,equal,ST2_low_5_a1,P = T2?,Same,2,1,low,96,1.15,154,0.88,154,0.81,Yes,quiteSure,hit,2.7246510982513428,NA
333,6dg8k!1,False,318,2,equal,ST1_high_2_a2,P = T2?,Same,1,2,high,112,0.98,82,1.38,112,1.05,Yes,quiteSure,fa,3.1696813106536865,NA
334,6dg8k!1,False,319,2,equal,ST2_low_6_a1,P = T2?,Same,2,1,low,154,0.9,96,1.4,96,1.1,Yes,quiteSure,hit,3.080594062805176,NA
335,6dg8k!1,False,320,2,equal,ST2_high_1_a1,P = T2?,Same,2,1,high,82,1.34,112,1.12,112,1.16,Yes,quiteSure,hit,7.5875818729400635,0.25
