,pcode,practice,trial,block,questionType,condition,question,PTS,TargetPosition,AccessoryPosition,TNS,T1_hz,T1_amp,T2_hz,T2_amp,P_hz,P_amp,response_dicho,response_rating,response_sdt,rt,P_correct
0,3!4zpq5,True,1,1,unequal,ST1_low_6_a1,P != T2?,Same,1,1,low,154,0.92,96,1.25,154,0.72,No,sure,miss,2.602808952331543,NA
1,3!4zpq5,True,2,1,unequal,STb_3_a1,P != T1?,Same,0,1,None,82,1.27,82,1.44,82,1.49,No,sure,cr,7.627722978591919,NA
2,3!4zpq5,True,3,1,unequal,STb_2_a1,P != T2?,Same,0,1,None,70,1.78,70,1.53,70,1.53,No,sure,cr,7.627377033233643,NA
3,3!4zpq5,True,4,1,unequal,DT1_high_1_a2,P != T1?,Different,1,2,high,82,1.56,112,0.92,70,1.51,No,sure,cr,4.567639112472534,NA
4,3!4zpq5,True,5,1,unequal,DT2_low_3_a1,P != T1?,Different,2,1,low,70,1.45,112,1.0,132,1.03,Yes,sure,hit,3.1963179111480713,NA
5,3!4zpq5,True,6,1,unequal,STb_8_a2,P != T1?,Same,0,2,None,180,0.78,180,0.87,180,0.93,No,sure,cr,2.430938243865967,NA
6,3!4zpq5,True,7,1,unequal,ST1_low_3_a1,P != T2?,Same,1,1,low,70,1.79,112,0.95,70,1.27,Yes,quiteSure,hit,2.5631449222564697,NA
7,3!4zpq5,True,8,1,unequal,ST2_low_1_a1,P != T2?,Same,2,1,low,82,1.11,132,0.87,132,0.88,No,sure,cr,2.3626208305358887,NA
8,3!4zpq5,True,9,1,unequal,ST2_low_3_a1,P != T1?,Same,2,1,low,70,1.7,112,1.09,112,0.88,Yes,sure,hit,2.657907009124756,NA
9,3!4zpq5,True,10,1,unequal,DT2_high_4_a2,P != T2?,Different,2,2,high,96,1.4,70,1.69,60,1.94,Yes,sure,fa,5.7621989250183105,NA
10,3!4zpq5,True,11,1,unequal,DT2_high_5_a1,P != T2?,Different,2,1,high,96,1.17,132,0.87,154,0.76,Yes,sure,fa,3.036261796951294,NA
11,3!4zpq5,True,12,1,unequal,ST1_low_2_a2,P != T1?,Same,1,2,low,132,0.9,82,1.58,132,0.93,No,sure,cr,2.1615757942199707,NA
12,3!4zpq5,True,13,1,unequal,ST1_high_2_a1,P != T1?,Same,1,1,high,112,1.18,82,1.82,112,1.19,No,quiteSure,cr,9.027234077453613,NA
13,3!4zpq5,True,14,1,unequal,STb_5_a2,P != T2?,Same,0,2,None,112,0.87,112,1.21,112,0.96,No,quiteSure,cr,3.949506998062134,NA
14,3!4zpq5,True,15,1,unequal,ST2_high_5_a1,P != T1?,Same,2,1,high,96,1.26,132,0.98,132,0.89,Yes,sure,hit,2.286790132522583,NA
15,3!4zpq5,True,16,1,unequal,ST2_high_1_a1,P != T2?,Same,2,1,high,82,1.38,112,0.91,112,0.99,No,sure,cr,3.784317970275879,0.625
16,3!4zpq5,False,1,1,unequal,ST2_low_1_a2,P != T2?,Same,2,2,low,82,1.51,132,1.02,132,0.97,No,sure,cr,2.6339080333709717,NA
17,3!4zpq5,False,2,1,unequal,STb_4_a1,P != T2?,Same,0,1,None,96,1.15,96,1.18,96,1.2,No,sure,cr,2.9677770137786865,NA
18,3!4zpq5,False,3,1,unequal,ST1_low_1_a2,P != T2?,Same,1,2,low,82,1.62,132,0.85,82,1.59,Yes,sure,hit,2.2934257984161377,NA
19,3!4zpq5,False,4,1,unequal,ST2_low_3_a1,P != T1?,Same,2,1,low,70,1.7,112,1.09,112,0.88,Yes,sure,hit,2.388164758682251,NA
20,3!4zpq5,False,5,1,unequal,ST1_low_3_a1,P != T1?,Same,1,1,low,70,1.72,112,0.99,70,1.59,No,quiteSure,cr,2.3140180110931396,NA
21,3!4zpq5,False,6,1,unequal,ST1_low_3_a2,P != T1?,Same,1,2,low,70,1.76,112,1.15,70,1.64,No,sure,cr,2.814570188522339,NA
22,3!4zpq5,False,7,1,unequal,STb_3_a2,P != T2?,Same,0,2,None,82,1.5,82,1.41,82,1.22,No,sure,cr,3.7312769889831543,NA
23,3!4zpq5,False,8,1,unequal,ST2_low_5_a2,P != T2?,Same,2,2,low,96,1.31,154,0.72,154,0.73,No,sure,cr,4.230511903762817,NA
24,3!4zpq5,False,9,1,unequal,ST2_high_1_a2,P != T1?,Same,2,2,high,82,1.53,112,0.96,112,0.94,Yes,quiteSure,hit,2.5206363201141357,NA
25,3!4zpq5,False,10,1,unequal,ST1_high_4_a1,P != T2?,Same,1,1,high,96,1.36,70,1.82,96,1.1,Yes,sure,hit,4.025149345397949,NA
26,3!4zpq5,False,11,1,unequal,DT1_low_6_a2,P != T1?,Different,1,2,low,154,0.9,96,1.34,180,0.76,Yes,quiteSure,fa,3.2602827548980713,NA
27,3!4zpq5,False,12,1,unequal,ST1_high_3_a2,P != T1?,Same,1,2,high,70,1.81,96,1.31,70,1.48,No,sure,cr,2.7447738647460938,NA
28,3!4zpq5,False,13,1,unequal,ST2_high_5_a2,P != T2?,Same,2,2,high,96,1.06,132,0.86,132,0.84,No,quiteSure,cr,3.372957229614258,NA
29,3!4zpq5,False,14,1,unequal,ST1_high_5_a2,P != T2?,Same,1,2,high,96,1.19,132,0.81,96,1.43,Yes,unsure,hit,4.2273030281066895,NA
30,3!4zpq5,False,15,1,unequal,ST1_low_1_a2,P != T1?,Same,1,2,low,82,1.27,132,0.9,82,1.46,No,sure,cr,2.202047109603882,NA
31,3!4zpq5,False,16,1,unequal,ST1_high_1_a1,P != T1?,Same,1,1,high,82,1.56,112,1.09,82,1.46,No,sure,cr,2.0918691158294678,NA
32,3!4zpq5,False,17,1,unequal,ST2_high_3_a1,P != T2?,Same,2,1,high,70,1.47,96,1.06,96,1.09,No,sure,cr,2.381891965866089,NA
33,3!4zpq5,False,18,1,unequal,ST1_high_4_a2,P != T1?,Same,1,2,high,96,1.06,70,1.6,96,1.09,No,sure,cr,3.1708648204803467,NA
34,3!4zpq5,False,19,1,unequal,ST1_low_2_a2,P != T1?,Same,1,2,low,132,0.9,82,1.58,132,0.93,No,sure,cr,1.7288048267364502,NA
35,3!4zpq5,False,20,1,unequal,ST1_high_4_a2,P != T1?,Same,1,2,high,96,1.26,70,1.71,96,1.14,No,sure,cr,2.589784622192383,NA
36,3!4zpq5,False,21,1,unequal,ST1_high_5_a2,P != T1?,Same,1,2,high,96,1.13,132,0.99,96,1.36,No,sure,cr,2.314387321472168,NA
37,3!4zpq5,False,22,1,unequal,ST2_high_3_a2,P != T2?,Same,2,2,high,70,1.5,96,1.23,96,1.16,No,sure,cr,2.9443180561065674,NA
38,3!4zpq5,False,23,1,unequal,ST1_high_6_a2,P != T2?,Same,1,2,high,132,0.99,96,1.19,132,0.93,No,quiteSure,miss,3.646636962890625,NA
39,3!4zpq5,False,24,1,unequal,STb_2_a1,P != T1?,Same,0,1,None,70,1.44,70,1.57,70,1.79,No,sure,cr,2.4284207820892334,NA
40,3!4zpq5,False,25,1,unequal,ST2_low_6_a1,P != T2?,Same,2,1,low,154,0.76,96,1.15,96,1.35,No,quiteSure,cr,3.597311019897461,NA
41,3!4zpq5,False,26,1,unequal,ST2_high_4_a2,P != T1?,Same,2,2,high,96,1.24,70,1.58,70,1.43,Yes,sure,hit,1.8978581428527832,NA
42,3!4zpq5,False,27,1,unequal,ST2_high_6_a2,P != T2?,Same,2,2,high,132,1.03,96,1.41,96,1.34,No,sure,cr,1.8663678169250488,NA
43,3!4zpq5,False,28,1,unequal,ST1_low_3_a2,P != T2?,Same,1,2,low,70,1.58,112,1.03,70,1.84,Yes,sure,hit,2.54345703125,NA
44,3!4zpq5,False,29,1,unequal,ST2_high_4_a2,P != T1?,Same,2,2,high,96,1.34,70,1.82,70,1.84,Yes,sure,hit,2.8122639656066895,NA
45,3!4zpq5,False,30,1,unequal,ST2_low_2_a2,P != T1?,Same,2,2,low,132,0.84,82,1.49,82,1.36,Yes,sure,hit,2.2474489212036133,NA
46,3!4zpq5,False,31,1,unequal,ST2_low_5_a1,P != T1?,Same,2,1,low,96,1.42,154,0.8,154,0.87,Yes,quiteSure,hit,2.765566110610962,NA
47,3!4zpq5,False,32,1,unequal,ST2_low_3_a2,P != T1?,Same,2,2,low,70,1.42,112,1.09,112,1.23,Yes,sure,hit,1.6219351291656494,NA
48,3!4zpq5,False,33,1,unequal,ST1_low_6_a1,P != T1?,Same,1,1,low,154,0.83,96,1.09,154,0.94,No,sure,cr,1.6434588432312012,NA
49,3!4zpq5,False,34,1,unequal,ST1_low_1_a1,P != T1?,Same,1,1,low,82,1.63,132,0.92,82,1.51,Yes,unsure,fa,1.909933090209961,NA
50,3!4zpq5,False,35,1,unequal,ST2_high_2_a2,P != T2?,Same,2,2,high,112,1.02,82,1.58,82,1.53,No,sure,cr,1.7298643589019775,NA
51,3!4zpq5,False,36,1,unequal,ST2_low_2_a1,P != T2?,Same,2,1,low,132,0.87,82,1.46,82,1.6,No,sure,cr,4.996884107589722,NA
52,3!4zpq5,False,37,1,unequal,ST2_high_2_a1,P != T1?,Same,2,1,high,112,1.02,82,1.37,82,1.61,Yes,quiteSure,hit,2.9515268802642822,NA
53,3!4zpq5,False,38,1,unequal,ST1_low_1_a1,P != T2?,Same,1,1,low,82,1.35,132,0.86,82,1.23,Yes,sure,hit,1.642867088317871,NA
54,3!4zpq5,False,39,1,unequal,ST2_low_2_a1,P != T2?,Same,2,1,low,132,0.9,82,1.29,82,1.33,No,sure,cr,1.6623539924621582,NA
55,3!4zpq5,False,40,1,unequal,ST2_high_4_a2,P != T2?,Same,2,2,high,96,1.33,70,1.38,70,1.39,No,sure,cr,1.6410200595855713,NA
56,3!4zpq5,False,41,1,unequal,ST2_high_4_a1,P != T2?,Same,2,1,high,96,1.07,70,1.74,70,1.4,No,sure,cr,1.9155828952789307,NA
57,3!4zpq5,False,42,1,unequal,ST2_high_4_a2,P != T2?,Same,2,2,high,96,1.41,70,1.53,70,1.61,No,sure,cr,1.800091028213501,NA
58,3!4zpq5,False,43,1,unequal,ST2_high_5_a2,P != T1?,Same,2,2,high,96,1.17,132,1.06,132,0.79,Yes,sure,hit,2.388467788696289,NA
59,3!4zpq5,False,44,1,unequal,ST1_low_2_a1,P != T2?,Same,1,1,low,132,0.88,82,1.33,132,0.89,Yes,sure,hit,1.689399003982544,NA
60,3!4zpq5,False,45,1,unequal,DT2_high_1_a2,P != T2?,Different,2,2,high,82,1.21,112,1.08,132,1.03,Yes,sure,fa,1.6459991931915283,NA
61,3!4zpq5,False,46,1,unequal,ST2_low_5_a2,P != T2?,Same,2,2,low,96,1.2,154,0.84,154,0.94,No,sure,cr,1.5713999271392822,NA
62,3!4zpq5,False,47,1,unequal,ST2_high_2_a1,P != T2?,Same,2,1,high,112,1.08,82,1.38,82,1.48,No,sure,cr,3.065319299697876,NA
63,3!4zpq5,False,48,1,unequal,ST2_low_4_a2,P != T1?,Same,2,2,low,112,1.17,70,1.42,70,1.49,Yes,quiteSure,hit,2.4080049991607666,NA
64,3!4zpq5,False,49,1,unequal,ST1_low_6_a1,P != T1?,Same,1,1,low,154,0.77,96,1.14,154,0.87,No,sure,cr,5.130458116531372,NA
65,3!4zpq5,False,50,1,unequal,DT1_high_4_a1,P != T1?,Different,1,1,high,96,1.34,70,1.41,112,1.03,Yes,quiteSure,fa,2.1841800212860107,NA
66,3!4zpq5,False,51,1,unequal,ST1_low_1_a2,P != T1?,Same,1,2,low,82,1.57,132,0.83,82,1.24,No,quiteSure,cr,2.114759922027588,NA
67,3!4zpq5,False,52,1,unequal,ST2_high_5_a2,P != T1?,Same,2,2,high,96,1.4,132,0.85,132,1.0,Yes,sure,hit,2.4109320640563965,NA
68,3!4zpq5,False,53,1,unequal,ST2_low_2_a2,P != T1?,Same,2,2,low,132,1.05,82,1.54,82,1.61,Yes,sure,hit,1.7784340381622314,NA
69,3!4zpq5,False,54,1,unequal,ST1_high_2_a1,P != T2?,Same,1,1,high,112,1.12,82,1.24,112,1.15,Yes,quiteSure,hit,3.3054981231689453,NA
70,3!4zpq5,False,55,1,unequal,ST1_high_4_a1,P != T2?,Same,1,1,high,96,1.16,70,1.48,96,1.28,Yes,sure,hit,1.7579190731048584,NA
71,3!4zpq5,False,56,1,unequal,STb_6_a2,P != T2?,Same,0,2,None,132,0.92,132,1.03,132,0.95,No,sure,cr,2.404541015625,NA
72,3!4zpq5,False,57,1,unequal,ST1_low_1_a1,P != T1?,Same,1,1,low,82,1.58,132,0.97,82,1.48,Yes,unsure,fa,3.9620420932769775,NA
73,3!4zpq5,False,58,1,unequal,ST1_low_6_a1,P != T2?,Same,1,1,low,154,0.86,96,1.35,154,0.73,Yes,sure,hit,1.4403011798858643,NA
74,3!4zpq5,False,59,1,unequal,ST1_high_4_a1,P != T1?,Same,1,1,high,96,1.15,70,1.8,96,1.43,No,quiteSure,cr,1.867021083831787,NA
75,3!4zpq5,False,60,1,unequal,ST2_high_2_a1,P != T1?,Same,2,1,high,112,1.1,82,1.61,82,1.51,Yes,sure,hit,1.6428401470184326,NA
76,3!4zpq5,False,61,1,unequal,ST2_high_4_a1,P != T2?,Same,2,1,high,96,1.37,70,1.51,70,1.54,No,sure,cr,2.272494077682495,NA
77,3!4zpq5,False,62,1,unequal,ST2_low_3_a1,P != T1?,Same,2,1,low,70,1.73,112,0.93,112,0.92,Yes,quiteSure,hit,1.618346929550171,NA
78,3!4zpq5,False,63,1,unequal,ST2_low_2_a1,P != T1?,Same,2,1,low,132,0.79,82,1.46,82,1.54,Yes,unsure,hit,5.427459716796875,NA
79,3!4zpq5,False,64,1,unequal,ST2_high_6_a2,P != T1?,Same,2,2,high,132,0.8,96,1.1,96,1.35,Yes,sure,hit,1.6148171424865723,NA
80,3!4zpq5,False,65,1,unequal,ST2_high_6_a2,P != T1?,Same,2,2,high,132,0.92,96,1.39,96,1.39,Yes,sure,hit,1.3610868453979492,NA
81,3!4zpq5,False,66,1,unequal,ST2_high_1_a2,P != T2?,Same,2,2,high,82,1.61,112,0.95,112,1.08,No,sure,cr,1.7304480075836182,NA
82,3!4zpq5,False,67,1,unequal,ST1_high_2_a2,P != T1?,Same,1,2,high,112,1.17,82,1.59,112,1.19,No,quiteSure,cr,1.9335339069366455,NA
83,3!4zpq5,False,68,1,unequal,ST2_high_2_a1,P != T1?,Same,2,1,high,112,1.0,82,1.61,82,1.51,Yes,quiteSure,hit,2.5424132347106934,NA
84,3!4zpq5,False,69,1,unequal,ST1_low_1_a1,P != T2?,Same,1,1,low,82,1.23,132,0.99,82,1.5,Yes,sure,hit,1.4146127700805664,NA
85,3!4zpq5,False,70,1,unequal,ST2_low_2_a1,P != T2?,Same,2,1,low,132,0.84,82,1.36,82,1.5,Yes,unsure,fa,3.688486337661743,NA
86,3!4zpq5,False,71,1,unequal,STb_7_a2,P != T2?,Same,0,2,None,154,0.84,154,0.77,154,0.83,No,sure,cr,1.553333044052124,NA
87,3!4zpq5,False,72,1,unequal,ST2_low_2_a2,P != T2?,Same,2,2,low,132,0.95,82,1.47,82,1.45,No,sure,cr,2.342099189758301,NA
88,3!4zpq5,False,73,1,unequal,ST2_low_5_a1,P != T2?,Same,2,1,low,96,1.19,154,0.92,154,0.83,No,sure,cr,1.7796781063079834,NA
89,3!4zpq5,False,74,1,unequal,ST1_low_5_a2,P != T2?,Same,1,2,low,96,1.13,154,0.9,96,1.14,Yes,quiteSure,hit,4.972883939743042,NA
90,3!4zpq5,False,75,1,unequal,ST2_low_5_a1,P != T2?,Same,2,1,low,96,1.17,154,0.73,154,0.78,No,sure,cr,1.2610819339752197,NA
91,3!4zpq5,False,76,1,unequal,ST1_low_4_a2,P != T2?,Same,1,2,low,112,1.03,70,1.65,112,1.02,Yes,unsure,hit,3.7572808265686035,NA
92,3!4zpq5,False,77,1,unequal,DT1_high_1_a1,P != T2?,Different,1,1,high,82,1.41,112,1.03,70,1.61,Yes,sure,hit,1.758880853652954,NA
93,3!4zpq5,False,78,1,unequal,ST2_high_5_a1,P != T2?,Same,2,1,high,96,1.22,132,0.9,132,1.04,No,sure,cr,1.3716161251068115,NA
94,3!4zpq5,False,79,1,unequal,ST1_low_2_a2,P != T2?,Same,1,2,low,132,1.01,82,1.49,132,1.0,Yes,sure,hit,2.070823907852173,NA
95,3!4zpq5,False,80,1,unequal,ST2_high_3_a1,P != T1?,Same,2,1,high,70,1.71,96,1.37,96,1.36,Yes,sure,hit,1.616142988204956,NA
96,3!4zpq5,False,81,1,unequal,ST1_low_4_a1,P != T2?,Same,1,1,low,112,0.97,70,1.58,112,1.11,Yes,sure,hit,1.7337708473205566,NA
97,3!4zpq5,False,82,1,unequal,ST2_low_6_a2,P != T1?,Same,2,2,low,154,0.78,96,1.06,96,1.16,Yes,sure,hit,2.1839709281921387,NA
98,3!4zpq5,False,83,1,unequal,ST2_high_6_a2,P != T1?,Same,2,2,high,132,0.93,96,1.21,96,1.35,Yes,quiteSure,hit,2.269733190536499,NA
99,3!4zpq5,False,84,1,unequal,STb_8_a1,P != T2?,Same,0,1,None,180,0.82,180,0.81,180,0.8,No,sure,cr,1.664768934249878,NA
100,3!4zpq5,False,85,1,unequal,ST1_low_1_a2,P != T2?,Same,1,2,low,82,1.35,132,0.84,82,1.24,Yes,sure,hit,1.528902292251587,NA
101,3!4zpq5,False,86,1,unequal,DT2_low_2_a2,P != T1?,Different,2,2,low,132,0.82,82,1.63,70,1.6,No,sure,miss,1.7989308834075928,NA
102,3!4zpq5,False,87,1,unequal,STb_6_a1,P != T2?,Same,0,1,None,132,0.88,132,0.83,132,1.05,No,sure,cr,2.0671138763427734,NA
103,3!4zpq5,False,88,1,unequal,ST2_low_5_a2,P != T1?,Same,2,2,low,96,1.22,154,0.73,154,0.89,Yes,sure,hit,1.889923095703125,NA
104,3!4zpq5,False,89,1,unequal,ST2_high_2_a2,P != T2?,Same,2,2,high,112,1.21,82,1.25,82,1.21,No,sure,cr,1.8220088481903076,NA
105,3!4zpq5,False,90,1,unequal,STb_2_a2,P != T1?,Same,0,2,None,70,1.56,70,1.51,70,1.64,No,quiteSure,cr,1.9092490673065186,NA
106,3!4zpq5,False,91,1,unequal,ST2_low_6_a2,P != T2?,Same,2,2,low,154,0.86,96,1.19,96,1.11,No,sure,cr,2.137521743774414,NA
107,3!4zpq5,False,92,1,unequal,ST2_low_1_a2,P != T1?,Same,2,2,low,82,1.34,132,0.9,132,0.83,Yes,sure,hit,2.0231330394744873,NA
108,3!4zpq5,False,93,1,unequal,ST2_high_1_a2,P != T1?,Same,2,2,high,82,1.36,112,1.03,112,1.06,Yes,sure,hit,2.2288918495178223,NA
109,3!4zpq5,False,94,1,unequal,ST1_high_4_a2,P != T2?,Same,1,2,high,96,1.13,70,1.83,96,1.22,No,unsure,miss,6.883570909500122,NA
110,3!4zpq5,False,95,1,unequal,ST1_high_4_a2,P != T1?,Same,1,2,high,96,1.36,70,1.56,96,1.19,Yes,quiteSure,fa,1.958622932434082,NA
111,3!4zpq5,False,96,1,unequal,ST2_low_6_a1,P != T1?,Same,2,1,low,154,0.8,96,1.3,96,1.1,Yes,sure,hit,2.4967901706695557,NA
112,3!4zpq5,False,97,1,unequal,ST1_high_5_a1,P != T1?,Same,1,1,high,96,1.19,132,0.84,96,1.07,No,sure,cr,1.949808120727539,NA
113,3!4zpq5,False,98,1,unequal,ST1_high_3_a2,P != T2?,Same,1,2,high,70,1.78,96,1.06,70,1.37,No,unsure,miss,3.6739461421966553,NA
114,3!4zpq5,False,99,1,unequal,ST2_low_4_a2,P != T1?,Same,2,2,low,112,0.96,70,1.62,70,1.4,Yes,sure,hit,1.690384864807129,NA
115,3!4zpq5,False,100,1,unequal,ST2_low_4_a2,P != T1?,Same,2,2,low,112,1.1,70,1.68,70,1.47,Yes,sure,hit,1.663106918334961,NA
116,3!4zpq5,False,101,1,unequal,ST1_low_3_a2,P != T2?,Same,1,2,low,70,1.83,112,1.06,70,1.71,Yes,sure,hit,1.4159178733825684,NA
117,3!4zpq5,False,102,1,unequal,ST1_low_6_a2,P != T2?,Same,1,2,low,154,0.87,96,1.4,154,0.71,Yes,sure,hit,1.484574794769287,NA
118,3!4zpq5,False,103,1,unequal,ST2_high_6_a1,P != T2?,Same,2,1,high,132,0.98,96,1.16,96,1.41,No,sure,cr,1.7321979999542236,NA
119,3!4zpq5,False,104,1,unequal,ST1_high_6_a2,P != T1?,Same,1,2,high,132,0.9,96,1.42,132,0.86,No,sure,cr,1.6457610130310059,NA
120,3!4zpq5,False,105,1,unequal,ST1_high_1_a1,P != T2?,Same,1,1,high,82,1.43,112,1.12,82,1.29,Yes,unsure,hit,5.13224196434021,NA
121,3!4zpq5,False,106,1,unequal,ST2_low_3_a2,P != T2?,Same,2,2,low,70,1.49,112,0.96,112,1.13,No,sure,cr,1.8946568965911865,NA
122,3!4zpq5,False,107,1,unequal,ST1_high_4_a2,P != T2?,Same,1,2,high,96,1.18,70,1.78,96,1.06,Yes,quiteSure,hit,2.1384990215301514,NA
123,3!4zpq5,False,108,1,unequal,ST1_high_1_a2,P != T2?,Same,1,2,high,82,1.43,112,1.17,82,1.36,Yes,sure,hit,1.305053949356079,NA
124,3!4zpq5,False,109,1,unequal,ST2_low_6_a2,P != T1?,Same,2,2,low,154,0.9,96,1.13,96,1.07,Yes,quiteSure,hit,4.660799026489258,NA
125,3!4zpq5,False,110,1,unequal,ST1_high_1_a1,P != T2?,Same,1,1,high,82,1.45,112,1.09,82,1.56,Yes,sure,hit,1.3623039722442627,NA
126,3!4zpq5,False,111,1,unequal,ST1_high_2_a1,P != T2?,Same,1,1,high,112,1.0,82,1.29,112,1.06,Yes,sure,hit,1.394819736480713,NA
127,3!4zpq5,False,112,1,unequal,ST2_high_5_a1,P != T1?,Same,2,1,high,96,1.3,132,0.98,132,0.91,No,unsure,miss,8.368675708770752,NA
128,3!4zpq5,False,113,1,unequal,ST2_low_5_a2,P != T1?,Same,2,2,low,96,1.15,154,0.93,154,0.9,Yes,sure,hit,1.7781469821929932,NA
129,3!4zpq5,False,114,1,unequal,ST1_low_4_a2,P != T2?,Same,1,2,low,112,0.92,70,1.77,112,1.13,Yes,sure,hit,1.2134599685668945,NA
130,3!4zpq5,False,115,1,unequal,DT2_high_3_a2,P != T1?,Different,2,2,high,70,1.59,96,1.11,112,1.13,Yes,quiteSure,hit,1.5755226612091064,NA
131,3!4zpq5,False,116,1,unequal,ST2_high_6_a2,P != T2?,Same,2,2,high,132,0.98,96,1.2,96,1.26,No,sure,cr,1.8673348426818848,NA
132,3!4zpq5,False,117,1,unequal,ST1_high_3_a1,P != T2?,Same,1,1,high,70,1.64,96,1.43,70,1.6,Yes,sure,hit,1.3749768733978271,NA
133,3!4zpq5,False,118,1,unequal,ST1_low_3_a1,P != T2?,Same,1,1,low,70,1.84,112,1.13,70,1.76,Yes,sure,hit,2.7351410388946533,NA
134,3!4zpq5,False,119,1,unequal,ST2_low_1_a2,P != T2?,Same,2,2,low,82,1.46,132,0.96,132,0.85,No,sure,cr,2.0720479488372803,NA
135,3!4zpq5,False,120,1,unequal,ST2_high_2_a2,P != T1?,Same,2,2,high,112,0.98,82,1.57,82,1.41,Yes,sure,hit,1.6172630786895752,NA
136,3!4zpq5,False,121,1,unequal,ST2_low_6_a2,P != T1?,Same,2,2,low,154,0.81,96,1.13,96,1.25,No,unsure,miss,4.320420980453491,NA
137,3!4zpq5,False,122,1,unequal,ST1_high_3_a1,P != T1?,Same,1,1,high,70,1.49,96,1.28,70,1.8,No,quiteSure,cr,1.7061760425567627,NA
138,3!4zpq5,False,123,1,unequal,ST2_high_6_a1,P != T2?,Same,2,1,high,132,0.93,96,1.07,96,1.42,No,sure,cr,1.4641101360321045,NA
139,3!4zpq5,False,124,1,unequal,ST2_low_4_a1,P != T1?,Same,2,1,low,112,1.13,70,1.66,70,1.53,Yes,sure,hit,1.5558440685272217,NA
140,3!4zpq5,False,125,1,unequal,ST1_low_6_a2,P != T2?,Same,1,2,low,154,0.93,96,1.32,154,0.74,Yes,sure,hit,1.935349941253662,NA
141,3!4zpq5,False,126,1,unequal,ST1_high_1_a1,P != T1?,Same,1,1,high,82,1.59,112,0.97,82,1.36,Yes,unsure,fa,5.51013970375061,NA
142,3!4zpq5,False,127,1,unequal,ST1_high_3_a1,P != T2?,Same,1,1,high,70,1.53,96,1.39,70,1.58,Yes,sure,hit,1.5556221008300781,NA
143,3!4zpq5,False,128,1,unequal,ST1_low_6_a1,P != T2?,Same,1,1,low,154,0.85,96,1.15,154,0.94,Yes,sure,hit,1.0589110851287842,NA
144,3!4zpq5,False,129,1,unequal,ST2_low_5_a1,P != T2?,Same,2,1,low,96,1.21,154,0.79,154,0.86,No,sure,cr,2.769871711730957,NA
145,3!4zpq5,False,130,1,unequal,ST2_low_4_a1,P != T2?,Same,2,1,low,112,1.14,70,1.43,70,1.71,No,sure,cr,1.4348249435424805,NA
146,3!4zpq5,False,131,1,unequal,ST1_high_5_a2,P != T2?,Same,1,2,high,96,1.23,132,0.82,96,1.2,Yes,sure,hit,1.7733356952667236,NA
147,3!4zpq5,False,132,1,unequal,ST2_low_3_a1,P != T2?,Same,2,1,low,70,1.62,112,0.98,112,0.97,No,sure,cr,1.3260200023651123,NA
148,3!4zpq5,False,133,1,unequal,ST1_high_5_a1,P != T2?,Same,1,1,high,96,1.25,132,1.01,96,1.14,Yes,sure,hit,1.797936201095581,NA
149,3!4zpq5,False,134,1,unequal,DT2_low_6_a2,P != T2?,Different,2,2,low,154,0.83,96,1.26,82,1.45,No,unsure,cr,5.489947080612183,NA
150,3!4zpq5,False,135,1,unequal,ST1_high_5_a2,P != T2?,Same,1,2,high,96,1.1,132,0.82,96,1.09,Yes,sure,hit,2.2456860542297363,NA
151,3!4zpq5,False,136,1,unequal,ST1_high_6_a2,P != T1?,Same,1,2,high,132,0.79,96,1.15,132,0.93,No,sure,cr,1.2298359870910645,NA
152,3!4zpq5,False,137,1,unequal,ST1_low_2_a1,P != T1?,Same,1,1,low,132,1.05,82,1.61,132,0.98,No,sure,cr,1.3060638904571533,NA
153,3!4zpq5,False,138,1,unequal,ST1_high_4_a1,P != T1?,Same,1,1,high,96,1.43,70,1.52,96,1.39,Yes,quiteSure,fa,1.6408016681671143,NA
154,3!4zpq5,False,139,1,unequal,ST1_high_6_a1,P != T2?,Same,1,1,high,132,0.91,96,1.25,132,0.91,Yes,sure,hit,1.322991132736206,NA
155,3!4zpq5,False,140,1,unequal,ST2_low_5_a1,P != T1?,Same,2,1,low,96,1.1,154,0.88,154,0.81,Yes,sure,hit,1.619231939315796,NA
156,3!4zpq5,False,141,1,unequal,ST1_low_4_a1,P != T1?,Same,1,1,low,112,0.92,70,1.67,112,1.03,No,sure,cr,1.6117329597473145,NA
157,3!4zpq5,False,142,1,unequal,STb_5_a2,P != T2?,Same,0,2,None,112,0.87,112,1.21,112,0.96,No,sure,cr,1.7055408954620361,NA
158,3!4zpq5,False,143,1,unequal,ST2_low_5_a1,P != T1?,Same,2,1,low,96,1.39,154,0.92,154,0.72,Yes,sure,hit,2.790170907974243,NA
159,3!4zpq5,False,144,1,unequal,ST2_low_4_a1,P != T2?,Same,2,1,low,112,1.21,70,1.46,70,1.6,No,sure,cr,1.4194529056549072,NA
160,3!4zpq5,False,145,1,unequal,ST2_low_1_a1,P != T1?,Same,2,1,low,82,1.29,132,1.02,132,1.04,Yes,sure,hit,1.2828900814056396,NA
161,3!4zpq5,False,146,1,unequal,ST2_high_3_a2,P != T1?,Same,2,2,high,70,1.41,96,1.09,96,1.18,No,sure,miss,1.303459882736206,NA
162,3!4zpq5,False,147,1,unequal,ST2_high_1_a2,P != T2?,Same,2,2,high,82,1.57,112,1.12,112,1.11,No,sure,cr,1.3925879001617432,NA
163,3!4zpq5,False,148,1,unequal,ST1_low_2_a1,P != T1?,Same,1,1,low,132,0.97,82,1.41,132,0.87,No,sure,cr,1.9783470630645752,NA
164,3!4zpq5,False,149,1,unequal,ST2_low_2_a1,P != T1?,Same,2,1,low,132,1.04,82,1.56,82,1.46,Yes,sure,hit,1.705265760421753,NA
165,3!4zpq5,False,150,1,unequal,ST1_high_2_a2,P != T2?,Same,1,2,high,112,0.93,82,1.55,112,1.01,Yes,sure,hit,1.6641199588775635,NA
166,3!4zpq5,False,151,1,unequal,ST1_low_6_a2,P != T2?,Same,1,2,low,154,0.93,96,1.37,154,0.84,Yes,sure,hit,1.4619672298431396,NA
167,3!4zpq5,False,152,1,unequal,ST2_high_3_a2,P != T1?,Same,2,2,high,70,1.66,96,1.12,96,1.06,No,unsure,miss,3.8293890953063965,NA
168,3!4zpq5,False,153,1,unequal,ST1_low_3_a2,P != T2?,Same,1,2,low,70,1.55,112,1.21,70,1.48,Yes,sure,hit,1.8653299808502197,NA
169,3!4zpq5,False,154,1,unequal,ST2_low_5_a2,P != T2?,Same,2,2,low,96,1.1,154,0.94,154,0.86,No,sure,cr,2.414511203765869,NA
170,3!4zpq5,False,155,1,unequal,ST2_low_1_a1,P != T2?,Same,2,1,low,82,1.39,132,1.02,132,1.04,No,sure,cr,2.6810860633850098,NA
171,3!4zpq5,False,156,1,unequal,ST2_low_4_a1,P != T1?,Same,2,1,low,112,0.96,70,1.62,70,1.44,Yes,sure,hit,3.423689842224121,NA
172,3!4zpq5,False,157,1,unequal,ST1_high_3_a1,P != T1?,Same,1,1,high,70,1.8,96,1.11,70,1.81,No,sure,cr,1.4133150577545166,NA
173,3!4zpq5,False,158,1,unequal,DT1_low_5_a1,P != T1?,Different,1,1,low,96,1.19,154,0.73,82,1.64,Yes,quiteSure,fa,1.5695850849151611,NA
174,3!4zpq5,False,159,1,unequal,STb_7_a1,P != T2?,Same,0,1,None,154,0.8,154,0.94,154,0.78,No,sure,cr,1.5984978675842285,NA
175,3!4zpq5,False,160,1,unequal,ST1_high_3_a2,P != T1?,Same,1,2,high,70,1.84,96,1.15,70,1.5,No,unsure,cr,3.487809896469116,NA
176,3!4zpq5,False,161,1,unequal,ST2_high_4_a2,P != T2?,Same,2,2,high,96,1.08,70,1.64,70,1.65,No,sure,cr,1.8252580165863037,NA
177,3!4zpq5,False,162,1,unequal,ST2_low_1_a1,P != T1?,Same,2,1,low,82,1.48,132,1.0,132,1.01,Yes,sure,hit,1.3886890411376953,NA
178,3!4zpq5,False,163,1,unequal,ST1_low_6_a2,P != T1?,Same,1,2,low,154,0.83,96,1.29,154,0.72,No,sure,cr,1.9331941604614258,NA
179,3!4zpq5,False,164,1,unequal,ST2_high_3_a2,P != T1?,Same,2,2,high,70,1.49,96,1.41,96,1.41,Yes,sure,hit,1.712184190750122,NA
180,3!4zpq5,False,165,1,unequal,ST2_high_2_a1,P != T2?,Same,2,1,high,112,1.2,82,1.35,82,1.48,No,sure,cr,1.6406009197235107,NA
181,3!4zpq5,False,166,1,unequal,STb_6_a2,P != T1?,Same,0,2,None,132,1.04,132,0.97,132,1.03,No,sure,cr,1.3231990337371826,NA
182,3!4zpq5,False,167,1,unequal,ST2_low_3_a2,P != T1?,Same,2,2,low,70,1.66,112,1.02,112,1.2,No,unsure,miss,2.882153034210205,NA
183,3!4zpq5,False,168,1,unequal,ST1_high_6_a1,P != T2?,Same,1,1,high,132,0.87,96,1.09,132,0.92,Yes,quiteSure,hit,3.8948330879211426,NA
184,3!4zpq5,False,169,1,unequal,ST1_low_5_a1,P != T2?,Same,1,1,low,96,1.33,154,0.89,96,1.42,Yes,sure,hit,2.4122989177703857,NA
185,3!4zpq5,False,170,1,unequal,ST1_low_5_a1,P != T1?,Same,1,1,low,96,1.29,154,0.91,96,1.31,No,sure,cr,1.4593510627746582,NA
186,3!4zpq5,False,171,1,unequal,ST1_high_6_a2,P != T2?,Same,1,2,high,132,1.03,96,1.4,132,0.82,Yes,sure,hit,1.2832977771759033,NA
187,3!4zpq5,False,172,1,unequal,ST1_low_5_a2,P != T2?,Same,1,2,low,96,1.4,154,0.72,96,1.14,Yes,sure,hit,1.374678134918213,NA
188,3!4zpq5,False,173,1,unequal,ST1_low_5_a2,P != T1?,Same,1,2,low,96,1.28,154,0.75,96,1.28,No,sure,cr,2.2057931423187256,NA
189,3!4zpq5,False,174,1,unequal,ST1_low_3_a2,P != T1?,Same,1,2,low,70,1.84,112,1.04,70,1.68,No,quiteSure,cr,4.8821752071380615,NA
190,3!4zpq5,False,175,1,unequal,ST2_low_3_a1,P != T1?,Same,2,1,low,70,1.79,112,1.12,112,0.95,Yes,sure,hit,1.1702837944030762,NA
191,3!4zpq5,False,176,1,unequal,ST1_low_5_a1,P != T2?,Same,1,1,low,96,1.08,154,0.76,96,1.16,Yes,sure,hit,1.708509922027588,NA
192,3!4zpq5,False,177,1,unequal,ST2_high_5_a1,P != T1?,Same,2,1,high,96,1.29,132,0.83,132,0.87,No,unsure,miss,2.0957210063934326,NA
193,3!4zpq5,False,178,1,unequal,ST1_high_6_a1,P != T1?,Same,1,1,high,132,0.94,96,1.37,132,0.91,No,sure,cr,1.3304989337921143,NA
194,3!4zpq5,False,179,1,unequal,ST1_high_4_a1,P != T1?,Same,1,1,high,96,1.19,70,1.64,96,1.15,No,quiteSure,cr,1.93428373336792,NA
195,3!4zpq5,False,180,1,unequal,ST2_high_3_a1,P != T1?,Same,2,1,high,70,1.8,96,1.21,96,1.09,Yes,unsure,hit,2.5607969760894775,NA
196,3!4zpq5,False,181,1,unequal,ST1_low_5_a1,P != T1?,Same,1,1,low,96,1.08,154,0.92,96,1.15,No,sure,cr,2.09218692779541,NA
197,3!4zpq5,False,182,1,unequal,ST1_high_5_a1,P != T2?,Same,1,1,high,96,1.2,132,1.01,96,1.15,Yes,sure,hit,1.2816429138183594,NA
198,3!4zpq5,False,183,1,unequal,STb_8_a2,P != T1?,Same,0,2,None,180,0.78,180,0.87,180,0.93,No,sure,cr,1.079477071762085,NA
199,3!4zpq5,False,184,1,unequal,ST1_low_2_a1,P != T2?,Same,1,1,low,132,0.82,82,1.55,132,1.01,Yes,sure,hit,1.2470908164978027,NA
200,3!4zpq5,False,185,1,unequal,ST2_low_2_a1,P != T1?,Same,2,1,low,132,0.91,82,1.45,82,1.57,Yes,sure,hit,2.2755630016326904,NA
201,3!4zpq5,False,186,1,unequal,ST1_high_4_a1,P != T2?,Same,1,1,high,96,1.34,70,1.73,96,1.28,Yes,sure,hit,1.3065431118011475,NA
202,3!4zpq5,False,187,1,unequal,ST2_high_4_a1,P != T1?,Same,2,1,high,96,1.15,70,1.62,70,1.73,Yes,sure,hit,1.8488948345184326,NA
203,3!4zpq5,False,188,1,unequal,ST1_low_4_a1,P != T1?,Same,1,1,low,112,1.16,70,1.71,112,1.09,No,sure,cr,2.0525338649749756,NA
204,3!4zpq5,False,189,1,unequal,ST2_high_2_a2,P != T1?,Same,2,2,high,112,1.23,82,1.48,82,1.55,Yes,sure,hit,1.7851479053497314,NA
205,3!4zpq5,False,190,1,unequal,ST1_high_2_a2,P != T2?,Same,1,2,high,112,1.22,82,1.38,112,1.12,Yes,sure,hit,1.257843255996704,NA
206,3!4zpq5,False,191,1,unequal,ST2_low_4_a1,P != T1?,Same,2,1,low,112,0.96,70,1.77,70,1.38,Yes,sure,hit,2.6545588970184326,NA
207,3!4zpq5,False,192,1,unequal,ST2_low_4_a2,P != T2?,Same,2,2,low,112,1.11,70,1.62,70,1.38,No,sure,cr,1.7335090637207031,NA
208,3!4zpq5,False,193,1,unequal,ST2_low_3_a2,P != T2?,Same,2,2,low,70,1.45,112,1.0,112,0.92,No,sure,cr,1.3717319965362549,NA
209,3!4zpq5,False,194,1,unequal,ST2_low_1_a2,P != T2?,Same,2,2,low,82,1.26,132,0.82,132,0.89,No,sure,cr,1.6453700065612793,NA
210,3!4zpq5,False,195,1,unequal,ST2_low_5_a2,P != T1?,Same,2,2,low,96,1.39,154,0.93,154,0.89,Yes,sure,hit,2.8582370281219482,NA
211,3!4zpq5,False,196,1,unequal,ST2_high_4_a1,P != T1?,Same,2,1,high,96,1.34,70,1.84,70,1.66,Yes,quiteSure,hit,3.2864999771118164,NA
212,3!4zpq5,False,197,1,unequal,ST2_low_3_a2,P != T1?,Same,2,2,low,70,1.53,112,1.23,112,1.12,Yes,sure,hit,2.9248099327087402,NA
213,3!4zpq5,False,198,1,unequal,ST1_high_1_a2,P != T1?,Same,1,2,high,82,1.4,112,1.03,82,1.5,No,sure,cr,1.5045619010925293,NA
214,3!4zpq5,False,199,1,unequal,ST2_high_5_a2,P != T2?,Same,2,2,high,96,1.32,132,1.02,132,0.97,No,sure,cr,2.7247581481933594,NA
215,3!4zpq5,False,200,1,unequal,ST1_low_4_a1,P != T2?,Same,1,1,low,112,1.06,70,1.77,112,0.94,Yes,sure,hit,1.552905797958374,NA
216,3!4zpq5,False,201,1,unequal,ST2_low_2_a2,P != T2?,Same,2,2,low,132,1.02,82,1.34,82,1.5,No,sure,cr,4.816286087036133,NA
217,3!4zpq5,False,202,1,unequal,ST1_high_2_a1,P != T1?,Same,1,1,high,112,1.18,82,1.82,112,1.19,No,sure,cr,1.4839420318603516,NA
218,3!4zpq5,False,203,1,unequal,ST1_high_5_a1,P != T2?,Same,1,1,high,96,1.11,132,0.88,96,1.29,Yes,sure,hit,1.5059220790863037,NA
219,3!4zpq5,False,204,1,unequal,DT1_high_5_a1,P != T2?,Different,1,1,high,96,1.39,132,1.03,82,1.46,Yes,sure,hit,1.9795608520507812,NA
220,3!4zpq5,False,205,1,unequal,ST2_low_4_a2,P != T2?,Same,2,2,low,112,0.96,70,1.38,70,1.66,No,sure,cr,1.9783849716186523,NA
221,3!4zpq5,False,206,1,unequal,ST1_low_3_a2,P != T1?,Same,1,2,low,70,1.83,112,1.15,70,1.81,No,unsure,cr,2.473576307296753,NA
222,3!4zpq5,False,207,1,unequal,DT2_low_2_a1,P != T1?,Different,2,1,low,132,0.96,82,1.38,70,1.57,Yes,sure,hit,1.4178450107574463,NA
223,3!4zpq5,False,208,1,unequal,ST1_high_2_a1,P != T2?,Same,1,1,high,112,0.97,82,1.25,112,0.93,Yes,sure,hit,2.0534558296203613,NA
224,3!4zpq5,False,209,1,unequal,ST2_low_3_a1,P != T2?,Same,2,1,low,70,1.74,112,0.94,112,0.96,No,sure,cr,2.904977798461914,NA
225,3!4zpq5,False,210,1,unequal,ST1_low_5_a2,P != T2?,Same,1,2,low,96,1.09,154,0.73,96,1.41,Yes,quiteSure,hit,5.49226188659668,NA
226,3!4zpq5,False,211,1,unequal,ST1_high_5_a2,P != T1?,Same,1,2,high,96,1.39,132,0.93,96,1.39,No,sure,cr,2.5659031867980957,NA
227,3!4zpq5,False,212,1,unequal,ST1_low_4_a2,P != T2?,Same,1,2,low,112,0.98,70,1.37,112,1.21,Yes,sure,hit,1.3684742450714111,NA
228,3!4zpq5,False,213,1,unequal,ST1_low_2_a2,P != T1?,Same,1,2,low,132,0.9,82,1.56,132,0.9,No,quiteSure,cr,2.631026029586792,NA
229,3!4zpq5,False,214,1,unequal,ST2_high_1_a2,P != T1?,Same,2,2,high,82,1.61,112,1.05,112,1.22,Yes,quiteSure,hit,1.4376697540283203,NA
230,3!4zpq5,False,215,1,unequal,ST1_high_2_a2,P != T1?,Same,1,2,high,112,1.06,82,1.63,112,0.93,Yes,unsure,fa,2.7425830364227295,NA
231,3!4zpq5,False,216,1,unequal,ST1_high_6_a1,P != T2?,Same,1,1,high,132,0.96,96,1.36,132,1.01,Yes,sure,hit,1.6867389678955078,NA
232,3!4zpq5,False,217,1,unequal,ST2_high_1_a1,P != T2?,Same,2,1,high,82,1.38,112,0.91,112,0.99,No,sure,cr,1.9811880588531494,NA
233,3!4zpq5,False,218,1,unequal,ST1_low_4_a2,P != T1?,Same,1,2,low,112,1.02,70,1.75,112,1.2,No,sure,cr,2.20291805267334,NA
234,3!4zpq5,False,219,1,unequal,ST2_low_4_a2,P != T2?,Same,2,2,low,112,1.01,70,1.64,70,1.44,No,sure,cr,2.361175060272217,NA
235,3!4zpq5,False,220,1,unequal,ST1_low_1_a2,P != T1?,Same,1,2,low,82,1.37,132,0.92,82,1.46,No,sure,cr,2.0298731327056885,NA
236,3!4zpq5,False,221,1,unequal,ST2_high_1_a1,P != T1?,Same,2,1,high,82,1.58,112,1.11,112,1.18,Yes,sure,hit,1.6866810321807861,NA
237,3!4zpq5,False,222,1,unequal,ST1_low_3_a1,P != T1?,Same,1,1,low,70,1.7,112,0.99,70,1.53,No,quiteSure,cr,1.7781260013580322,NA
238,3!4zpq5,False,223,1,unequal,ST1_high_5_a1,P != T1?,Same,1,1,high,96,1.31,132,0.79,96,1.41,No,quiteSure,cr,1.5283708572387695,NA
239,3!4zpq5,False,224,1,unequal,ST1_low_6_a1,P != T2?,Same,1,1,low,154,0.92,96,1.25,154,0.72,Yes,unsure,hit,2.0925350189208984,NA
240,3!4zpq5,False,225,1,unequal,ST2_low_6_a1,P != T2?,Same,2,1,low,154,0.84,96,1.25,96,1.14,No,unsure,cr,4.926721811294556,NA
241,3!4zpq5,False,226,1,unequal,ST1_high_1_a1,P != T1?,Same,1,1,high,82,1.47,112,1.05,82,1.28,Yes,sure,fa,1.7969160079956055,NA
242,3!4zpq5,False,227,1,unequal,ST2_low_2_a2,P != T1?,Same,2,2,low,132,1.04,82,1.34,82,1.33,Yes,sure,hit,1.3456521034240723,NA
243,3!4zpq5,False,228,1,unequal,ST1_low_4_a2,P != T1?,Same,1,2,low,112,0.98,70,1.7,112,0.97,No,sure,cr,1.5282821655273438,NA
244,3!4zpq5,False,229,1,unequal,ST2_low_6_a1,P != T1?,Same,2,1,low,154,0.89,96,1.16,96,1.4,No,quiteSure,miss,4.318129777908325,NA
245,3!4zpq5,False,230,1,unequal,DT2_low_3_a1,P != T2?,Different,2,1,low,70,1.67,112,1.22,132,0.94,Yes,unsure,fa,4.138558864593506,NA
246,3!4zpq5,False,231,1,unequal,ST1_high_6_a1,P != T1?,Same,1,1,high,132,1.03,96,1.35,132,0.78,No,sure,cr,1.9770598411560059,NA
247,3!4zpq5,False,232,1,unequal,DT2_high_6_a2,P != T2?,Different,2,2,high,132,1.04,96,1.2,82,1.36,Yes,quiteSure,fa,1.487097978591919,NA
248,3!4zpq5,False,233,1,unequal,ST1_low_1_a1,P != T1?,Same,1,1,low,82,1.4,132,0.8,82,1.24,No,unsure,cr,3.017918825149536,NA
249,3!4zpq5,False,234,1,unequal,ST1_low_6_a1,P != T1?,Same,1,1,low,154,0.77,96,1.2,154,0.89,No,sure,cr,1.5058178901672363,NA
250,3!4zpq5,False,235,1,unequal,ST2_high_5_a1,P != T1?,Same,2,1,high,96,1.26,132,0.98,132,0.89,Yes,sure,hit,1.5969250202178955,NA
251,3!4zpq5,False,236,1,unequal,DT1_high_4_a1,P != T2?,Different,1,1,high,96,1.32,70,1.59,112,0.96,Yes,sure,hit,1.9387130737304688,NA
252,3!4zpq5,False,237,1,unequal,ST1_low_2_a1,P != T1?,Same,1,1,low,132,1.04,82,1.41,132,0.89,No,sure,cr,1.32806396484375,NA
253,3!4zpq5,False,238,1,unequal,ST1_high_5_a1,P != T1?,Same,1,1,high,96,1.22,132,0.91,96,1.12,No,quiteSure,cr,1.9087469577789307,NA
254,3!4zpq5,False,239,1,unequal,ST2_high_4_a1,P != T1?,Same,2,1,high,96,1.32,70,1.59,70,1.8,Yes,unsure,hit,5.986627101898193,NA
255,3!4zpq5,False,240,1,unequal,ST2_high_1_a1,P != T2?,Same,2,1,high,82,1.48,112,1.21,112,1.13,No,sure,cr,1.5570323467254639,NA
256,3!4zpq5,False,241,1,unequal,ST1_low_2_a2,P != T2?,Same,1,2,low,132,1.02,82,1.52,132,1.03,Yes,sure,hit,1.8260080814361572,NA
257,3!4zpq5,False,242,1,unequal,ST1_high_2_a1,P != T1?,Same,1,1,high,112,1.23,82,1.54,112,1.1,No,sure,cr,1.6612250804901123,NA
258,3!4zpq5,False,243,1,unequal,ST2_high_5_a1,P != T2?,Same,2,1,high,96,1.17,132,1.01,132,1.03,No,quiteSure,cr,1.8941740989685059,NA
259,3!4zpq5,False,244,1,unequal,ST1_high_3_a2,P != T2?,Same,1,2,high,70,1.58,96,1.42,70,1.76,Yes,sure,hit,2.613162040710449,NA
260,3!4zpq5,False,245,1,unequal,ST2_low_1_a2,P != T1?,Same,2,2,low,82,1.49,132,1.06,132,0.92,Yes,sure,hit,3.328542947769165,NA
261,3!4zpq5,False,246,1,unequal,STb_5_a2,P != T1?,Same,0,2,None,112,1.15,112,1.1,112,0.97,No,sure,cr,2.4508888721466064,NA
262,3!4zpq5,False,247,1,unequal,ST1_high_3_a2,P != T2?,Same,1,2,high,70,1.54,96,1.21,70,1.63,Yes,sure,hit,1.372262716293335,NA
263,3!4zpq5,False,248,1,unequal,ST2_high_2_a1,P != T2?,Same,2,1,high,112,1.04,82,1.63,82,1.52,No,quiteSure,cr,4.727942228317261,NA
264,3!4zpq5,False,249,1,unequal,DT1_low_1_a1,P != T2?,Different,1,1,low,82,1.48,132,0.88,70,1.73,Yes,sure,hit,1.2882370948791504,NA
265,3!4zpq5,False,250,1,unequal,ST1_high_2_a2,P != T2?,Same,1,2,high,112,1.09,82,1.43,112,1.05,Yes,sure,hit,1.3775641918182373,NA
266,3!4zpq5,False,251,1,unequal,ST2_high_6_a1,P != T2?,Same,2,1,high,132,1.06,96,1.26,96,1.21,No,quiteSure,cr,1.7309162616729736,NA
267,3!4zpq5,False,252,1,unequal,ST1_high_4_a2,P != T2?,Same,1,2,high,96,1.07,70,1.69,96,1.22,Yes,sure,hit,1.2424249649047852,NA
268,3!4zpq5,False,253,1,unequal,ST2_high_3_a1,P != T2?,Same,2,1,high,70,1.53,96,1.33,96,1.24,No,quiteSure,cr,1.712522029876709,NA
269,3!4zpq5,False,254,1,unequal,ST2_low_6_a2,P != T2?,Same,2,2,low,154,0.8,96,1.15,96,1.2,No,sure,cr,1.8677821159362793,NA
270,3!4zpq5,False,255,1,unequal,ST2_high_3_a2,P != T2?,Same,2,2,high,70,1.79,96,1.29,96,1.15,No,quiteSure,cr,4.609044075012207,NA
271,3!4zpq5,False,256,1,unequal,ST2_low_6_a1,P != T2?,Same,2,1,low,154,0.78,96,1.3,96,1.4,No,quiteSure,cr,6.002567768096924,NA
272,3!4zpq5,False,257,1,unequal,ST1_high_3_a1,P != T2?,Same,1,1,high,70,1.44,96,1.08,70,1.47,Yes,sure,hit,3.5113887786865234,NA
273,3!4zpq5,False,258,1,unequal,DT1_low_4_a2,P != T1?,Different,1,2,low,112,1.07,70,1.69,132,0.93,No,quiteSure,cr,2.8088719844818115,NA
274,3!4zpq5,False,259,1,unequal,ST1_low_1_a1,P != T2?,Same,1,1,low,82,1.37,132,0.99,82,1.23,Yes,sure,hit,1.3251428604125977,NA
275,3!4zpq5,False,260,1,unequal,ST2_low_4_a1,P != T2?,Same,2,1,low,112,1.14,70,1.49,70,1.57,No,sure,cr,1.6020698547363281,NA
276,3!4zpq5,False,261,1,unequal,ST1_high_3_a2,P != T1?,Same,1,2,high,70,1.49,96,1.24,70,1.71,No,sure,cr,2.0717570781707764,NA
277,3!4zpq5,False,262,1,unequal,ST1_low_2_a2,P != T1?,Same,1,2,low,132,1.06,82,1.4,132,0.9,No,sure,cr,1.9763100147247314,NA
278,3!4zpq5,False,263,1,unequal,STb_1_a1,P != T1?,Same,0,1,None,60,1.56,60,1.85,60,1.79,No,sure,cr,1.2815661430358887,NA
279,3!4zpq5,False,264,1,unequal,ST1_low_5_a1,P != T1?,Same,1,1,low,96,1.15,154,0.95,96,1.06,No,unsure,cr,1.8687407970428467,NA
280,3!4zpq5,False,265,1,unequal,ST2_high_5_a2,P != T2?,Same,2,2,high,96,1.32,132,1.0,132,1.03,No,sure,cr,2.0263679027557373,NA
281,3!4zpq5,False,266,1,unequal,STb_8_a1,P != T1?,Same,0,1,None,180,0.92,180,0.92,180,0.74,No,sure,cr,1.3053860664367676,NA
282,3!4zpq5,False,267,1,unequal,ST2_low_1_a1,P != T1?,Same,2,1,low,82,1.57,132,1.02,132,0.83,Yes,quiteSure,hit,3.509537935256958,NA
283,3!4zpq5,False,268,1,unequal,ST2_high_4_a1,P != T2?,Same,2,1,high,96,1.26,70,1.81,70,1.79,Yes,unsure,fa,4.7474470138549805,NA
284,3!4zpq5,False,269,1,unequal,ST1_high_3_a1,P != T1?,Same,1,1,high,70,1.85,96,1.17,70,1.79,No,sure,cr,1.4842579364776611,NA
285,3!4zpq5,False,270,1,unequal,ST1_low_4_a2,P != T1?,Same,1,2,low,112,1.17,70,1.82,112,1.21,No,sure,cr,1.2606971263885498,NA
286,3!4zpq5,False,271,1,unequal,ST1_low_5_a2,P != T1?,Same,1,2,low,96,1.22,154,0.87,96,1.19,No,sure,cr,1.347423791885376,NA
287,3!4zpq5,False,272,1,unequal,ST1_high_1_a2,P != T1?,Same,1,2,high,82,1.38,112,1.1,82,1.6,No,quiteSure,cr,1.259232997894287,NA
288,3!4zpq5,False,273,1,unequal,ST2_high_5_a2,P != T1?,Same,2,2,high,96,1.22,132,0.84,132,0.92,No,unsure,miss,3.0646018981933594,NA
289,3!4zpq5,False,274,1,unequal,ST2_low_1_a1,P != T2?,Same,2,1,low,82,1.4,132,1.04,132,0.89,No,sure,cr,1.5054502487182617,NA
290,3!4zpq5,False,275,1,unequal,ST1_low_6_a2,P != T1?,Same,1,2,low,154,0.72,96,1.32,154,0.73,Yes,quiteSure,fa,2.635035276412964,NA
291,3!4zpq5,False,276,1,unequal,STb_4_a1,P != T1?,Same,0,1,None,96,1.42,96,1.39,96,1.19,No,sure,cr,1.102510690689087,NA
292,3!4zpq5,False,277,1,unequal,ST1_high_6_a2,P != T1?,Same,1,2,high,132,0.81,96,1.23,132,1.03,Yes,quiteSure,fa,1.6647851467132568,NA
293,3!4zpq5,False,278,1,unequal,ST1_low_5_a1,P != T2?,Same,1,1,low,96,1.25,154,0.95,96,1.13,Yes,sure,hit,1.7067961692810059,NA
294,3!4zpq5,False,279,1,unequal,ST1_high_1_a2,P != T1?,Same,1,2,high,82,1.44,112,1.16,82,1.62,No,sure,cr,1.1486339569091797,NA
295,3!4zpq5,False,280,1,unequal,ST2_low_3_a1,P != T2?,Same,2,1,low,70,1.68,112,1.1,112,1.04,No,sure,cr,2.0018019676208496,NA
296,3!4zpq5,False,281,1,unequal,ST1_low_3_a1,P != T2?,Same,1,1,low,70,1.79,112,0.95,70,1.27,No,sure,miss,3.1277191638946533,NA
297,3!4zpq5,False,282,1,unequal,ST1_low_3_a1,P != T1?,Same,1,1,low,70,1.54,112,1.0,70,1.47,No,sure,cr,1.3498239517211914,NA
298,3!4zpq5,False,283,1,unequal,ST2_low_6_a2,P != T2?,Same,2,2,low,154,0.79,96,1.29,96,1.38,No,unsure,cr,5.173582077026367,NA
299,3!4zpq5,False,284,1,unequal,ST2_low_1_a1,P != T2?,Same,2,1,low,82,1.11,132,0.87,132,0.88,No,sure,cr,1.865128993988037,NA
300,3!4zpq5,False,285,1,unequal,ST1_low_6_a2,P != T1?,Same,1,2,low,154,0.72,96,1.27,154,0.86,Yes,quiteSure,fa,1.6435060501098633,NA
301,3!4zpq5,False,286,1,unequal,ST1_high_1_a1,P != T2?,Same,1,1,high,82,1.45,112,1.01,82,1.61,No,unsure,miss,2.4563357830047607,NA
302,3!4zpq5,False,287,1,unequal,ST2_high_6_a1,P != T1?,Same,2,1,high,132,0.92,96,1.09,96,1.25,Yes,quiteSure,hit,2.4545531272888184,NA
303,3!4zpq5,False,288,1,unequal,ST1_low_1_a2,P != T2?,Same,1,2,low,82,1.38,132,1.04,82,1.42,Yes,sure,hit,1.8645858764648438,NA
304,3!4zpq5,False,289,1,unequal,ST2_high_5_a1,P != T2?,Same,2,1,high,96,1.27,132,0.93,132,1.02,No,sure,cr,1.758178949356079,NA
305,3!4zpq5,False,290,1,unequal,ST1_low_2_a1,P != T2?,Same,1,1,low,132,0.81,82,1.59,132,0.8,Yes,sure,hit,1.5761780738830566,NA
306,3!4zpq5,False,291,1,unequal,ST1_low_2_a2,P != T2?,Same,1,2,low,132,1.04,82,1.52,132,0.89,Yes,sure,hit,1.6657850742340088,NA
307,3!4zpq5,False,292,1,unequal,ST2_high_6_a2,P != T2?,Same,2,2,high,132,0.99,96,1.17,96,1.29,No,sure,cr,1.6936140060424805,NA
308,3!4zpq5,False,293,1,unequal,ST2_high_2_a2,P != T1?,Same,2,2,high,112,1.23,82,1.61,82,1.41,Yes,sure,hit,1.5085527896881104,NA
309,3!4zpq5,False,294,1,unequal,ST2_high_4_a2,P != T1?,Same,2,2,high,96,1.39,70,1.7,70,1.48,Yes,sure,hit,1.1494548320770264,NA
310,3!4zpq5,False,295,1,unequal,ST2_high_3_a1,P != T1?,Same,2,1,high,70,1.59,96,1.17,96,1.36,Yes,sure,hit,0.8810980319976807,NA
311,3!4zpq5,False,296,1,unequal,ST1_high_1_a2,P != T2?,Same,1,2,high,82,1.45,112,1.14,82,1.6,Yes,sure,hit,1.4897148609161377,NA
312,3!4zpq5,False,297,1,unequal,ST2_high_3_a1,P != T2?,Same,2,1,high,70,1.78,96,1.19,96,1.21,No,sure,cr,1.4986989498138428,NA
313,3!4zpq5,False,298,1,unequal,ST2_high_1_a1,P != T1?,Same,2,1,high,82,1.48,112,0.99,112,1.09,Yes,quiteSure,hit,2.792433261871338,NA
314,3!4zpq5,False,299,1,unequal,ST2_high_6_a1,P != T1?,Same,2,1,high,132,1.02,96,1.4,96,1.06,Yes,sure,hit,1.6209661960601807,NA
315,3!4zpq5,False,300,1,unequal,DT2_low_6_a1,P != T1?,Different,2,1,low,154,0.71,96,1.4,82,1.61,Yes,sure,hit,1.300058126449585,NA
316,3!4zpq5,False,301,1,unequal,ST2_high_6_a1,P != T1?,Same,2,1,high,132,1.04,96,1.39,96,1.19,Yes,sure,hit,1.371598720550537,NA
317,3!4zpq5,False,302,1,unequal,ST1_high_1_a2,P != T2?,Same,1,2,high,82,1.54,112,0.94,82,1.61,Yes,unsure,hit,3.7810957431793213,NA
318,3!4zpq5,False,303,1,unequal,ST2_high_1_a2,P != T2?,Same,2,2,high,82,1.58,112,1.05,112,1.04,No,sure,cr,2.4305222034454346,NA
319,3!4zpq5,False,304,1,unequal,ST1_low_3_a1,P != T2?,Same,1,1,low,70,1.58,112,0.97,70,1.84,Yes,sure,hit,1.2589490413665771,NA
320,3!4zpq5,False,305,1,unequal,ST2_high_1_a1,P != T2?,Same,2,1,high,82,1.49,112,1.23,112,0.97,No,sure,cr,2.004293203353882,NA
321,3!4zpq5,False,306,1,unequal,ST2_low_6_a1,P != T1?,Same,2,1,low,154,0.77,96,1.39,96,1.33,No,quiteSure,miss,3.3562121391296387,NA
322,3!4zpq5,False,307,1,unequal,ST1_high_2_a2,P != T1?,Same,1,2,high,112,1.21,82,1.39,112,1.05,No,sure,cr,1.2136733531951904,NA
323,3!4zpq5,False,308,1,unequal,ST2_low_3_a2,P != T2?,Same,2,2,low,70,1.38,112,0.99,112,0.99,No,sure,cr,1.4835929870605469,NA
324,3!4zpq5,False,309,1,unequal,ST1_low_4_a1,P != T1?,Same,1,1,low,112,1.02,70,1.53,112,0.99,No,sure,cr,1.6229329109191895,NA
325,3!4zpq5,False,310,1,unequal,ST2_high_1_a1,P != T1?,Same,2,1,high,82,1.48,112,1.23,112,0.92,Yes,sure,hit,2.5621681213378906,NA
326,3!4zpq5,False,311,1,unequal,ST2_low_1_a2,P != T1?,Same,2,2,low,82,1.62,132,1.04,132,0.89,Yes,sure,hit,3.099660873413086,NA
327,3!4zpq5,False,312,1,unequal,ST2_low_2_a2,P != T2?,Same,2,2,low,132,0.82,82,1.61,82,1.42,No,sure,cr,3.418513774871826,NA
328,3!4zpq5,False,313,1,unequal,ST1_high_6_a2,P != T2?,Same,1,2,high,132,0.93,96,1.23,132,0.94,No,unsure,miss,6.479480028152466,NA
329,3!4zpq5,False,314,1,unequal,ST1_high_5_a2,P != T1?,Same,1,2,high,96,1.18,132,1.05,96,1.18,No,sure,cr,1.6869401931762695,NA
330,3!4zpq5,False,315,1,unequal,ST1_low_4_a1,P != T2?,Same,1,1,low,112,1.07,70,1.85,112,0.93,No,quiteSure,miss,3.1728267669677734,NA
331,3!4zpq5,False,316,1,unequal,ST1_high_2_a1,P != T1?,Same,1,1,high,112,0.98,82,1.31,112,1.05,No,quiteSure,cr,1.705561876296997,NA
332,3!4zpq5,False,317,1,unequal,ST1_low_5_a2,P != T1?,Same,1,2,low,96,1.33,154,0.84,96,1.35,No,sure,cr,1.3066132068634033,NA
333,3!4zpq5,False,318,1,unequal,ST1_high_6_a1,P != T1?,Same,1,1,high,132,0.98,96,1.25,132,0.95,No,sure,cr,1.3295402526855469,NA
334,3!4zpq5,False,319,1,unequal,ST2_high_2_a2,P != T2?,Same,2,2,high,112,1.14,82,1.39,82,1.43,Yes,unsure,fa,3.688814163208008,NA
335,3!4zpq5,False,320,1,unequal,ST2_high_3_a2,P != T2?,Same,2,2,high,70,1.58,96,1.24,96,1.37,No,sure,cr,1.3483021259307861,0.25
