,pcode,practice,trial,block,questionType,condition,question,PTS,TargetPosition,AccessoryPosition,TNS,T1_hz,T1_amp,T2_hz,T2_amp,P_hz,P_amp,response_dicho,response_rating,response_sdt,rt,P_correct
0,9#i0as7,True,1,2,unequal,STb_5_a1,P != T1?,Same,0,1,None,112,0.98,112,0.99,112,1.05,No,unsure,cr,3.3763041496276855,NA
1,9#i0as7,True,2,2,unequal,STb_5_a2,P != T2?,Same,0,2,None,112,1.16,112,1.07,112,1.2,No,unsure,cr,1.2002720832824707,NA
2,9#i0as7,True,3,2,unequal,DT2_low_6_a1,P != T2?,Different,2,1,low,154,0.85,96,1.06,82,1.42,No,unsure,cr,3.6488399505615234,NA
3,9#i0as7,True,4,2,unequal,ST2_high_4_a2,P != T2?,Same,2,2,high,96,1.56,70,1.77,70,1.56,No,unsure,cr,2.3255250453948975,NA
4,9#i0as7,True,5,2,unequal,ST2_high_4_a2,P != T1?,Same,2,2,high,96,1.19,70,1.41,70,1.49,Yes,unsure,hit,2.511363983154297,NA
5,9#i0as7,True,6,2,unequal,ST2_low_2_a2,P != T1?,Same,2,2,low,132,0.84,82,1.29,82,1.4,Yes,unsure,hit,2.3973000049591064,NA
6,9#i0as7,True,7,2,unequal,STb_6_a2,P != T2?,Same,0,2,None,132,0.82,132,0.97,132,1.0,No,unsure,cr,2.123710870742798,NA
7,9#i0as7,True,8,2,unequal,ST1_low_5_a1,P != T1?,Same,1,1,low,96,1.5,154,0.84,96,1.17,No,unsure,cr,5.365711688995361,NA
8,9#i0as7,True,9,2,unequal,DT2_high_3_a2,P != T2?,Different,2,2,high,70,1.46,96,1.41,112,0.95,Yes,unsure,fa,4.399386167526245,NA
9,9#i0as7,True,10,2,unequal,ST2_low_3_a1,P != T2?,Same,2,1,low,70,1.54,112,0.98,112,0.85,No,unsure,cr,3.6094541549682617,NA
10,9#i0as7,True,11,2,unequal,STb_4_a2,P != T1?,Same,0,2,None,96,1.07,96,1.32,96,1.36,No,unsure,cr,2.571316957473755,NA
11,9#i0as7,True,12,2,unequal,DT1_low_6_a1,P != T1?,Different,1,1,low,154,0.77,96,1.41,180,0.8,Yes,unsure,fa,9.075339078903198,NA
12,9#i0as7,True,13,2,unequal,ST1_high_3_a2,P != T2?,Same,1,2,high,70,2.02,96,1.39,70,1.49,Yes,unsure,hit,2.6815690994262695,NA
13,9#i0as7,True,14,2,unequal,DT2_low_1_a1,P != T1?,Different,2,1,low,82,1.3,132,0.9,154,0.81,Yes,unsure,hit,1.9659688472747803,NA
14,9#i0as7,True,15,2,unequal,ST1_high_1_a1,P != T2?,Same,1,1,high,82,1.4,112,1.03,82,1.13,Yes,unsure,hit,1.9201128482818604,NA
15,9#i0as7,True,16,2,unequal,ST1_high_4_a1,P != T1?,Same,1,1,high,96,1.22,70,1.46,96,0.95,No,unsure,cr,3.4528729915618896,0.75
16,9#i0as7,False,1,2,unequal,ST1_low_6_a2,P != T2?,Same,1,2,low,154,0.94,96,1.38,154,0.75,Yes,unsure,hit,4.324284076690674,NA
17,9#i0as7,False,2,2,unequal,ST1_low_4_a1,P != T2?,Same,1,1,low,112,1.14,70,1.51,112,0.99,Yes,unsure,hit,2.386512041091919,NA
18,9#i0as7,False,3,2,unequal,ST1_high_4_a1,P != T1?,Same,1,1,high,96,1.3,70,1.41,96,1.15,No,unsure,cr,2.5473668575286865,NA
19,9#i0as7,False,4,2,unequal,DT2_low_5_a2,P != T1?,Different,2,2,low,96,1.4,154,0.88,180,0.84,Yes,unsure,hit,1.2266700267791748,NA
20,9#i0as7,False,5,2,unequal,ST1_low_5_a1,P != T2?,Same,1,1,low,96,1.43,154,0.81,96,1.07,Yes,unsure,hit,1.9950621128082275,NA
21,9#i0as7,False,6,2,unequal,ST1_high_4_a2,P != T1?,Same,1,2,high,96,1.15,70,1.47,96,1.1,No,unsure,cr,2.145129919052124,NA
22,9#i0as7,False,7,2,unequal,ST1_low_2_a1,P != T2?,Same,1,1,low,132,1.06,82,1.6,132,0.81,Yes,unsure,hit,1.1864798069000244,NA
23,9#i0as7,False,8,2,unequal,ST1_high_2_a1,P != T2?,Same,1,1,high,112,1.01,82,1.48,112,1.16,Yes,unsure,hit,3.564497947692871,NA
24,9#i0as7,False,9,2,unequal,ST2_high_4_a2,P != T1?,Same,2,2,high,96,1.14,70,1.79,70,1.81,Yes,unsure,hit,1.2038600444793701,NA
25,9#i0as7,False,10,2,unequal,ST1_low_5_a1,P != T2?,Same,1,1,low,96,1.38,154,0.86,96,1.08,Yes,unsure,hit,4.150500059127808,NA
26,9#i0as7,False,11,2,unequal,ST2_high_6_a1,P != T1?,Same,2,1,high,132,0.97,96,1.19,96,1.41,Yes,unsure,hit,5.611741781234741,NA
27,9#i0as7,False,12,2,unequal,ST2_low_2_a1,P != T2?,Same,2,1,low,132,0.81,82,1.51,82,1.27,No,unsure,cr,1.6096739768981934,NA
28,9#i0as7,False,13,2,unequal,DT2_high_1_a1,P != T2?,Different,2,1,high,82,1.25,112,1.22,132,0.93,Yes,unsure,fa,4.173022985458374,NA
29,9#i0as7,False,14,2,unequal,ST1_low_2_a2,P != T2?,Same,1,2,low,132,0.9,82,1.63,132,0.87,Yes,unsure,hit,2.3670520782470703,NA
30,9#i0as7,False,15,2,unequal,ST2_high_5_a2,P != T1?,Same,2,2,high,96,1.19,132,0.81,132,0.81,Yes,unsure,hit,1.5846550464630127,NA
31,9#i0as7,False,16,2,unequal,ST2_low_1_a1,P != T2?,Same,2,1,low,82,1.46,132,0.79,132,0.87,No,unsure,cr,1.9856770038604736,NA
32,9#i0as7,False,17,2,unequal,STb_4_a2,P != T2?,Same,0,2,None,96,1.33,96,1.23,96,1.19,No,unsure,cr,1.8572452068328857,NA
33,9#i0as7,False,18,2,unequal,ST2_low_1_a1,P != T1?,Same,2,1,low,82,1.27,132,1.04,132,0.87,No,unsure,miss,1.1105127334594727,NA
34,9#i0as7,False,19,2,unequal,STb_2_a1,P != T2?,Same,0,1,None,70,1.84,70,1.48,70,1.47,No,unsure,cr,1.0171709060668945,NA
35,9#i0as7,False,20,2,unequal,ST2_high_6_a2,P != T2?,Same,2,2,high,132,0.89,96,1.16,96,1.34,No,unsure,cr,1.6641850471496582,NA
36,9#i0as7,False,21,2,unequal,ST1_high_4_a1,P != T1?,Same,1,1,high,96,1.43,70,1.57,96,1.28,No,unsure,cr,1.828253984451294,NA
37,9#i0as7,False,22,2,unequal,ST2_high_5_a1,P != T1?,Same,2,1,high,96,1.06,132,0.92,132,0.81,Yes,unsure,hit,1.426826000213623,NA
38,9#i0as7,False,23,2,unequal,ST2_high_4_a1,P != T2?,Same,2,1,high,96,1.14,70,1.62,70,1.67,No,unsure,cr,4.934184789657593,NA
39,9#i0as7,False,24,2,unequal,ST2_high_3_a2,P != T2?,Same,2,2,high,70,1.47,96,1.06,96,1.06,No,unsure,cr,10.535892009735107,NA
40,9#i0as7,False,25,2,unequal,ST2_high_1_a1,P != T1?,Same,2,1,high,82,1.3,112,1.02,112,1.2,Yes,unsure,hit,1.928534984588623,NA
41,9#i0as7,False,26,2,unequal,ST2_high_1_a2,P != T2?,Same,2,2,high,82,1.43,112,0.97,112,1.17,No,unsure,cr,1.3813881874084473,NA
42,9#i0as7,False,27,2,unequal,ST2_low_1_a2,P != T1?,Same,2,2,low,82,1.56,132,1.04,132,0.87,Yes,unsure,hit,2.2917470932006836,NA
43,9#i0as7,False,28,2,unequal,ST1_high_1_a1,P != T1?,Same,1,1,high,82,1.56,112,0.93,82,1.34,Yes,unsure,fa,9.411295890808105,NA
44,9#i0as7,False,29,2,unequal,ST1_high_6_a2,P != T1?,Same,1,2,high,132,0.79,96,1.37,132,0.88,No,unsure,cr,3.9176409244537354,NA
45,9#i0as7,False,30,2,unequal,ST2_low_3_a2,P != T2?,Same,2,2,low,70,1.79,112,0.99,112,1.22,No,unsure,cr,2.2656750679016113,NA
46,9#i0as7,False,31,2,unequal,ST1_low_5_a2,P != T1?,Same,1,2,low,96,1.28,154,0.91,96,1.2,No,unsure,cr,1.1747889518737793,NA
47,9#i0as7,False,32,2,unequal,ST2_low_4_a1,P != T2?,Same,2,1,low,112,1.03,70,1.38,70,1.83,No,unsure,cr,3.066956043243408,NA
48,9#i0as7,False,33,2,unequal,ST2_low_4_a2,P != T1?,Same,2,2,low,112,1.12,70,1.8,70,1.5,Yes,unsure,hit,6.542762041091919,NA
49,9#i0as7,False,34,2,unequal,ST1_high_6_a2,P != T1?,Same,1,2,high,132,0.94,96,1.28,132,0.9,No,unsure,cr,1.7365312576293945,NA
50,9#i0as7,False,35,2,unequal,ST1_high_2_a2,P != T1?,Same,1,2,high,112,1.01,82,1.48,112,1.16,No,unsure,cr,4.619201183319092,NA
51,9#i0as7,False,36,2,unequal,ST1_high_5_a1,P != T2?,Same,1,1,high,96,1.29,132,0.99,96,1.3,Yes,unsure,hit,4.097710132598877,NA
52,9#i0as7,False,37,2,unequal,ST1_low_6_a2,P != T1?,Same,1,2,low,154,0.71,96,1.33,154,0.82,No,unsure,cr,2.4856820106506348,NA
53,9#i0as7,False,38,2,unequal,ST2_low_2_a2,P != T1?,Same,2,2,low,132,0.96,82,1.39,82,1.41,Yes,unsure,hit,7.3227550983428955,NA
54,9#i0as7,False,39,2,unequal,ST1_high_5_a2,P != T2?,Same,1,2,high,96,1.41,132,0.8,96,1.19,No,unsure,miss,2.165346145629883,NA
55,9#i0as7,False,40,2,unequal,DT1_high_4_a2,P != T1?,Different,1,2,high,96,1.12,70,1.59,112,1.12,Yes,unsure,fa,2.66227388381958,NA
56,9#i0as7,False,41,2,unequal,ST2_high_1_a2,P != T2?,Same,2,2,high,82,1.21,112,0.92,112,0.94,Yes,unsure,fa,6.73947286605835,NA
57,9#i0as7,False,42,2,unequal,ST1_low_1_a2,P != T1?,Same,1,2,low,82,1.49,132,0.89,82,1.42,No,unsure,cr,2.214887857437134,NA
58,9#i0as7,False,43,2,unequal,ST1_high_1_a2,P != T1?,Same,1,2,high,82,1.35,112,1.08,82,1.39,No,unsure,cr,3.1568491458892822,NA
59,9#i0as7,False,44,2,unequal,ST1_low_2_a2,P != T1?,Same,1,2,low,132,0.91,82,1.4,132,0.79,No,unsure,cr,2.5257930755615234,NA
60,9#i0as7,False,45,2,unequal,ST1_low_6_a2,P != T2?,Same,1,2,low,154,0.78,96,1.22,154,0.81,Yes,unsure,hit,1.670517921447754,NA
61,9#i0as7,False,46,2,unequal,ST1_high_3_a2,P != T2?,Same,1,2,high,70,2.02,96,1.39,70,1.49,Yes,unsure,hit,1.5124750137329102,NA
62,9#i0as7,False,47,2,unequal,ST1_low_6_a2,P != T2?,Same,1,2,low,154,0.76,96,1.41,154,0.76,Yes,unsure,hit,5.477531909942627,NA
63,9#i0as7,False,48,2,unequal,ST1_high_6_a1,P != T2?,Same,1,1,high,132,0.92,96,1.07,132,0.99,Yes,unsure,hit,6.95939302444458,NA
64,9#i0as7,False,49,2,unequal,DT1_high_5_a2,P != T1?,Different,1,2,high,96,1.29,132,1.05,82,1.51,Yes,unsure,fa,1.582395076751709,NA
65,9#i0as7,False,50,2,unequal,ST1_high_1_a2,P != T2?,Same,1,2,high,82,1.54,112,1.19,82,1.5,Yes,unsure,hit,2.0532190799713135,NA
66,9#i0as7,False,51,2,unequal,ST2_low_5_a2,P != T1?,Same,2,2,low,96,1.36,154,0.79,154,0.81,Yes,unsure,hit,2.8642070293426514,NA
67,9#i0as7,False,52,2,unequal,ST2_high_1_a1,P != T2?,Same,2,1,high,82,1.62,112,1.08,112,1.11,No,unsure,cr,4.350613117218018,NA
68,9#i0as7,False,53,2,unequal,ST1_low_5_a2,P != T2?,Same,1,2,low,96,1.35,154,0.72,96,1.11,No,unsure,miss,1.4686520099639893,NA
69,9#i0as7,False,54,2,unequal,ST1_high_6_a2,P != T1?,Same,1,2,high,132,0.8,96,1.33,132,0.99,No,unsure,cr,1.4871180057525635,NA
70,9#i0as7,False,55,2,unequal,ST2_low_1_a2,P != T2?,Same,2,2,low,82,1.35,132,1.03,132,0.93,No,unsure,cr,1.8967368602752686,NA
71,9#i0as7,False,56,2,unequal,ST2_low_4_a2,P != T1?,Same,2,2,low,112,0.95,70,1.55,70,1.65,Yes,unsure,hit,1.4489960670471191,NA
72,9#i0as7,False,57,2,unequal,ST2_high_2_a2,P != T1?,Same,2,2,high,112,1.21,82,1.51,82,1.4,Yes,unsure,hit,1.544529914855957,NA
73,9#i0as7,False,58,2,unequal,ST2_low_6_a2,P != T1?,Same,2,2,low,154,0.87,96,1.07,96,1.25,Yes,unsure,hit,1.7402031421661377,NA
74,9#i0as7,False,59,2,unequal,ST2_high_4_a1,P != T1?,Same,2,1,high,96,1.4,70,1.78,70,1.59,Yes,unsure,hit,1.4273102283477783,NA
75,9#i0as7,False,60,2,unequal,ST2_low_5_a2,P != T2?,Same,2,2,low,96,1.16,154,0.95,154,0.83,No,unsure,cr,2.7552990913391113,NA
76,9#i0as7,False,61,2,unequal,ST2_high_4_a1,P != T1?,Same,2,1,high,96,1.08,70,1.83,70,1.68,Yes,unsure,hit,1.176361083984375,NA
77,9#i0as7,False,62,2,unequal,ST1_low_5_a2,P != T2?,Same,1,2,low,96,1.12,154,0.73,96,1.29,Yes,unsure,hit,7.96934700012207,NA
78,9#i0as7,False,63,2,unequal,ST1_low_1_a1,P != T2?,Same,1,1,low,82,1.44,132,1.01,82,1.59,Yes,unsure,hit,7.145650148391724,NA
79,9#i0as7,False,64,2,unequal,ST1_high_3_a2,P != T2?,Same,1,2,high,70,1.69,96,1.14,70,1.72,Yes,unsure,hit,1.8800442218780518,NA
80,9#i0as7,False,65,2,unequal,ST1_high_1_a2,P != T2?,Same,1,2,high,82,1.28,112,0.92,82,1.36,Yes,unsure,hit,1.1830878257751465,NA
81,9#i0as7,False,66,2,unequal,ST2_low_5_a2,P != T1?,Same,2,2,low,96,1.11,154,0.83,154,0.95,Yes,unsure,hit,3.4026710987091064,NA
82,9#i0as7,False,67,2,unequal,ST1_high_5_a2,P != T2?,Same,1,2,high,96,1.14,132,1.03,96,1.34,Yes,unsure,hit,1.1327080726623535,NA
83,9#i0as7,False,68,2,unequal,ST1_low_5_a2,P != T1?,Same,1,2,low,96,1.36,154,0.92,96,1.26,No,unsure,cr,1.4230852127075195,NA
84,9#i0as7,False,69,2,unequal,ST1_low_4_a1,P != T2?,Same,1,1,low,112,0.97,70,1.7,112,0.93,Yes,unsure,hit,1.0683331489562988,NA
85,9#i0as7,False,70,2,unequal,ST2_low_5_a1,P != T1?,Same,2,1,low,96,1.26,154,0.95,154,0.91,Yes,unsure,hit,1.0204989910125732,NA
86,9#i0as7,False,71,2,unequal,ST1_high_4_a2,P != T1?,Same,1,2,high,96,1.41,70,1.41,96,1.08,No,unsure,cr,1.7864089012145996,NA
87,9#i0as7,False,72,2,unequal,ST2_high_2_a1,P != T2?,Same,2,1,high,112,1.07,82,1.47,82,1.56,No,unsure,cr,2.1445140838623047,NA
88,9#i0as7,False,73,2,unequal,ST1_high_5_a2,P != T2?,Same,1,2,high,96,1.18,132,0.91,96,1.36,Yes,unsure,hit,1.2246251106262207,NA
89,9#i0as7,False,74,2,unequal,ST2_high_6_a2,P != T2?,Same,2,2,high,132,1.06,96,1.12,96,1.25,No,unsure,cr,1.3400230407714844,NA
90,9#i0as7,False,75,2,unequal,ST1_low_3_a2,P != T2?,Same,1,2,low,70,1.63,112,1.2,70,1.83,Yes,unsure,hit,1.7836830615997314,NA
91,9#i0as7,False,76,2,unequal,ST2_low_1_a1,P != T2?,Same,2,1,low,82,1.58,132,1.06,132,1.04,No,unsure,cr,1.1082372665405273,NA
92,9#i0as7,False,77,2,unequal,ST2_high_5_a2,P != T2?,Same,2,2,high,96,1.09,132,0.98,132,0.98,No,unsure,cr,2.145052909851074,NA
93,9#i0as7,False,78,2,unequal,ST1_low_4_a2,P != T2?,Same,1,2,low,112,1.05,70,1.73,112,0.99,Yes,unsure,hit,2.146030902862549,NA
94,9#i0as7,False,79,2,unequal,ST1_low_1_a2,P != T1?,Same,1,2,low,82,1.26,132,0.96,82,1.54,No,unsure,cr,1.7605559825897217,NA
95,9#i0as7,False,80,2,unequal,ST2_low_2_a1,P != T2?,Same,2,1,low,132,1.04,82,1.58,82,1.56,No,unsure,cr,11.372619152069092,NA
96,9#i0as7,False,81,2,unequal,ST2_high_2_a2,P != T2?,Same,2,2,high,112,1.08,82,1.43,82,1.55,No,unsure,cr,1.113476276397705,NA
97,9#i0as7,False,82,2,unequal,ST2_low_4_a2,P != T2?,Same,2,2,low,112,1.05,70,1.4,70,1.39,No,unsure,cr,1.0403919219970703,NA
98,9#i0as7,False,83,2,unequal,ST1_low_3_a1,P != T1?,Same,1,1,low,70,1.52,112,0.95,70,1.65,No,unsure,cr,2.707381010055542,NA
99,9#i0as7,False,84,2,unequal,ST2_low_6_a2,P != T1?,Same,2,2,low,154,0.76,96,1.09,96,1.38,Yes,unsure,hit,1.470695972442627,NA
100,9#i0as7,False,85,2,unequal,ST2_high_5_a1,P != T1?,Same,2,1,high,96,1.15,132,0.88,132,0.97,Yes,unsure,hit,1.0897517204284668,NA
101,9#i0as7,False,86,2,unequal,ST1_high_5_a1,P != T1?,Same,1,1,high,96,1.2,132,0.92,96,1.33,Yes,unsure,fa,1.4908859729766846,NA
102,9#i0as7,False,87,2,unequal,ST1_high_2_a2,P != T2?,Same,1,2,high,112,1.03,82,1.45,112,1.0,Yes,unsure,hit,2.373039960861206,NA
103,9#i0as7,False,88,2,unequal,DT2_high_5_a1,P != T2?,Different,2,1,high,96,1.32,132,1.03,154,0.83,Yes,unsure,fa,5.943766117095947,NA
104,9#i0as7,False,89,2,unequal,ST1_low_5_a2,P != T1?,Same,1,2,low,96,1.36,154,0.82,96,1.18,No,unsure,cr,2.4438059329986572,NA
105,9#i0as7,False,90,2,unequal,ST2_low_2_a2,P != T1?,Same,2,2,low,132,0.84,82,1.29,82,1.4,Yes,unsure,hit,1.787909984588623,NA
106,9#i0as7,False,91,2,unequal,ST1_high_2_a1,P != T1?,Same,1,1,high,112,0.98,82,1.62,112,1.07,No,unsure,cr,2.5738959312438965,NA
107,9#i0as7,False,92,2,unequal,ST1_low_6_a1,P != T1?,Same,1,1,low,154,0.75,96,1.37,154,0.75,No,unsure,cr,2.8419108390808105,NA
108,9#i0as7,False,93,2,unequal,ST1_high_1_a2,P != T1?,Same,1,2,high,82,1.41,112,0.97,82,1.33,No,unsure,cr,1.2450718879699707,NA
109,9#i0as7,False,94,2,unequal,ST1_low_1_a1,P != T2?,Same,1,1,low,82,1.51,132,1.04,82,1.5,Yes,unsure,hit,8.871428966522217,NA
110,9#i0as7,False,95,2,unequal,ST2_high_3_a1,P != T2?,Same,2,1,high,70,1.57,96,1.12,96,1.36,No,unsure,cr,1.0406877994537354,NA
111,9#i0as7,False,96,2,unequal,ST1_high_2_a1,P != T1?,Same,1,1,high,112,0.93,82,1.6,112,1.0,No,unsure,cr,2.0540716648101807,NA
112,9#i0as7,False,97,2,unequal,ST2_high_5_a2,P != T1?,Same,2,2,high,96,1.07,132,0.96,132,0.8,Yes,unsure,hit,1.8803660869598389,NA
113,9#i0as7,False,98,2,unequal,ST2_low_3_a1,P != T1?,Same,2,1,low,70,1.51,112,1.2,112,1.08,Yes,unsure,hit,8.980627298355103,NA
114,9#i0as7,False,99,2,unequal,ST2_high_3_a1,P != T1?,Same,2,1,high,70,1.77,96,1.21,96,1.08,Yes,unsure,hit,1.5834109783172607,NA
115,9#i0as7,False,100,2,unequal,ST2_low_6_a2,P != T2?,Same,2,2,low,154,0.79,96,1.33,96,1.37,No,unsure,cr,1.4005708694458008,NA
116,9#i0as7,False,101,2,unequal,ST1_high_4_a1,P != T2?,Same,1,1,high,96,1.15,70,1.48,96,1.21,No,unsure,miss,1.8487777709960938,NA
117,9#i0as7,False,102,2,unequal,ST1_low_1_a2,P != T2?,Same,1,2,low,82,1.5,132,0.91,82,1.24,Yes,unsure,hit,3.096558094024658,NA
118,9#i0as7,False,103,2,unequal,ST2_low_6_a2,P != T1?,Same,2,2,low,154,0.94,96,1.25,96,1.15,Yes,unsure,hit,2.440737009048462,NA
119,9#i0as7,False,104,2,unequal,ST2_high_3_a2,P != T1?,Same,2,2,high,70,1.61,96,1.15,96,1.39,Yes,unsure,hit,2.661172866821289,NA
120,9#i0as7,False,105,2,unequal,ST2_low_3_a2,P != T1?,Same,2,2,low,70,1.39,112,1.01,112,1.1,Yes,unsure,hit,7.163512945175171,NA
121,9#i0as7,False,106,2,unequal,ST2_low_2_a1,P != T1?,Same,2,1,low,132,0.81,82,1.54,82,1.59,Yes,unsure,hit,1.737917184829712,NA
122,9#i0as7,False,107,2,unequal,ST2_low_3_a1,P != T1?,Same,2,1,low,70,1.64,112,1.14,112,1.0,Yes,unsure,hit,1.0667109489440918,NA
123,9#i0as7,False,108,2,unequal,ST2_low_3_a2,P != T2?,Same,2,2,low,70,1.41,112,1.17,112,1.03,No,unsure,cr,1.5359718799591064,NA
124,9#i0as7,False,109,2,unequal,ST1_high_6_a1,P != T2?,Same,1,1,high,132,0.91,96,1.11,132,0.91,Yes,unsure,hit,10.652740001678467,NA
125,9#i0as7,False,110,2,unequal,ST1_high_4_a2,P != T2?,Same,1,2,high,96,1.09,70,1.67,96,1.32,Yes,unsure,hit,2.193101644515991,NA
126,9#i0as7,False,111,2,unequal,STb_2_a2,P != T1?,Same,0,2,None,70,1.37,70,1.81,70,1.84,No,unsure,cr,1.3584039211273193,NA
127,9#i0as7,False,112,2,unequal,ST2_high_2_a2,P != T1?,Same,2,2,high,112,0.96,82,1.45,82,1.39,Yes,unsure,hit,1.1310410499572754,NA
128,9#i0as7,False,113,2,unequal,ST2_low_1_a1,P != T2?,Same,2,1,low,82,1.53,132,0.83,132,0.99,No,unsure,cr,2.151460886001587,NA
129,9#i0as7,False,114,2,unequal,ST1_low_2_a1,P != T2?,Same,1,1,low,132,0.96,82,1.45,132,0.99,Yes,unsure,hit,1.9028217792510986,NA
130,9#i0as7,False,115,2,unequal,ST1_high_6_a2,P != T2?,Same,1,2,high,132,1.0,96,1.22,132,0.96,Yes,unsure,hit,0.642669677734375,NA
131,9#i0as7,False,116,2,unequal,ST2_low_5_a1,P != T2?,Same,2,1,low,96,1.24,154,0.8,154,0.75,No,unsure,cr,0.9170072078704834,NA
132,9#i0as7,False,117,2,unequal,ST1_high_4_a2,P != T1?,Same,1,2,high,96,1.25,70,1.61,96,1.42,No,unsure,cr,1.497967004776001,NA
133,9#i0as7,False,118,2,unequal,ST2_high_6_a1,P != T1?,Same,2,1,high,132,0.94,96,1.23,96,1.1,Yes,unsure,hit,1.6700499057769775,NA
134,9#i0as7,False,119,2,unequal,ST2_low_3_a2,P != T1?,Same,2,2,low,70,1.42,112,1.14,112,0.97,Yes,unsure,hit,1.226012945175171,NA
135,9#i0as7,False,120,2,unequal,ST2_low_4_a1,P != T1?,Same,2,1,low,112,0.95,70,1.39,70,1.44,Yes,unsure,hit,0.7289819717407227,NA
136,9#i0as7,False,121,2,unequal,ST1_high_3_a2,P != T1?,Same,1,2,high,70,1.45,96,1.2,70,1.39,No,unsure,cr,1.6937999725341797,NA
137,9#i0as7,False,122,2,unequal,ST1_low_1_a1,P != T1?,Same,1,1,low,82,1.37,132,0.99,82,1.36,No,unsure,cr,0.9797859191894531,NA
138,9#i0as7,False,123,2,unequal,ST1_low_4_a2,P != T1?,Same,1,2,low,112,1.21,70,1.6,112,1.09,No,unsure,cr,0.8516991138458252,NA
139,9#i0as7,False,124,2,unequal,ST2_high_2_a1,P != T2?,Same,2,1,high,112,1.08,82,1.63,82,1.6,No,unsure,cr,1.438570261001587,NA
140,9#i0as7,False,125,2,unequal,ST2_low_6_a1,P != T2?,Same,2,1,low,154,0.83,96,1.12,96,1.34,No,unsure,cr,0.9672520160675049,NA
141,9#i0as7,False,126,2,unequal,ST1_low_2_a1,P != T1?,Same,1,1,low,132,0.9,82,1.5,132,0.98,No,unsure,cr,9.927858829498291,NA
142,9#i0as7,False,127,2,unequal,ST1_high_4_a1,P != T2?,Same,1,1,high,96,1.26,70,1.54,96,1.13,Yes,unsure,hit,5.311892032623291,NA
143,9#i0as7,False,128,2,unequal,ST2_high_2_a2,P != T2?,Same,2,2,high,112,1.23,82,1.55,82,1.23,No,unsure,cr,1.0388281345367432,NA
144,9#i0as7,False,129,2,unequal,ST1_high_2_a2,P != T1?,Same,1,2,high,112,0.93,82,1.36,112,1.11,No,unsure,cr,1.1574230194091797,NA
145,9#i0as7,False,130,2,unequal,ST2_low_1_a2,P != T2?,Same,2,2,low,82,1.4,132,0.94,132,0.81,No,unsure,cr,1.9617111682891846,NA
146,9#i0as7,False,131,2,unequal,ST2_high_6_a1,P != T2?,Same,2,1,high,132,0.83,96,1.08,96,1.06,No,unsure,cr,1.292098045349121,NA
147,9#i0as7,False,132,2,unequal,ST1_low_1_a2,P != T2?,Same,1,2,low,82,1.28,132,1.02,82,1.51,Yes,unsure,hit,1.0312559604644775,NA
148,9#i0as7,False,133,2,unequal,ST1_low_3_a2,P != T1?,Same,1,2,low,70,1.37,112,1.03,70,1.72,No,unsure,cr,1.3343479633331299,NA
149,9#i0as7,False,134,2,unequal,STb_8_a1,P != T1?,Same,0,1,None,180,0.78,180,0.92,180,0.82,No,unsure,cr,0.9049758911132812,NA
150,9#i0as7,False,135,2,unequal,ST1_high_3_a1,P != T2?,Same,1,1,high,70,1.39,96,1.27,70,1.48,Yes,unsure,hit,2.0450029373168945,NA
151,9#i0as7,False,136,2,unequal,ST1_high_4_a2,P != T2?,Same,1,2,high,96,1.08,70,1.81,96,1.09,Yes,unsure,hit,1.3796169757843018,NA
152,9#i0as7,False,137,2,unequal,ST2_high_6_a1,P != T2?,Same,2,1,high,132,0.99,96,1.21,96,1.36,No,unsure,cr,0.9323327541351318,NA
153,9#i0as7,False,138,2,unequal,ST1_high_6_a2,P != T2?,Same,1,2,high,132,1.06,96,1.43,132,0.8,Yes,unsure,hit,1.1994519233703613,NA
154,9#i0as7,False,139,2,unequal,ST1_high_2_a1,P != T1?,Same,1,1,high,112,1.14,82,1.41,112,1.03,No,unsure,cr,1.2913269996643066,NA
155,9#i0as7,False,140,2,unequal,ST1_low_1_a2,P != T1?,Same,1,2,low,82,1.27,132,1.0,82,1.6,Yes,sure,fa,7.341660022735596,NA
156,9#i0as7,False,141,2,unequal,ST1_low_1_a2,P != T2?,Same,1,2,low,82,1.49,132,0.79,82,1.56,Yes,unsure,hit,1.6261398792266846,NA
157,9#i0as7,False,142,2,unequal,ST1_high_3_a2,P != T1?,Same,1,2,high,70,1.72,96,1.28,70,1.56,No,unsure,cr,2.061493158340454,NA
158,9#i0as7,False,143,2,unequal,DT2_low_3_a1,P != T2?,Different,2,1,low,70,1.46,112,1.12,132,0.83,Yes,unsure,fa,1.2065200805664062,NA
159,9#i0as7,False,144,2,unequal,ST2_low_4_a1,P != T2?,Same,2,1,low,112,0.94,70,1.4,70,1.59,No,unsure,cr,2.0945804119110107,NA
160,9#i0as7,False,145,2,unequal,ST2_high_2_a2,P != T2?,Same,2,2,high,112,1.21,82,1.49,82,1.37,No,unsure,cr,1.52315092086792,NA
161,9#i0as7,False,146,2,unequal,ST1_high_4_a1,P != T2?,Same,1,1,high,96,1.42,70,1.75,96,1.31,Yes,unsure,hit,1.4253308773040771,NA
162,9#i0as7,False,147,2,unequal,ST2_high_6_a2,P != T2?,Same,2,2,high,132,0.89,96,1.29,96,1.16,No,unsure,cr,3.742206335067749,NA
163,9#i0as7,False,148,2,unequal,ST1_low_4_a2,P != T1?,Same,1,2,low,112,0.96,70,1.51,112,1.07,No,unsure,cr,1.1577579975128174,NA
164,9#i0as7,False,149,2,unequal,ST2_high_2_a2,P != T1?,Same,2,2,high,112,1.09,82,1.52,82,1.43,Yes,unsure,hit,1.4023711681365967,NA
165,9#i0as7,False,150,2,unequal,ST1_low_5_a1,P != T2?,Same,1,1,low,96,1.11,154,0.93,96,1.09,Yes,unsure,hit,4.779871940612793,NA
166,9#i0as7,False,151,2,unequal,ST1_low_3_a2,P != T2?,Same,1,2,low,70,1.47,112,0.94,70,1.66,Yes,unsure,hit,1.9147870540618896,NA
167,9#i0as7,False,152,2,unequal,ST1_low_3_a1,P != T1?,Same,1,1,low,70,1.83,112,1.11,70,1.82,No,unsure,cr,1.6947088241577148,NA
168,9#i0as7,False,153,2,unequal,ST2_high_6_a1,P != T1?,Same,2,1,high,132,0.87,96,1.14,96,1.38,Yes,unsure,hit,1.3220322132110596,NA
169,9#i0as7,False,154,2,unequal,ST2_high_6_a1,P != T2?,Same,2,1,high,132,1.02,96,1.09,96,1.12,No,unsure,cr,1.2641322612762451,NA
170,9#i0as7,False,155,2,unequal,DT1_high_2_a1,P != T2?,Different,1,1,high,112,1.06,82,1.4,132,1.02,Yes,unsure,hit,4.237450122833252,NA
171,9#i0as7,False,156,2,unequal,ST2_low_6_a1,P != T2?,Same,2,1,low,154,0.93,96,1.22,96,1.07,No,unsure,cr,1.5891408920288086,NA
172,9#i0as7,False,157,2,unequal,ST1_low_2_a2,P != T1?,Same,1,2,low,132,0.98,82,1.59,132,0.86,No,unsure,cr,4.326352119445801,NA
173,9#i0as7,False,158,2,unequal,ST2_high_3_a1,P != T1?,Same,2,1,high,70,1.44,96,1.32,96,1.21,Yes,quiteSure,hit,1.6253540515899658,NA
174,9#i0as7,False,159,2,unequal,ST1_high_6_a1,P != T2?,Same,1,1,high,132,0.95,96,1.32,132,0.92,Yes,unsure,hit,2.1708669662475586,NA
175,9#i0as7,False,160,2,unequal,STb_8_a1,P != T2?,Same,0,1,None,180,0.79,180,0.87,180,0.75,No,unsure,cr,0.48719215393066406,NA
176,9#i0as7,False,161,2,unequal,ST1_high_6_a1,P != T1?,Same,1,1,high,132,0.79,96,1.37,132,0.89,No,unsure,cr,1.5898387432098389,NA
177,9#i0as7,False,162,2,unequal,ST2_low_4_a1,P != T2?,Same,2,1,low,112,0.94,70,1.48,70,1.77,No,unsure,cr,1.2680752277374268,NA
178,9#i0as7,False,163,2,unequal,ST2_low_3_a1,P != T1?,Same,2,1,low,70,1.51,112,1.16,112,1.22,Yes,unsure,hit,1.3531692028045654,NA
179,9#i0as7,False,164,2,unequal,ST2_high_1_a1,P != T1?,Same,2,1,high,82,1.27,112,1.09,112,1.12,Yes,unsure,hit,1.538769245147705,NA
180,9#i0as7,False,165,2,unequal,ST2_high_6_a2,P != T1?,Same,2,2,high,132,1.03,96,1.17,96,1.1,Yes,quiteSure,hit,4.066767930984497,NA
181,9#i0as7,False,166,2,unequal,ST1_low_2_a2,P != T2?,Same,1,2,low,132,0.85,82,1.22,132,0.8,Yes,quiteSure,hit,3.948575973510742,NA
182,9#i0as7,False,167,2,unequal,ST2_low_6_a2,P != T2?,Same,2,2,low,154,0.75,96,1.23,96,1.22,No,unsure,cr,1.1809930801391602,NA
183,9#i0as7,False,168,2,unequal,DT1_low_1_a2,P != T1?,Different,1,2,low,82,1.5,132,0.91,70,1.66,Yes,unsure,fa,1.8483290672302246,NA
184,9#i0as7,False,169,2,unequal,DT1_high_4_a1,P != T2?,Different,1,1,high,96,1.19,70,1.68,112,1.09,Yes,unsure,hit,7.115448713302612,NA
185,9#i0as7,False,170,2,unequal,ST1_low_1_a1,P != T1?,Same,1,1,low,82,1.36,132,0.89,82,1.53,No,unsure,cr,1.356492042541504,NA
186,9#i0as7,False,171,2,unequal,ST1_high_2_a1,P != T2?,Same,1,1,high,112,0.97,82,1.57,112,1.23,Yes,unsure,hit,2.054903745651245,NA
187,9#i0as7,False,172,2,unequal,ST1_high_3_a1,P != T2?,Same,1,1,high,70,1.63,96,1.12,70,1.51,Yes,unsure,hit,1.9403200149536133,NA
188,9#i0as7,False,173,2,unequal,ST2_high_3_a1,P != T2?,Same,2,1,high,70,1.81,96,1.19,96,1.11,No,unsure,cr,2.20912504196167,NA
189,9#i0as7,False,174,2,unequal,ST1_high_1_a2,P != T1?,Same,1,2,high,82,1.6,112,1.0,82,1.58,No,unsure,cr,2.7023508548736572,NA
190,9#i0as7,False,175,2,unequal,ST1_low_4_a2,P != T2?,Same,1,2,low,112,0.93,70,1.39,112,1.16,Yes,unsure,hit,1.4200398921966553,NA
191,9#i0as7,False,176,2,unequal,ST2_low_2_a2,P != T2?,Same,2,2,low,132,0.8,82,1.5,82,1.46,No,unsure,cr,3.069443941116333,NA
192,9#i0as7,False,177,2,unequal,ST1_high_1_a1,P != T2?,Same,1,1,high,82,1.4,112,1.03,82,1.13,Yes,unsure,hit,2.373236894607544,NA
193,9#i0as7,False,178,2,unequal,ST1_low_6_a2,P != T1?,Same,1,2,low,154,0.73,96,1.37,154,0.85,No,unsure,cr,1.992650032043457,NA
194,9#i0as7,False,179,2,unequal,ST2_low_4_a1,P != T1?,Same,2,1,low,112,1.04,70,1.5,70,1.8,Yes,unsure,hit,1.1313128471374512,NA
195,9#i0as7,False,180,2,unequal,STb_3_a2,P != T1?,Same,0,2,None,82,1.39,82,1.43,82,1.25,No,unsure,cr,0.9285290241241455,NA
196,9#i0as7,False,181,2,unequal,ST2_low_5_a1,P != T1?,Same,2,1,low,96,1.09,154,0.87,154,0.85,Yes,unsure,hit,2.0584161281585693,NA
197,9#i0as7,False,182,2,unequal,ST1_high_5_a1,P != T2?,Same,1,1,high,96,1.15,132,0.96,96,1.09,Yes,unsure,hit,1.4721050262451172,NA
198,9#i0as7,False,183,2,unequal,ST1_high_6_a1,P != T1?,Same,1,1,high,132,0.81,96,1.2,132,0.96,No,unsure,cr,1.8043479919433594,NA
199,9#i0as7,False,184,2,unequal,ST1_high_1_a2,P != T2?,Same,1,2,high,82,1.27,112,1.07,82,1.32,Yes,unsure,hit,1.2442622184753418,NA
200,9#i0as7,False,185,2,unequal,ST2_low_6_a1,P != T1?,Same,2,1,low,154,0.74,96,1.31,96,1.42,Yes,unsure,hit,1.739635944366455,NA
201,9#i0as7,False,186,2,unequal,ST1_low_3_a2,P != T2?,Same,1,2,low,70,1.39,112,0.98,70,1.66,Yes,unsure,hit,8.914378881454468,NA
202,9#i0as7,False,187,2,unequal,ST1_high_1_a1,P != T1?,Same,1,1,high,82,1.25,112,1.19,82,1.23,No,sure,cr,4.121262073516846,NA
203,9#i0as7,False,188,2,unequal,ST1_low_4_a1,P != T2?,Same,1,1,low,112,1.21,70,1.65,112,1.09,Yes,sure,hit,12.67284607887268,NA
204,9#i0as7,False,189,2,unequal,ST1_low_2_a2,P != T2?,Same,1,2,low,132,0.99,82,1.44,132,1.03,Yes,sure,hit,7.971580982208252,NA
205,9#i0as7,False,190,2,unequal,ST2_low_6_a2,P != T2?,Same,2,2,low,154,0.9,96,1.28,96,1.39,No,sure,cr,2.306729793548584,NA
206,9#i0as7,False,191,2,unequal,ST1_high_5_a1,P != T1?,Same,1,1,high,96,1.39,132,0.79,96,1.16,No,sure,cr,2.1635992527008057,NA
207,9#i0as7,False,192,2,unequal,ST1_high_2_a2,P != T2?,Same,1,2,high,112,1.11,82,1.34,112,1.02,Yes,sure,hit,2.415879011154175,NA
208,9#i0as7,False,193,2,unequal,DT1_high_4_a1,P != T1?,Different,1,1,high,96,1.16,70,1.79,112,1.15,No,sure,cr,4.758864164352417,NA
209,9#i0as7,False,194,2,unequal,ST2_low_1_a2,P != T2?,Same,2,2,low,82,1.61,132,0.85,132,0.9,No,sure,cr,1.4682517051696777,NA
210,9#i0as7,False,195,2,unequal,ST2_high_3_a1,P != T2?,Same,2,1,high,70,1.38,96,1.13,96,1.23,No,sure,cr,1.2766830921173096,NA
211,9#i0as7,False,196,2,unequal,ST1_low_6_a1,P != T2?,Same,1,1,low,154,0.81,96,1.37,154,0.93,Yes,sure,hit,1.3757200241088867,NA
212,9#i0as7,False,197,2,unequal,ST2_low_2_a1,P != T1?,Same,2,1,low,132,0.81,82,1.29,82,1.51,Yes,sure,hit,1.9865820407867432,NA
213,9#i0as7,False,198,2,unequal,ST2_high_2_a1,P != T1?,Same,2,1,high,112,1.09,82,1.27,82,1.33,Yes,sure,hit,1.0163297653198242,NA
214,9#i0as7,False,199,2,unequal,ST2_high_5_a2,P != T2?,Same,2,2,high,96,1.32,132,1.03,132,0.83,No,sure,cr,1.318608283996582,NA
215,9#i0as7,False,200,2,unequal,DT2_low_2_a1,P != T2?,Different,2,1,low,132,0.87,82,1.56,70,1.59,Yes,sure,fa,0.8891420364379883,NA
216,9#i0as7,False,201,2,unequal,DT1_high_3_a2,P != T1?,Different,1,2,high,70,1.63,96,1.25,60,1.82,Yes,sure,fa,1.0033559799194336,NA
217,9#i0as7,False,202,2,unequal,ST2_low_3_a2,P != T2?,Same,2,2,low,70,1.82,112,1.11,112,1.18,No,sure,cr,0.7482061386108398,NA
218,9#i0as7,False,203,2,unequal,ST1_high_1_a1,P != T2?,Same,1,1,high,82,1.37,112,0.93,82,1.56,Yes,sure,hit,1.1103451251983643,NA
219,9#i0as7,False,204,2,unequal,STb_7_a1,P != T2?,Same,0,1,None,154,0.9,154,0.84,154,0.95,No,sure,cr,1.4960241317749023,NA
220,9#i0as7,False,205,2,unequal,ST2_low_6_a1,P != T2?,Same,2,1,low,154,0.91,96,1.37,96,1.07,No,sure,cr,3.2492430210113525,NA
221,9#i0as7,False,206,2,unequal,ST2_low_5_a1,P != T1?,Same,2,1,low,96,1.39,154,0.73,154,0.83,Yes,sure,hit,2.7783820629119873,NA
222,9#i0as7,False,207,2,unequal,ST2_low_2_a1,P != T2?,Same,2,1,low,132,0.95,82,1.31,82,1.41,No,sure,cr,1.3100061416625977,NA
223,9#i0as7,False,208,2,unequal,ST2_low_5_a2,P != T1?,Same,2,2,low,96,1.4,154,0.82,154,0.86,Yes,sure,hit,1.7663812637329102,NA
224,9#i0as7,False,209,2,unequal,ST1_low_6_a1,P != T2?,Same,1,1,low,154,0.77,96,1.1,154,0.71,Yes,sure,hit,1.7171788215637207,NA
225,9#i0as7,False,210,2,unequal,ST2_high_6_a2,P != T1?,Same,2,2,high,132,0.8,96,1.2,96,1.3,Yes,sure,hit,2.1006860733032227,NA
226,9#i0as7,False,211,2,unequal,STb_8_a2,P != T1?,Same,0,2,None,180,0.72,180,0.85,180,0.8,No,sure,cr,0.365372896194458,NA
227,9#i0as7,False,212,2,unequal,ST2_low_4_a2,P != T2?,Same,2,2,low,112,0.97,70,1.74,70,1.46,No,sure,cr,0.6123032569885254,NA
228,9#i0as7,False,213,2,unequal,ST2_high_5_a1,P != T2?,Same,2,1,high,96,1.16,132,1.02,132,0.88,No,sure,cr,2.7282488346099854,NA
229,9#i0as7,False,214,2,unequal,ST1_low_3_a1,P != T1?,Same,1,1,low,70,1.55,112,0.94,70,1.78,No,sure,cr,1.872309684753418,NA
230,9#i0as7,False,215,2,unequal,ST1_high_3_a2,P != T1?,Same,1,2,high,70,1.47,96,1.32,70,1.75,No,sure,cr,2.007560968399048,NA
231,9#i0as7,False,216,2,unequal,ST2_low_3_a2,P != T1?,Same,2,2,low,70,1.5,112,1.07,112,0.95,Yes,sure,hit,1.6046020984649658,NA
232,9#i0as7,False,217,2,unequal,ST2_low_3_a1,P != T2?,Same,2,1,low,70,1.54,112,0.98,112,0.85,No,sure,cr,2.1440341472625732,NA
233,9#i0as7,False,218,2,unequal,ST1_low_1_a1,P != T1?,Same,1,1,low,82,1.4,132,0.82,82,1.34,No,sure,cr,8.82907509803772,NA
234,9#i0as7,False,219,2,unequal,ST2_low_2_a2,P != T1?,Same,2,2,low,132,0.98,82,1.57,82,1.5,Yes,sure,hit,1.716580867767334,NA
235,9#i0as7,False,220,2,unequal,ST1_low_3_a2,P != T1?,Same,1,2,low,70,1.39,112,1.14,70,1.83,No,sure,cr,6.687617778778076,NA
236,9#i0as7,False,221,2,unequal,ST2_high_6_a2,P != T1?,Same,2,2,high,132,0.87,96,1.23,96,1.16,Yes,sure,hit,1.3593790531158447,NA
237,9#i0as7,False,222,2,unequal,ST2_low_1_a2,P != T1?,Same,2,2,low,82,1.4,132,0.83,132,1.04,No,sure,miss,1.0411012172698975,NA
238,9#i0as7,False,223,2,unequal,ST1_high_6_a1,P != T1?,Same,1,1,high,132,0.88,96,1.21,132,1.02,No,sure,cr,1.0623228549957275,NA
239,9#i0as7,False,224,2,unequal,ST1_low_6_a2,P != T1?,Same,1,2,low,154,0.71,96,1.1,154,0.88,No,sure,cr,1.2019309997558594,NA
240,9#i0as7,False,225,2,unequal,ST1_low_4_a1,P != T1?,Same,1,1,low,112,1.04,70,1.68,112,1.14,Yes,sure,fa,2.2801527976989746,NA
241,9#i0as7,False,226,2,unequal,ST1_high_1_a1,P != T2?,Same,1,1,high,82,1.27,112,1.15,82,1.32,Yes,sure,hit,1.2017090320587158,NA
242,9#i0as7,False,227,2,unequal,ST1_high_3_a2,P != T2?,Same,1,2,high,70,1.83,96,1.33,70,1.49,Yes,sure,hit,2.6592230796813965,NA
243,9#i0as7,False,228,2,unequal,ST2_low_1_a1,P != T1?,Same,2,1,low,82,1.28,132,0.82,132,0.93,Yes,sure,hit,1.6947240829467773,NA
244,9#i0as7,False,229,2,unequal,ST2_low_3_a1,P != T2?,Same,2,1,low,70,1.68,112,1.14,112,1.08,No,sure,cr,2.396311044692993,NA
245,9#i0as7,False,230,2,unequal,ST2_low_5_a1,P != T2?,Same,2,1,low,96,1.15,154,0.86,154,0.8,No,sure,cr,1.6042978763580322,NA
246,9#i0as7,False,231,2,unequal,STb_2_a1,P != T1?,Same,0,1,None,70,1.68,70,1.66,70,1.58,No,sure,cr,1.084111213684082,NA
247,9#i0as7,False,232,2,unequal,DT1_low_3_a1,P != T2?,Different,1,1,low,70,1.69,112,0.99,60,2.02,Yes,sure,hit,1.76180100440979,NA
248,9#i0as7,False,233,2,unequal,STb_5_a1,P != T2?,Same,0,1,None,112,0.99,112,1.05,112,0.97,No,sure,cr,3.540724039077759,NA
249,9#i0as7,False,234,2,unequal,ST1_low_6_a1,P != T1?,Same,1,1,low,154,0.87,96,1.13,154,0.75,No,sure,cr,2.2318053245544434,NA
250,9#i0as7,False,235,2,unequal,ST2_low_6_a1,P != T1?,Same,2,1,low,154,0.75,96,1.26,96,1.31,Yes,sure,hit,1.468459129333496,NA
251,9#i0as7,False,236,2,unequal,ST2_high_5_a2,P != T1?,Same,2,2,high,96,1.33,132,0.88,132,0.91,Yes,sure,hit,1.0170950889587402,NA
252,9#i0as7,False,237,2,unequal,ST1_high_3_a1,P != T1?,Same,1,1,high,70,1.4,96,1.33,70,1.47,No,sure,cr,6.64107608795166,NA
253,9#i0as7,False,238,2,unequal,ST2_high_1_a2,P != T1?,Same,2,2,high,82,1.62,112,0.96,112,1.19,Yes,sure,hit,5.632174730300903,NA
254,9#i0as7,False,239,2,unequal,ST2_high_1_a2,P != T1?,Same,2,2,high,82,1.34,112,1.17,112,1.19,Yes,sure,hit,1.174692153930664,NA
255,9#i0as7,False,240,2,unequal,ST2_high_4_a1,P != T1?,Same,2,1,high,96,1.24,70,1.46,70,1.8,Yes,sure,hit,1.0431687831878662,NA
256,9#i0as7,False,241,2,unequal,DT1_low_1_a1,P != T1?,Different,1,1,low,82,1.42,132,0.94,70,1.45,No,sure,cr,2.887120008468628,NA
257,9#i0as7,False,242,2,unequal,ST2_low_1_a1,P != T1?,Same,2,1,low,82,1.6,132,0.97,132,0.99,Yes,sure,hit,6.845407009124756,NA
258,9#i0as7,False,243,2,unequal,ST2_high_2_a1,P != T2?,Same,2,1,high,112,1.08,82,1.58,82,1.59,No,sure,cr,2.662487030029297,NA
259,9#i0as7,False,244,2,unequal,ST1_low_4_a2,P != T2?,Same,1,2,low,112,0.96,70,1.41,112,1.16,Yes,sure,hit,1.8597750663757324,NA
260,9#i0as7,False,245,2,unequal,ST1_low_5_a1,P != T1?,Same,1,1,low,96,1.34,154,0.88,96,1.16,No,sure,cr,3.054655075073242,NA
261,9#i0as7,False,246,2,unequal,ST1_high_2_a1,P != T2?,Same,1,1,high,112,1.22,82,1.55,112,1.2,Yes,sure,hit,1.738497018814087,NA
262,9#i0as7,False,247,2,unequal,ST2_low_4_a2,P != T2?,Same,2,2,low,112,0.92,70,1.54,70,1.79,No,sure,cr,12.066134929656982,NA
263,9#i0as7,False,248,2,unequal,ST1_low_3_a2,P != T1?,Same,1,2,low,70,1.6,112,1.08,70,1.45,No,sure,cr,2.1380202770233154,NA
264,9#i0as7,False,249,2,unequal,ST2_high_5_a1,P != T2?,Same,2,1,high,96,1.15,132,1.04,132,0.98,No,sure,cr,1.7422997951507568,NA
265,9#i0as7,False,250,2,unequal,ST2_high_3_a2,P != T2?,Same,2,2,high,70,1.42,96,1.11,96,1.29,No,sure,cr,1.424311876296997,NA
266,9#i0as7,False,251,2,unequal,ST2_low_4_a2,P != T1?,Same,2,2,low,112,0.95,70,1.6,70,1.53,Yes,sure,hit,1.0638437271118164,NA
267,9#i0as7,False,252,2,unequal,ST1_high_2_a2,P != T2?,Same,1,2,high,112,1.15,82,1.54,112,0.99,Yes,sure,hit,2.3074731826782227,NA
268,9#i0as7,False,253,2,unequal,ST2_high_5_a2,P != T2?,Same,2,2,high,96,1.3,132,0.81,132,0.95,No,sure,cr,1.4899320602416992,NA
269,9#i0as7,False,254,2,unequal,ST2_low_2_a2,P != T2?,Same,2,2,low,132,0.86,82,1.55,82,1.59,No,sure,cr,1.2640221118927002,NA
270,9#i0as7,False,255,2,unequal,ST1_low_2_a1,P != T1?,Same,1,1,low,132,0.85,82,1.49,132,1.03,No,sure,cr,0.8663029670715332,NA
271,9#i0as7,False,256,2,unequal,ST2_high_4_a2,P != T1?,Same,2,2,high,96,1.19,70,1.41,70,1.49,No,sure,miss,4.252908945083618,NA
272,9#i0as7,False,257,2,unequal,ST2_low_2_a2,P != T2?,Same,2,2,low,132,0.96,82,1.32,82,1.26,No,sure,cr,1.5379481315612793,NA
273,9#i0as7,False,258,2,unequal,ST1_high_6_a2,P != T2?,Same,1,2,high,132,0.9,96,1.17,132,0.86,Yes,sure,hit,4.507627010345459,NA
274,9#i0as7,False,259,2,unequal,ST2_low_5_a2,P != T2?,Same,2,2,low,96,1.37,154,0.87,154,0.73,No,sure,cr,1.4466209411621094,NA
275,9#i0as7,False,260,2,unequal,ST1_high_1_a1,P != T1?,Same,1,1,high,82,1.34,112,1.07,82,1.32,No,sure,cr,2.483844041824341,NA
276,9#i0as7,False,261,2,unequal,ST1_low_3_a1,P != T2?,Same,1,1,low,70,1.53,112,1.04,70,1.76,Yes,sure,hit,2.0787808895111084,NA
277,9#i0as7,False,262,2,unequal,ST2_low_1_a2,P != T1?,Same,2,2,low,82,1.49,132,1.02,132,1.01,Yes,sure,hit,2.3007090091705322,NA
278,9#i0as7,False,263,2,unequal,ST2_high_1_a1,P != T2?,Same,2,1,high,82,1.38,112,1.01,112,0.94,No,sure,cr,1.3998479843139648,NA
279,9#i0as7,False,264,2,unequal,ST2_high_4_a2,P != T2?,Same,2,2,high,96,1.56,70,1.77,70,1.56,No,sure,cr,1.7004201412200928,NA
280,9#i0as7,False,265,2,unequal,ST2_high_2_a1,P != T1?,Same,2,1,high,112,1.16,82,1.24,82,1.41,Yes,sure,hit,2.2330870628356934,NA
281,9#i0as7,False,266,2,unequal,STb_4_a1,P != T1?,Same,0,1,None,96,1.19,96,1.17,96,1.4,No,sure,cr,0.41530275344848633,NA
282,9#i0as7,False,267,2,unequal,ST2_high_4_a2,P != T1?,Same,2,2,high,96,1.08,70,1.76,70,1.45,Yes,sure,hit,1.8523869514465332,NA
283,9#i0as7,False,268,2,unequal,ST1_high_2_a2,P != T1?,Same,1,2,high,112,0.99,82,1.58,112,1.03,No,sure,cr,4.131386041641235,NA
284,9#i0as7,False,269,2,unequal,STb_7_a1,P != T1?,Same,0,1,None,154,0.74,154,0.96,154,0.92,No,sure,cr,2.974301815032959,NA
285,9#i0as7,False,270,2,unequal,ST2_high_3_a2,P != T1?,Same,2,2,high,70,1.51,96,1.29,96,1.18,Yes,sure,hit,2.5038931369781494,NA
286,9#i0as7,False,271,2,unequal,DT2_low_3_a1,P != T1?,Different,2,1,low,70,1.54,112,0.99,132,0.92,Yes,sure,hit,1.3953938484191895,NA
287,9#i0as7,False,272,2,unequal,ST2_high_1_a2,P != T2?,Same,2,2,high,82,1.58,112,1.17,112,1.13,No,sure,cr,1.8724827766418457,NA
288,9#i0as7,False,273,2,unequal,ST2_low_2_a1,P != T1?,Same,2,1,low,132,0.82,82,1.45,82,1.32,No,sure,miss,4.415395259857178,NA
289,9#i0as7,False,274,2,unequal,ST2_low_5_a1,P != T2?,Same,2,1,low,96,1.36,154,0.73,154,0.87,No,sure,cr,8.133306980133057,NA
290,9#i0as7,False,275,2,unequal,ST1_high_5_a2,P != T1?,Same,1,2,high,96,1.24,132,0.99,96,1.39,No,sure,cr,5.8374269008636475,NA
291,9#i0as7,False,276,2,unequal,ST1_low_5_a1,P != T1?,Same,1,1,low,96,1.5,154,0.84,96,1.17,No,sure,cr,1.22353196144104,NA
292,9#i0as7,False,277,2,unequal,ST2_low_6_a1,P != T1?,Same,2,1,low,154,0.82,96,1.4,96,1.43,Yes,sure,hit,1.240537166595459,NA
293,9#i0as7,False,278,2,unequal,ST1_low_4_a2,P != T1?,Same,1,2,low,112,1.01,70,1.52,112,1.08,No,sure,cr,4.121129035949707,NA
294,9#i0as7,False,279,2,unequal,STb_3_a1,P != T2?,Same,0,1,None,82,1.45,82,1.51,82,1.35,No,sure,cr,0.4826626777648926,NA
295,9#i0as7,False,280,2,unequal,ST1_high_4_a1,P != T1?,Same,1,1,high,96,1.22,70,1.46,96,0.95,No,sure,cr,1.6524360179901123,NA
296,9#i0as7,False,281,2,unequal,ST2_high_4_a1,P != T2?,Same,2,1,high,96,1.16,70,1.43,70,1.47,No,sure,cr,0.9066991806030273,NA
297,9#i0as7,False,282,2,unequal,ST1_low_5_a2,P != T2?,Same,1,2,low,96,1.24,154,0.83,96,1.15,Yes,sure,hit,1.990488052368164,NA
298,9#i0as7,False,283,2,unequal,ST2_high_5_a1,P != T1?,Same,2,1,high,96,1.25,132,0.81,132,0.83,Yes,sure,hit,0.9059059619903564,NA
299,9#i0as7,False,284,2,unequal,ST1_high_4_a2,P != T2?,Same,1,2,high,96,1.29,70,1.67,96,1.31,Yes,sure,hit,2.5489661693573,NA
300,9#i0as7,False,285,2,unequal,ST2_high_2_a1,P != T1?,Same,2,1,high,112,1.21,82,1.22,82,1.57,Yes,sure,hit,3.435417890548706,NA
301,9#i0as7,False,286,2,unequal,ST1_low_4_a1,P != T1?,Same,1,1,low,112,1.02,70,1.44,112,0.93,No,sure,cr,2.5959248542785645,NA
302,9#i0as7,False,287,2,unequal,ST2_low_3_a1,P != T2?,Same,2,1,low,70,1.76,112,1.04,112,1.06,No,sure,cr,1.2253751754760742,NA
303,9#i0as7,False,288,2,unequal,ST1_high_5_a2,P != T1?,Same,1,2,high,96,1.13,132,0.85,96,1.23,No,sure,cr,1.4012198448181152,NA
304,9#i0as7,False,289,2,unequal,ST1_high_5_a1,P != T1?,Same,1,1,high,96,1.26,132,0.9,96,1.25,No,sure,cr,2.0552728176116943,NA
305,9#i0as7,False,290,2,unequal,ST1_high_3_a1,P != T1?,Same,1,1,high,70,1.38,96,1.36,70,1.63,No,sure,cr,1.5996408462524414,NA
306,9#i0as7,False,291,2,unequal,STb_3_a2,P != T2?,Same,0,2,None,82,1.57,82,1.44,82,1.45,Yes,sure,fa,1.3807477951049805,NA
307,9#i0as7,False,292,2,unequal,ST2_high_3_a1,P != T1?,Same,2,1,high,70,1.69,96,1.29,96,1.4,Yes,sure,hit,2.070868968963623,NA
308,9#i0as7,False,293,2,unequal,ST1_low_1_a1,P != T2?,Same,1,1,low,82,1.29,132,0.93,82,1.63,Yes,sure,hit,2.164807081222534,NA
309,9#i0as7,False,294,2,unequal,ST1_low_6_a1,P != T1?,Same,1,1,low,154,0.95,96,1.16,154,0.86,No,sure,cr,1.1790862083435059,NA
310,9#i0as7,False,295,2,unequal,ST2_high_5_a1,P != T2?,Same,2,1,high,96,1.09,132,0.93,132,0.87,No,sure,cr,0.6446001529693604,NA
311,9#i0as7,False,296,2,unequal,ST2_high_1_a1,P != T1?,Same,2,1,high,82,1.23,112,1.0,112,1.14,Yes,sure,hit,1.9869468212127686,NA
312,9#i0as7,False,297,2,unequal,ST1_high_5_a2,P != T1?,Same,1,2,high,96,1.18,132,1.06,96,1.09,No,sure,cr,2.2988879680633545,NA
313,9#i0as7,False,298,2,unequal,ST1_low_2_a2,P != T1?,Same,1,2,low,132,0.82,82,1.35,132,1.03,No,sure,cr,1.2463219165802002,NA
314,9#i0as7,False,299,2,unequal,ST1_low_5_a1,P != T1?,Same,1,1,low,96,1.07,154,0.95,96,1.36,No,sure,cr,1.377929925918579,NA
315,9#i0as7,False,300,2,unequal,ST1_low_3_a1,P != T2?,Same,1,1,low,70,1.79,112,1.17,70,1.7,Yes,sure,hit,1.5643932819366455,NA
316,9#i0as7,False,301,2,unequal,ST1_low_2_a1,P != T2?,Same,1,1,low,132,0.89,82,1.34,132,0.83,Yes,sure,hit,2.3288209438323975,NA
317,9#i0as7,False,302,2,unequal,ST1_low_2_a1,P != T1?,Same,1,1,low,132,1.03,82,1.36,132,0.92,No,sure,cr,3.2450449466705322,NA
318,9#i0as7,False,303,2,unequal,STb_4_a1,P != T2?,Same,0,1,None,96,1.28,96,1.15,96,1.27,No,sure,cr,0.9295480251312256,NA
319,9#i0as7,False,304,2,unequal,ST1_low_3_a1,P != T2?,Same,1,1,low,70,1.56,112,0.97,70,1.65,Yes,sure,hit,1.0411999225616455,NA
320,9#i0as7,False,305,2,unequal,ST2_high_1_a1,P != T2?,Same,2,1,high,82,1.23,112,1.16,112,1.08,No,sure,cr,1.2450649738311768,NA
321,9#i0as7,False,306,2,unequal,ST2_high_4_a2,P != T2?,Same,2,2,high,96,1.24,70,1.58,70,1.82,No,sure,cr,1.2057559490203857,NA
322,9#i0as7,False,307,2,unequal,ST2_high_4_a1,P != T2?,Same,2,1,high,96,1.08,70,1.41,70,1.64,No,sure,cr,1.987274169921875,NA
323,9#i0as7,False,308,2,unequal,DT2_low_5_a1,P != T2?,Different,2,1,low,96,1.06,154,0.72,180,0.83,No,unsure,cr,0.5878911018371582,NA
324,9#i0as7,False,309,2,unequal,STb_1_a2,P != T1?,Same,0,2,None,60,1.53,60,1.55,60,1.72,No,sure,cr,0.4369838237762451,NA
325,9#i0as7,False,310,2,unequal,ST1_low_6_a1,P != T2?,Same,1,1,low,154,0.94,96,1.15,154,0.8,Yes,sure,hit,1.4956018924713135,NA
326,9#i0as7,False,311,2,unequal,ST2_low_5_a2,P != T2?,Same,2,2,low,96,1.23,154,0.92,154,0.72,No,sure,cr,5.853636026382446,NA
327,9#i0as7,False,312,2,unequal,ST2_low_4_a1,P != T1?,Same,2,1,low,112,1.09,70,1.5,70,1.51,Yes,sure,hit,4.526717901229858,NA
328,9#i0as7,False,313,2,unequal,ST1_high_3_a1,P != T1?,Same,1,1,high,70,1.45,96,1.15,70,1.37,No,sure,cr,1.5145671367645264,NA
329,9#i0as7,False,314,2,unequal,ST1_high_5_a1,P != T2?,Same,1,1,high,96,1.12,132,1.04,96,1.16,Yes,sure,hit,1.2445950508117676,NA
330,9#i0as7,False,315,2,unequal,ST2_high_4_a2,P != T2?,Same,2,2,high,96,1.36,70,1.75,70,1.52,No,sure,cr,2.076594829559326,NA
331,9#i0as7,False,316,2,unequal,ST2_high_3_a2,P != T2?,Same,2,2,high,70,1.47,96,1.21,96,1.13,No,sure,cr,0.994769811630249,NA
332,9#i0as7,False,317,2,unequal,ST1_high_3_a1,P != T2?,Same,1,1,high,70,1.37,96,1.23,70,1.67,Yes,sure,hit,1.6256649494171143,NA
333,9#i0as7,False,318,2,unequal,ST1_low_4_a1,P != T1?,Same,1,1,low,112,0.98,70,1.78,112,1.15,No,sure,cr,1.7813968658447266,NA
334,9#i0as7,False,319,2,unequal,ST2_high_1_a2,P != T1?,Same,2,2,high,82,1.34,112,1.08,112,0.99,Yes,sure,hit,3.0623111724853516,NA
335,9#i0as7,False,320,2,unequal,ST2_high_3_a2,P != T1?,Same,2,2,high,70,1.37,96,1.36,96,1.08,Yes,sure,hit,1.425119400024414,1.0
