,pcode,practice,trial,block,questionType,condition,question,PTS,TargetPosition,AccessoryPosition,TNS,T1_hz,T1_amp,T2_hz,T2_amp,P_hz,P_amp,response_dicho,response_rating,response_sdt,rt,P_correct
0,84h#2zk,True,1,2,equal,DT1_high_2_a1,P = T1?,Different,1,1,high,112,1.23,82,1.44,132,0.8,Yes,sure,hit,2.5630619525909424,NA
1,84h#2zk,True,2,2,equal,ST2_low_6_a1,P = T1?,Same,2,1,low,154,0.71,96,1.19,96,1.31,No,sure,cr,1.5377650260925293,NA
2,84h#2zk,True,3,2,equal,ST1_high_4_a1,P = T2?,Same,1,1,high,96,1.38,70,1.8,96,1.25,No,sure,cr,1.0626919269561768,NA
3,84h#2zk,True,4,2,equal,ST1_high_1_a1,P = T2?,Same,1,1,high,82,1.12,112,0.85,82,1.29,No,sure,cr,1.3607957363128662,NA
4,84h#2zk,True,5,2,equal,ST2_low_1_a2,P = T2?,Same,2,2,low,82,1.21,132,1.05,132,0.78,Yes,sure,hit,1.3818678855895996,NA
5,84h#2zk,True,6,2,equal,STb_7_a1,P = T2?,Same,0,1,None,154,0.8,154,0.8,154,0.95,Yes,sure,hit,2.699984073638916,NA
6,84h#2zk,True,7,2,equal,ST2_high_3_a2,P = T1?,Same,2,2,high,70,1.36,96,1.17,96,1.35,No,sure,cr,1.2936038970947266,NA
7,84h#2zk,True,8,2,equal,STb_4_a1,P = T1?,Same,0,1,None,96,1.52,96,1.0,96,1.39,Yes,sure,hit,1.508936882019043,NA
8,84h#2zk,True,9,2,equal,STb_3_a2,P = T1?,Same,0,2,None,82,1.61,82,1.33,82,1.34,Yes,sure,hit,1.0991621017456055,NA
9,84h#2zk,True,10,2,equal,DT1_high_1_a2,P = T2?,Different,1,2,high,82,1.51,112,0.92,70,1.47,No,sure,cr,1.1352200508117676,NA
10,84h#2zk,True,11,2,equal,ST1_high_6_a2,P = T1?,Same,1,2,high,132,0.84,96,1.04,132,0.93,Yes,sure,hit,1.1186296939849854,NA
11,84h#2zk,True,12,2,equal,DT2_low_2_a1,P = T1?,Different,2,1,low,132,1.03,82,1.3,70,1.54,No,sure,cr,1.5908591747283936,NA
12,84h#2zk,True,13,2,equal,ST2_low_6_a1,P = T2?,Same,2,1,low,154,0.89,96,0.98,96,1.49,Yes,sure,hit,1.1859769821166992,NA
13,84h#2zk,True,14,2,equal,ST1_low_5_a1,P = T1?,Same,1,1,low,96,1.35,154,0.95,96,0.97,No,sure,miss,2.0512869358062744,NA
14,84h#2zk,True,15,2,equal,DT1_high_5_a2,P = T2?,Different,1,2,high,96,1.12,132,0.92,82,1.32,No,sure,cr,1.2281038761138916,NA
15,84h#2zk,True,16,2,equal,STb_6_a1,P = T2?,Same,0,1,None,132,0.82,132,0.85,132,0.93,Yes,sure,hit,2.6718568801879883,0.875
16,84h#2zk,False,1,2,equal,ST2_high_3_a2,P = T2?,Same,2,2,high,70,1.43,96,1.21,96,1.34,Yes,sure,hit,2.0598220825195312,NA
17,84h#2zk,False,2,2,equal,ST2_high_4_a1,P = T2?,Same,2,1,high,96,1.18,70,1.51,70,1.45,Yes,sure,hit,1.2626891136169434,NA
18,84h#2zk,False,3,2,equal,ST1_low_5_a1,P = T2?,Same,1,1,low,96,1.16,154,0.94,96,1.09,No,quiteSure,cr,2.247860908508301,NA
19,84h#2zk,False,4,2,equal,ST2_low_6_a1,P = T1?,Same,2,1,low,154,0.92,96,1.23,96,1.13,No,sure,cr,1.9651200771331787,NA
20,84h#2zk,False,5,2,equal,ST1_high_2_a2,P = T2?,Same,1,2,high,112,1.14,82,1.32,112,1.22,No,sure,cr,0.9712238311767578,NA
21,84h#2zk,False,6,2,equal,STb_4_a1,P = T1?,Same,0,1,None,96,1.52,96,1.0,96,1.39,Yes,sure,hit,1.7932789325714111,NA
22,84h#2zk,False,7,2,equal,ST1_low_6_a2,P = T1?,Same,1,2,low,154,0.74,96,1.31,154,0.71,Yes,sure,hit,1.5895888805389404,NA
23,84h#2zk,False,8,2,equal,ST1_high_4_a1,P = T1?,Same,1,1,high,96,1.36,70,1.41,96,1.24,Yes,sure,hit,1.0645239353179932,NA
24,84h#2zk,False,9,2,equal,ST2_low_5_a1,P = T2?,Same,2,1,low,96,1.28,154,0.87,154,0.87,Yes,sure,hit,1.7327978610992432,NA
25,84h#2zk,False,10,2,equal,ST1_low_3_a2,P = T2?,Same,1,2,low,70,1.38,112,1.0,70,1.61,No,sure,cr,1.2020959854125977,NA
26,84h#2zk,False,11,2,equal,ST2_high_2_a1,P = T2?,Same,2,1,high,112,1.02,82,1.37,82,1.34,Yes,sure,hit,1.0726017951965332,NA
27,84h#2zk,False,12,2,equal,ST1_high_5_a1,P = T1?,Same,1,1,high,96,1.22,132,0.98,96,1.16,No,sure,miss,3.5303027629852295,NA
28,84h#2zk,False,13,2,equal,ST1_high_3_a1,P = T1?,Same,1,1,high,70,1.79,96,1.32,70,1.56,Yes,sure,hit,1.0570378303527832,NA
29,84h#2zk,False,14,2,equal,ST2_low_3_a1,P = T1?,Same,2,1,low,70,1.81,112,1.03,112,1.21,No,sure,cr,1.5938150882720947,NA
30,84h#2zk,False,15,2,equal,ST2_high_2_a1,P = T1?,Same,2,1,high,112,1.09,82,1.55,82,1.34,No,sure,cr,1.2813868522644043,NA
31,84h#2zk,False,16,2,equal,ST1_low_1_a1,P = T1?,Same,1,1,low,82,1.47,132,0.89,82,1.45,Yes,sure,hit,4.204539060592651,NA
32,84h#2zk,False,17,2,equal,ST1_high_2_a1,P = T2?,Same,1,1,high,112,1.08,82,1.48,112,1.16,No,sure,cr,2.3443238735198975,NA
33,84h#2zk,False,18,2,equal,ST2_high_3_a1,P = T2?,Same,2,1,high,70,1.54,96,1.34,96,1.43,Yes,sure,hit,2.4714818000793457,NA
34,84h#2zk,False,19,2,equal,ST2_low_3_a2,P = T1?,Same,2,2,low,70,1.59,112,0.98,112,1.22,No,sure,cr,1.1005940437316895,NA
35,84h#2zk,False,20,2,equal,ST1_high_5_a1,P = T2?,Same,1,1,high,96,1.3,132,0.93,96,1.28,No,sure,cr,1.277907133102417,NA
36,84h#2zk,False,21,2,equal,ST2_low_2_a1,P = T2?,Same,2,1,low,132,0.87,82,1.45,82,1.49,Yes,sure,hit,1.1714248657226562,NA
37,84h#2zk,False,22,2,equal,ST2_low_3_a1,P = T2?,Same,2,1,low,70,1.41,112,1.18,112,1.11,Yes,sure,hit,1.2988381385803223,NA
38,84h#2zk,False,23,2,equal,ST1_low_2_a1,P = T2?,Same,1,1,low,132,0.93,82,1.34,132,0.89,No,sure,cr,1.0678789615631104,NA
39,84h#2zk,False,24,2,equal,ST1_low_5_a1,P = T1?,Same,1,1,low,96,1.35,154,0.95,96,0.97,Yes,sure,hit,1.0696561336517334,NA
40,84h#2zk,False,25,2,equal,ST2_low_5_a1,P = T2?,Same,2,1,low,96,1.18,154,0.91,154,0.88,Yes,sure,hit,0.938561201095581,NA
41,84h#2zk,False,26,2,equal,ST2_low_4_a1,P = T2?,Same,2,1,low,112,0.95,70,1.83,70,1.5,Yes,sure,hit,0.8182229995727539,NA
42,84h#2zk,False,27,2,equal,ST1_low_4_a2,P = T2?,Same,1,2,low,112,1.13,70,1.59,112,0.95,No,sure,cr,1.0534460544586182,NA
43,84h#2zk,False,28,2,equal,ST1_high_1_a2,P = T2?,Same,1,2,high,82,1.58,112,0.92,82,1.32,No,sure,cr,2.5867578983306885,NA
44,84h#2zk,False,29,2,equal,ST2_low_2_a2,P = T1?,Same,2,2,low,132,0.97,82,1.26,82,1.46,No,sure,cr,1.0480411052703857,NA
45,84h#2zk,False,30,2,equal,ST2_high_3_a1,P = T2?,Same,2,1,high,70,1.39,96,1.27,96,1.21,Yes,sure,hit,1.487807035446167,NA
46,84h#2zk,False,31,2,equal,ST1_low_6_a2,P = T2?,Same,1,2,low,154,0.83,96,1.4,154,0.9,No,sure,cr,1.4049410820007324,NA
47,84h#2zk,False,32,2,equal,ST2_high_6_a1,P = T1?,Same,2,1,high,132,0.82,96,1.15,96,1.13,No,quiteSure,cr,5.258010149002075,NA
48,84h#2zk,False,33,2,equal,ST2_high_6_a1,P = T1?,Same,2,1,high,132,0.91,96,1.42,96,1.27,No,sure,cr,1.0891849994659424,NA
49,84h#2zk,False,34,2,equal,ST2_low_3_a1,P = T1?,Same,2,1,low,70,1.84,112,0.96,112,1.14,No,sure,cr,0.9868671894073486,NA
50,84h#2zk,False,35,2,equal,ST2_high_1_a2,P = T2?,Same,2,2,high,82,1.37,112,1.03,112,1.19,Yes,sure,hit,1.044776201248169,NA
51,84h#2zk,False,36,2,equal,ST1_low_2_a1,P = T1?,Same,1,1,low,132,0.89,82,1.54,132,0.86,Yes,sure,hit,0.9721429347991943,NA
52,84h#2zk,False,37,2,equal,ST1_low_6_a2,P = T1?,Same,1,2,low,154,0.83,96,1.26,154,0.73,Yes,sure,hit,1.0277979373931885,NA
53,84h#2zk,False,38,2,equal,ST1_low_6_a2,P = T1?,Same,1,2,low,154,0.91,96,1.26,154,0.91,Yes,sure,hit,0.9929111003875732,NA
54,84h#2zk,False,39,2,equal,ST2_low_1_a2,P = T1?,Same,2,2,low,82,1.36,132,0.8,132,0.82,No,sure,cr,1.0616562366485596,NA
55,84h#2zk,False,40,2,equal,ST2_low_5_a1,P = T2?,Same,2,1,low,96,1.24,154,0.91,154,0.78,Yes,sure,hit,0.9067251682281494,NA
56,84h#2zk,False,41,2,equal,ST2_high_2_a1,P = T1?,Same,2,1,high,112,1.23,82,1.38,82,1.52,No,sure,cr,0.8895068168640137,NA
57,84h#2zk,False,42,2,equal,ST2_high_4_a2,P = T2?,Same,2,2,high,96,1.12,70,1.46,70,1.56,Yes,sure,hit,1.2577619552612305,NA
58,84h#2zk,False,43,2,equal,ST1_low_2_a2,P = T1?,Same,1,2,low,132,0.98,82,1.35,132,0.98,Yes,sure,hit,0.9787089824676514,NA
59,84h#2zk,False,44,2,equal,ST2_high_2_a2,P = T1?,Same,2,2,high,112,1.2,82,1.47,82,1.44,No,sure,cr,0.87322998046875,NA
60,84h#2zk,False,45,2,equal,ST2_high_3_a1,P = T2?,Same,2,1,high,70,1.64,96,1.13,96,1.35,Yes,sure,hit,2.636688232421875,NA
61,84h#2zk,False,46,2,equal,ST1_high_6_a1,P = T1?,Same,1,1,high,132,0.79,96,1.32,132,0.93,Yes,sure,hit,1.023665189743042,NA
62,84h#2zk,False,47,2,equal,ST1_high_5_a2,P = T2?,Same,1,2,high,96,1.42,132,1.05,96,1.39,No,sure,cr,1.1569578647613525,NA
63,84h#2zk,False,48,2,equal,ST1_high_6_a2,P = T1?,Same,1,2,high,132,0.84,96,1.04,132,0.93,Yes,sure,hit,1.2110538482666016,NA
64,84h#2zk,False,49,2,equal,ST2_high_4_a1,P = T2?,Same,2,1,high,96,1.32,70,1.54,70,1.83,Yes,sure,hit,0.8716518878936768,NA
65,84h#2zk,False,50,2,equal,ST1_high_1_a1,P = T2?,Same,1,1,high,82,1.51,112,1.07,82,1.44,No,sure,cr,2.2271149158477783,NA
66,84h#2zk,False,51,2,equal,ST2_low_5_a1,P = T1?,Same,2,1,low,96,1.14,154,0.82,154,0.92,No,sure,cr,0.9743337631225586,NA
67,84h#2zk,False,52,2,equal,STb_5_a2,P = T2?,Same,0,2,None,112,0.98,112,1.1,112,1.1,Yes,sure,hit,1.1964962482452393,NA
68,84h#2zk,False,53,2,equal,STb_7_a1,P = T2?,Same,0,1,None,154,0.8,154,0.8,154,0.95,Yes,sure,hit,0.8711643218994141,NA
69,84h#2zk,False,54,2,equal,ST2_low_5_a1,P = T1?,Same,2,1,low,96,1.32,154,0.88,154,0.71,No,sure,cr,0.9714367389678955,NA
70,84h#2zk,False,55,2,equal,ST1_high_1_a1,P = T2?,Same,1,1,high,82,1.53,112,0.98,82,1.44,No,sure,cr,1.0118861198425293,NA
71,84h#2zk,False,56,2,equal,ST1_high_4_a2,P = T1?,Same,1,2,high,96,1.12,70,1.46,96,1.35,Yes,sure,hit,1.5501971244812012,NA
72,84h#2zk,False,57,2,equal,ST1_low_3_a1,P = T1?,Same,1,1,low,70,1.55,112,0.96,70,1.39,Yes,sure,hit,1.0686869621276855,NA
73,84h#2zk,False,58,2,equal,STb_1_a1,P = T2?,Same,0,1,None,60,1.7,60,1.69,60,1.94,Yes,sure,hit,0.9750406742095947,NA
74,84h#2zk,False,59,2,equal,ST1_high_3_a1,P = T1?,Same,1,1,high,70,1.53,96,1.09,70,1.69,Yes,sure,hit,0.9095449447631836,NA
75,84h#2zk,False,60,2,equal,STb_3_a1,P = T1?,Same,0,1,None,82,1.25,82,1.52,82,1.44,Yes,sure,hit,0.8105599880218506,NA
76,84h#2zk,False,61,2,equal,ST2_high_1_a2,P = T1?,Same,2,2,high,82,1.62,112,0.92,112,0.96,No,sure,cr,0.9718351364135742,NA
77,84h#2zk,False,62,2,equal,ST2_low_2_a2,P = T1?,Same,2,2,low,132,0.99,82,1.3,82,1.22,Yes,sure,fa,0.9348611831665039,NA
78,84h#2zk,False,63,2,equal,ST1_low_1_a2,P = T1?,Same,1,2,low,82,1.48,132,0.93,82,1.26,Yes,sure,hit,2.9793312549591064,NA
79,84h#2zk,False,64,2,equal,ST1_high_2_a1,P = T1?,Same,1,1,high,112,1.19,82,1.59,112,1.17,Yes,sure,hit,0.7956578731536865,NA
80,84h#2zk,False,65,2,equal,ST1_low_2_a1,P = T1?,Same,1,1,low,132,0.89,82,1.3,132,0.95,Yes,sure,hit,0.7879307270050049,NA
81,84h#2zk,False,66,2,equal,ST2_high_4_a1,P = T1?,Same,2,1,high,96,1.14,70,1.63,70,1.72,No,sure,cr,1.194244146347046,NA
82,84h#2zk,False,67,2,equal,ST1_low_5_a1,P = T1?,Same,1,1,low,96,1.16,154,0.78,96,1.25,Yes,sure,hit,0.8795640468597412,NA
83,84h#2zk,False,68,2,equal,ST2_low_6_a2,P = T1?,Same,2,2,low,154,0.82,96,1.34,96,1.36,No,sure,cr,0.766758918762207,NA
84,84h#2zk,False,69,2,equal,STb_2_a2,P = T2?,Same,0,2,None,70,1.63,70,1.83,70,1.72,Yes,sure,hit,1.9465398788452148,NA
85,84h#2zk,False,70,2,equal,ST2_low_3_a2,P = T2?,Same,2,2,low,70,1.77,112,1.21,112,1.0,Yes,sure,hit,1.052333116531372,NA
86,84h#2zk,False,71,2,equal,ST1_high_5_a2,P = T2?,Same,1,2,high,96,1.28,132,0.97,96,1.07,No,sure,cr,3.5011801719665527,NA
87,84h#2zk,False,72,2,equal,DT1_low_5_a1,P = T1?,Different,1,1,low,96,1.18,154,0.93,82,1.23,Yes,sure,hit,1.0751819610595703,NA
88,84h#2zk,False,73,2,equal,STb_7_a2,P = T2?,Same,0,2,None,154,0.93,154,0.85,154,0.87,Yes,sure,hit,0.8120229244232178,NA
89,84h#2zk,False,74,2,equal,ST2_low_5_a2,P = T2?,Same,2,2,low,96,1.25,154,0.74,154,0.72,Yes,sure,hit,1.1916959285736084,NA
90,84h#2zk,False,75,2,equal,ST1_low_5_a2,P = T2?,Same,1,2,low,96,1.12,154,0.8,96,1.19,No,sure,cr,0.8683421611785889,NA
91,84h#2zk,False,76,2,equal,ST2_high_6_a1,P = T1?,Same,2,1,high,132,0.9,96,1.11,96,1.19,No,sure,cr,1.0991809368133545,NA
92,84h#2zk,False,77,2,equal,ST1_low_4_a1,P = T1?,Same,1,1,low,112,1.15,70,1.49,112,1.03,Yes,sure,hit,0.872910737991333,NA
93,84h#2zk,False,78,2,equal,ST1_high_2_a1,P = T1?,Same,1,1,high,112,1.02,82,1.64,112,1.21,Yes,sure,hit,0.7836401462554932,NA
94,84h#2zk,False,79,2,equal,ST2_low_3_a1,P = T1?,Same,2,1,low,70,1.46,112,1.06,112,0.93,No,sure,cr,0.9615800380706787,NA
95,84h#2zk,False,80,2,equal,ST2_low_5_a1,P = T1?,Same,2,1,low,96,1.4,154,0.8,154,0.92,No,sure,cr,0.875356912612915,NA
96,84h#2zk,False,81,2,equal,STb_8_a1,P = T2?,Same,0,1,None,180,0.75,180,0.77,180,0.85,Yes,sure,hit,1.807502031326294,NA
97,84h#2zk,False,82,2,equal,ST2_high_1_a1,P = T2?,Same,2,1,high,82,1.42,112,1.1,112,0.97,Yes,sure,hit,0.9369831085205078,NA
98,84h#2zk,False,83,2,equal,ST2_high_2_a1,P = T2?,Same,2,1,high,112,1.16,82,1.31,82,1.57,Yes,sure,hit,0.8854718208312988,NA
99,84h#2zk,False,84,2,equal,ST1_high_3_a2,P = T2?,Same,1,2,high,70,1.7,96,1.27,70,1.77,No,sure,cr,0.9146630764007568,NA
100,84h#2zk,False,85,2,equal,ST2_low_1_a2,P = T2?,Same,2,2,low,82,1.32,132,0.97,132,0.86,Yes,sure,hit,0.9431517124176025,NA
101,84h#2zk,False,86,2,equal,ST1_high_2_a1,P = T2?,Same,1,1,high,112,1.01,82,1.21,112,1.13,No,sure,cr,0.8524937629699707,NA
102,84h#2zk,False,87,2,equal,ST2_high_4_a2,P = T1?,Same,2,2,high,96,1.3,70,1.74,70,1.64,No,sure,cr,0.836590051651001,NA
103,84h#2zk,False,88,2,equal,ST2_high_5_a2,P = T1?,Same,2,2,high,96,1.18,132,0.86,132,0.87,No,sure,cr,0.8751780986785889,NA
104,84h#2zk,False,89,2,equal,ST2_low_4_a2,P = T1?,Same,2,2,low,112,0.94,70,1.7,70,1.77,No,sure,cr,0.9179520606994629,NA
105,84h#2zk,False,90,2,equal,ST1_high_5_a1,P = T2?,Same,1,1,high,96,1.38,132,0.96,96,1.06,No,sure,cr,1.425478219985962,NA
106,84h#2zk,False,91,2,equal,ST2_low_4_a1,P = T1?,Same,2,1,low,112,0.94,70,1.65,70,1.85,No,sure,cr,0.8951270580291748,NA
107,84h#2zk,False,92,2,equal,ST2_high_2_a2,P = T2?,Same,2,2,high,112,1.07,82,1.56,82,1.34,Yes,sure,hit,0.9198319911956787,NA
108,84h#2zk,False,93,2,equal,ST2_low_4_a1,P = T2?,Same,2,1,low,112,1.05,70,1.51,70,1.65,Yes,sure,hit,1.0021686553955078,NA
109,84h#2zk,False,94,2,equal,ST1_high_6_a1,P = T1?,Same,1,1,high,132,1.01,96,1.2,132,0.93,Yes,sure,hit,0.9730038642883301,NA
110,84h#2zk,False,95,2,equal,ST2_high_1_a1,P = T1?,Same,2,1,high,82,1.4,112,1.07,112,1.19,No,sure,cr,0.8321430683135986,NA
111,84h#2zk,False,96,2,equal,ST1_high_6_a1,P = T1?,Same,1,1,high,132,0.97,96,1.35,132,0.87,Yes,sure,hit,1.250359058380127,NA
112,84h#2zk,False,97,2,equal,STb_8_a2,P = T1?,Same,0,2,None,180,0.76,180,0.88,180,0.71,Yes,sure,hit,0.6952571868896484,NA
113,84h#2zk,False,98,2,equal,ST1_low_4_a1,P = T1?,Same,1,1,low,112,0.98,70,1.42,112,0.98,Yes,sure,hit,1.0028400421142578,NA
114,84h#2zk,False,99,2,equal,ST1_high_1_a1,P = T1?,Same,1,1,high,82,1.23,112,1.03,82,1.43,Yes,sure,hit,1.0147740840911865,NA
115,84h#2zk,False,100,2,equal,ST1_low_6_a1,P = T1?,Same,1,1,low,154,0.72,96,1.29,154,0.71,No,sure,miss,1.3569731712341309,NA
116,84h#2zk,False,101,2,equal,DT2_high_1_a2,P = T1?,Different,2,2,high,82,1.46,112,1.01,132,0.98,No,sure,cr,2.1162118911743164,NA
117,84h#2zk,False,102,2,equal,ST2_low_5_a2,P = T1?,Same,2,2,low,96,1.31,154,0.71,154,0.78,No,sure,cr,0.9875619411468506,NA
118,84h#2zk,False,103,2,equal,ST1_high_3_a2,P = T2?,Same,1,2,high,70,1.55,96,1.08,70,1.69,No,sure,cr,1.3851978778839111,NA
119,84h#2zk,False,104,2,equal,ST1_low_1_a2,P = T2?,Same,1,2,low,82,1.56,132,0.85,82,1.61,No,sure,cr,2.795639991760254,NA
120,84h#2zk,False,105,2,equal,ST1_high_4_a1,P = T1?,Same,1,1,high,96,1.06,70,1.77,96,1.42,Yes,sure,hit,1.4234051704406738,NA
121,84h#2zk,False,106,2,equal,DT2_high_5_a2,P = T1?,Different,2,2,high,96,1.2,132,0.82,154,0.76,No,sure,cr,2.0447499752044678,NA
122,84h#2zk,False,107,2,equal,ST1_low_1_a2,P = T1?,Same,1,2,low,82,1.57,132,0.96,82,1.23,Yes,quiteSure,hit,1.5030560493469238,NA
123,84h#2zk,False,108,2,equal,ST1_low_2_a2,P = T2?,Same,1,2,low,132,0.92,82,1.37,132,0.99,No,sure,cr,1.2656886577606201,NA
124,84h#2zk,False,109,2,equal,ST2_high_2_a2,P = T1?,Same,2,2,high,112,1.18,82,1.56,82,1.32,No,sure,cr,1.0421340465545654,NA
125,84h#2zk,False,110,2,equal,DT2_low_4_a1,P = T2?,Different,2,1,low,112,0.93,70,1.43,60,1.77,Yes,sure,hit,1.2468130588531494,NA
126,84h#2zk,False,111,2,equal,ST2_low_6_a1,P = T1?,Same,2,1,low,154,0.71,96,1.19,96,1.31,No,sure,cr,0.9785888195037842,NA
127,84h#2zk,False,112,2,equal,ST1_low_6_a1,P = T2?,Same,1,1,low,154,0.83,96,1.07,154,0.8,No,sure,cr,0.9307489395141602,NA
128,84h#2zk,False,113,2,equal,ST2_high_5_a1,P = T1?,Same,2,1,high,96,1.09,132,0.94,132,0.86,No,sure,cr,1.3064539432525635,NA
129,84h#2zk,False,114,2,equal,ST2_low_3_a2,P = T2?,Same,2,2,low,70,1.39,112,0.92,112,0.92,Yes,sure,hit,1.1693799495697021,NA
130,84h#2zk,False,115,2,equal,ST1_high_1_a2,P = T1?,Same,1,2,high,82,1.22,112,1.1,82,1.38,Yes,sure,hit,1.4745769500732422,NA
131,84h#2zk,False,116,2,equal,ST1_low_4_a1,P = T2?,Same,1,1,low,112,1.21,70,1.45,112,1.13,No,sure,cr,1.7951509952545166,NA
132,84h#2zk,False,117,2,equal,ST1_high_4_a2,P = T1?,Same,1,2,high,96,1.39,70,1.73,96,1.32,Yes,sure,hit,1.2572519779205322,NA
133,84h#2zk,False,118,2,equal,ST2_high_5_a1,P = T1?,Same,2,1,high,96,1.09,132,0.87,132,0.93,No,sure,cr,1.186042070388794,NA
134,84h#2zk,False,119,2,equal,ST1_low_4_a2,P = T1?,Same,1,2,low,112,0.93,70,1.56,112,1.09,Yes,sure,hit,1.3511340618133545,NA
135,84h#2zk,False,120,2,equal,ST1_low_5_a1,P = T2?,Same,1,1,low,96,1.1,154,0.71,96,1.17,No,sure,cr,1.947281837463379,NA
136,84h#2zk,False,121,2,equal,ST2_low_5_a2,P = T1?,Same,2,2,low,96,1.26,154,0.9,154,0.74,No,sure,cr,1.0675699710845947,NA
137,84h#2zk,False,122,2,equal,ST2_high_6_a1,P = T2?,Same,2,1,high,132,0.89,96,1.41,96,1.16,Yes,sure,hit,1.1476109027862549,NA
138,84h#2zk,False,123,2,equal,ST1_low_3_a1,P = T2?,Same,1,1,low,70,1.53,112,0.95,70,1.64,No,sure,cr,0.898648738861084,NA
139,84h#2zk,False,124,2,equal,ST1_high_3_a1,P = T2?,Same,1,1,high,70,1.54,96,1.35,70,1.52,No,sure,cr,0.9128351211547852,NA
140,84h#2zk,False,125,2,equal,DT2_high_2_a2,P = T1?,Different,2,2,high,112,1.03,82,1.34,70,1.81,No,sure,cr,0.9240508079528809,NA
141,84h#2zk,False,126,2,equal,ST2_high_4_a1,P = T2?,Same,2,1,high,96,1.17,70,1.76,70,1.58,Yes,sure,hit,1.0510509014129639,NA
142,84h#2zk,False,127,2,equal,ST2_low_4_a2,P = T2?,Same,2,2,low,112,1.14,70,1.4,70,1.57,Yes,sure,hit,1.0117759704589844,NA
143,84h#2zk,False,128,2,equal,DT1_high_5_a2,P = T1?,Different,1,2,high,96,1.37,132,1.02,82,1.27,No,quiteSure,miss,1.8933260440826416,NA
144,84h#2zk,False,129,2,equal,ST2_high_3_a2,P = T1?,Same,2,2,high,70,1.76,96,1.32,96,1.25,No,sure,cr,0.9439761638641357,NA
145,84h#2zk,False,130,2,equal,ST2_low_4_a1,P = T2?,Same,2,1,low,112,1.04,70,1.44,70,1.7,Yes,sure,hit,1.1930181980133057,NA
146,84h#2zk,False,131,2,equal,ST1_high_2_a2,P = T2?,Same,1,2,high,112,1.11,82,1.62,112,1.14,No,sure,cr,1.1921610832214355,NA
147,84h#2zk,False,132,2,equal,ST1_high_1_a2,P = T2?,Same,1,2,high,82,1.48,112,1.05,82,1.51,No,sure,cr,2.6830027103424072,NA
148,84h#2zk,False,133,2,equal,ST1_low_2_a1,P = T2?,Same,1,1,low,132,0.8,82,1.53,132,0.86,No,sure,cr,0.916999340057373,NA
149,84h#2zk,False,134,2,equal,ST1_high_2_a2,P = T2?,Same,1,2,high,112,1.12,82,1.48,112,1.03,No,sure,cr,1.0195200443267822,NA
150,84h#2zk,False,135,2,equal,ST2_high_4_a2,P = T2?,Same,2,2,high,96,1.14,70,1.69,70,1.74,Yes,sure,hit,1.2062370777130127,NA
151,84h#2zk,False,136,2,equal,ST1_low_6_a1,P = T2?,Same,1,1,low,154,0.86,96,1.13,154,0.9,No,quiteSure,cr,2.91277813911438,NA
152,84h#2zk,False,137,2,equal,ST1_high_1_a2,P = T2?,Same,1,2,high,82,1.61,112,0.93,82,1.39,No,sure,cr,0.9009201526641846,NA
153,84h#2zk,False,138,2,equal,ST1_high_5_a1,P = T2?,Same,1,1,high,96,1.12,132,0.93,96,1.26,No,sure,cr,1.4725806713104248,NA
154,84h#2zk,False,139,2,equal,ST1_high_1_a1,P = T1?,Same,1,1,high,82,1.31,112,0.99,82,1.51,Yes,sure,hit,1.1913490295410156,NA
155,84h#2zk,False,140,2,equal,ST2_high_1_a1,P = T1?,Same,2,1,high,82,1.46,112,1.04,112,1.16,No,sure,cr,0.9800770282745361,NA
156,84h#2zk,False,141,2,equal,ST2_high_2_a2,P = T2?,Same,2,2,high,112,1.19,82,1.58,82,1.28,Yes,sure,hit,1.048642635345459,NA
157,84h#2zk,False,142,2,equal,ST2_high_1_a1,P = T2?,Same,2,1,high,82,1.64,112,1.17,112,1.07,Yes,sure,hit,0.815852165222168,NA
158,84h#2zk,False,143,2,equal,ST1_low_6_a1,P = T2?,Same,1,1,low,154,0.92,96,1.39,154,0.88,No,sure,cr,1.3180348873138428,NA
159,84h#2zk,False,144,2,equal,ST1_high_6_a2,P = T2?,Same,1,2,high,132,0.98,96,1.35,132,0.89,No,sure,cr,0.8613138198852539,NA
160,84h#2zk,False,145,2,equal,ST1_high_1_a2,P = T1?,Same,1,2,high,82,1.33,112,1.22,82,1.38,Yes,sure,hit,0.9842019081115723,NA
161,84h#2zk,False,146,2,equal,ST2_low_1_a1,P = T1?,Same,2,1,low,82,1.31,132,0.88,132,0.96,No,sure,cr,0.9812901020050049,NA
162,84h#2zk,False,147,2,equal,ST2_low_2_a2,P = T2?,Same,2,2,low,132,0.97,82,1.27,82,1.3,Yes,sure,hit,0.973020076751709,NA
163,84h#2zk,False,148,2,equal,ST1_low_3_a2,P = T1?,Same,1,2,low,70,1.46,112,1.05,70,1.44,Yes,sure,hit,0.8623051643371582,NA
164,84h#2zk,False,149,2,equal,ST2_high_2_a2,P = T1?,Same,2,2,high,112,0.96,82,1.24,82,1.41,No,sure,cr,0.8874249458312988,NA
165,84h#2zk,False,150,2,equal,ST2_low_6_a2,P = T2?,Same,2,2,low,154,0.79,96,1.3,96,1.33,Yes,sure,hit,0.8784658908843994,NA
166,84h#2zk,False,151,2,equal,ST1_high_5_a2,P = T2?,Same,1,2,high,96,1.15,132,0.8,96,1.26,No,sure,cr,0.7876071929931641,NA
167,84h#2zk,False,152,2,equal,ST1_high_4_a2,P = T1?,Same,1,2,high,96,1.06,70,1.84,96,1.13,Yes,sure,hit,1.012495994567871,NA
168,84h#2zk,False,153,2,equal,ST2_low_1_a1,P = T2?,Same,2,1,low,82,1.56,132,0.8,132,0.9,Yes,sure,hit,1.3691127300262451,NA
169,84h#2zk,False,154,2,equal,ST1_low_2_a1,P = T1?,Same,1,1,low,132,0.98,82,1.36,132,0.92,Yes,sure,hit,0.8209316730499268,NA
170,84h#2zk,False,155,2,equal,DT1_low_6_a2,P = T1?,Different,1,2,low,154,0.73,96,1.21,180,0.85,Yes,sure,hit,0.8573422431945801,NA
171,84h#2zk,False,156,2,equal,ST2_low_6_a1,P = T2?,Same,2,1,low,154,0.83,96,1.17,96,1.29,Yes,sure,hit,0.7655029296875,NA
172,84h#2zk,False,157,2,equal,ST2_low_6_a2,P = T1?,Same,2,2,low,154,0.71,96,1.4,96,1.43,No,sure,cr,0.8956089019775391,NA
173,84h#2zk,False,158,2,equal,ST2_high_5_a1,P = T2?,Same,2,1,high,96,1.1,132,0.83,132,0.98,Yes,sure,hit,0.7219259738922119,NA
174,84h#2zk,False,159,2,equal,ST2_low_2_a1,P = T1?,Same,2,1,low,132,0.88,82,1.32,82,1.25,No,sure,cr,0.7960779666900635,NA
175,84h#2zk,False,160,2,equal,DT2_high_2_a2,P = T2?,Different,2,2,high,112,1.14,82,1.25,70,1.47,Yes,sure,hit,1.0402019023895264,NA
176,84h#2zk,False,161,2,equal,ST2_high_1_a1,P = T1?,Same,2,1,high,82,1.54,112,1.21,112,1.13,No,sure,cr,0.9281086921691895,NA
177,84h#2zk,False,162,2,equal,ST1_low_1_a1,P = T2?,Same,1,1,low,82,1.49,132,1.05,82,1.41,No,sure,cr,2.4339141845703125,NA
178,84h#2zk,False,163,2,equal,ST2_high_6_a2,P = T1?,Same,2,2,high,132,0.91,96,1.2,96,1.18,No,quiteSure,cr,1.7385141849517822,NA
179,84h#2zk,False,164,2,equal,ST1_low_2_a2,P = T2?,Same,1,2,low,132,1.02,82,1.25,132,0.92,No,sure,cr,1.082427740097046,NA
180,84h#2zk,False,165,2,equal,ST1_high_2_a2,P = T1?,Same,1,2,high,112,1.06,82,1.31,112,1.04,Yes,quiteSure,hit,0.9685666561126709,NA
181,84h#2zk,False,166,2,equal,ST2_low_2_a1,P = T2?,Same,2,1,low,132,0.94,82,1.52,82,1.25,Yes,sure,hit,1.1160948276519775,NA
182,84h#2zk,False,167,2,equal,DT1_low_6_a2,P = T2?,Different,1,2,low,154,0.95,96,1.09,180,0.75,No,sure,cr,1.1509737968444824,NA
183,84h#2zk,False,168,2,equal,ST2_high_1_a2,P = T1?,Same,2,2,high,82,1.58,112,1.08,112,1.02,No,sure,cr,0.9566569328308105,NA
184,84h#2zk,False,169,2,equal,ST2_low_4_a2,P = T1?,Same,2,2,low,112,1.04,70,1.84,70,1.52,No,sure,cr,1.098193883895874,NA
185,84h#2zk,False,170,2,equal,ST1_low_4_a1,P = T2?,Same,1,1,low,112,1.2,70,1.44,112,1.11,No,sure,cr,1.510828971862793,NA
186,84h#2zk,False,171,2,equal,ST2_low_4_a2,P = T2?,Same,2,2,low,112,1.15,70,1.5,70,1.61,Yes,sure,hit,0.8877589702606201,NA
187,84h#2zk,False,172,2,equal,ST2_high_2_a1,P = T2?,Same,2,1,high,112,1.05,82,1.45,82,1.44,Yes,quiteSure,hit,1.7856698036193848,NA
188,84h#2zk,False,173,2,equal,ST1_low_1_a1,P = T1?,Same,1,1,low,82,1.32,132,0.9,82,1.5,Yes,sure,hit,1.133976936340332,NA
189,84h#2zk,False,174,2,equal,ST2_low_3_a1,P = T2?,Same,2,1,low,70,1.43,112,1.23,112,1.19,Yes,sure,hit,0.992203950881958,NA
190,84h#2zk,False,175,2,equal,ST2_high_1_a1,P = T2?,Same,2,1,high,82,1.35,112,0.95,112,1.08,Yes,sure,hit,1.0744261741638184,NA
191,84h#2zk,False,176,2,equal,ST1_low_2_a2,P = T2?,Same,1,2,low,132,0.87,82,1.42,132,1.05,No,sure,cr,1.4479680061340332,NA
192,84h#2zk,False,177,2,equal,ST2_high_1_a2,P = T2?,Same,2,2,high,82,1.61,112,1.08,112,0.92,Yes,sure,hit,0.9974820613861084,NA
193,84h#2zk,False,178,2,equal,ST1_low_4_a1,P = T2?,Same,1,1,low,112,1.18,70,1.81,112,1.0,No,sure,cr,0.8499557971954346,NA
194,84h#2zk,False,179,2,equal,ST1_high_5_a2,P = T1?,Same,1,2,high,96,1.37,132,0.87,96,1.21,Yes,quiteSure,hit,2.150197982788086,NA
195,84h#2zk,False,180,2,equal,ST2_low_1_a1,P = T1?,Same,2,1,low,82,1.48,132,0.91,132,0.91,No,sure,cr,2.542933940887451,NA
196,84h#2zk,False,181,2,equal,ST1_low_4_a1,P = T1?,Same,1,1,low,112,0.98,70,1.72,112,1.14,Yes,sure,hit,1.8996338844299316,NA
197,84h#2zk,False,182,2,equal,ST2_low_2_a1,P = T1?,Same,2,1,low,132,1.04,82,1.32,82,1.59,No,sure,cr,0.9881269931793213,NA
198,84h#2zk,False,183,2,equal,ST1_high_6_a2,P = T1?,Same,1,2,high,132,0.88,96,1.1,132,0.79,Yes,sure,hit,0.844078779220581,NA
199,84h#2zk,False,184,2,equal,ST2_high_4_a2,P = T1?,Same,2,2,high,96,1.25,70,1.65,70,1.51,No,sure,cr,0.8583941459655762,NA
200,84h#2zk,False,185,2,equal,ST2_high_5_a2,P = T1?,Same,2,2,high,96,1.15,132,0.92,132,0.96,No,sure,cr,0.9186670780181885,NA
201,84h#2zk,False,186,2,equal,ST2_low_6_a1,P = T1?,Same,2,1,low,154,0.72,96,1.08,96,1.35,No,sure,cr,0.815338134765625,NA
202,84h#2zk,False,187,2,equal,ST1_low_4_a2,P = T2?,Same,1,2,low,112,0.95,70,1.44,112,1.05,No,sure,cr,0.8118469715118408,NA
203,84h#2zk,False,188,2,equal,ST2_high_4_a2,P = T2?,Same,2,2,high,96,1.22,70,1.63,70,1.55,Yes,sure,hit,0.9796309471130371,NA
204,84h#2zk,False,189,2,equal,ST2_low_1_a2,P = T1?,Same,2,2,low,82,1.43,132,1.01,132,1.03,No,sure,cr,0.7552320957183838,NA
205,84h#2zk,False,190,2,equal,ST1_high_2_a2,P = T1?,Same,1,2,high,112,1.07,82,1.43,112,1.14,No,unsure,miss,3.095677137374878,NA
206,84h#2zk,False,191,2,equal,ST1_high_6_a2,P = T2?,Same,1,2,high,132,1.0,96,1.1,132,0.97,No,sure,cr,1.001128911972046,NA
207,84h#2zk,False,192,2,equal,ST1_high_4_a1,P = T2?,Same,1,1,high,96,1.38,70,1.8,96,1.25,No,sure,cr,1.2750179767608643,NA
208,84h#2zk,False,193,2,equal,ST1_low_6_a2,P = T2?,Same,1,2,low,154,0.76,96,1.32,154,0.89,No,sure,cr,0.8001959323883057,NA
209,84h#2zk,False,194,2,equal,ST2_high_3_a2,P = T1?,Same,2,2,high,70,1.36,96,1.17,96,1.35,No,sure,cr,1.428891897201538,NA
210,84h#2zk,False,195,2,equal,ST2_high_3_a1,P = T1?,Same,2,1,high,70,1.65,96,1.18,96,1.33,Yes,sure,fa,1.2247889041900635,NA
211,84h#2zk,False,196,2,equal,ST2_low_6_a2,P = T1?,Same,2,2,low,154,0.9,96,1.15,96,1.34,No,sure,cr,1.7769429683685303,NA
212,84h#2zk,False,197,2,equal,ST1_high_1_a1,P = T2?,Same,1,1,high,82,1.12,112,0.85,82,1.29,No,sure,cr,2.1683871746063232,NA
213,84h#2zk,False,198,2,equal,ST1_low_1_a2,P = T1?,Same,1,2,low,82,1.42,132,0.85,82,1.23,Yes,sure,hit,1.5551080703735352,NA
214,84h#2zk,False,199,2,equal,ST1_high_4_a2,P = T2?,Same,1,2,high,96,1.31,70,1.5,96,1.43,No,quiteSure,cr,2.7740769386291504,NA
215,84h#2zk,False,200,2,equal,ST2_low_3_a2,P = T1?,Same,2,2,low,70,1.62,112,1.04,112,1.17,No,sure,cr,1.2580060958862305,NA
216,84h#2zk,False,201,2,equal,DT2_low_2_a1,P = T2?,Different,2,1,low,132,0.8,82,1.43,70,1.58,Yes,sure,hit,2.2438740730285645,NA
217,84h#2zk,False,202,2,equal,ST2_low_5_a2,P = T2?,Same,2,2,low,96,1.08,154,0.72,154,0.75,Yes,sure,hit,1.9180541038513184,NA
218,84h#2zk,False,203,2,equal,ST2_high_3_a2,P = T2?,Same,2,2,high,70,1.5,96,1.33,96,1.19,Yes,sure,hit,1.5147590637207031,NA
219,84h#2zk,False,204,2,equal,ST1_high_4_a2,P = T2?,Same,1,2,high,96,1.24,70,1.47,96,1.43,No,sure,cr,1.159005880355835,NA
220,84h#2zk,False,205,2,equal,ST2_high_5_a1,P = T2?,Same,2,1,high,96,1.23,132,0.92,132,0.96,Yes,sure,hit,0.9454038143157959,NA
221,84h#2zk,False,206,2,equal,ST2_low_3_a1,P = T2?,Same,2,1,low,70,1.69,112,1.22,112,1.18,Yes,sure,hit,0.8408429622650146,NA
222,84h#2zk,False,207,2,equal,STb_5_a2,P = T1?,Same,0,2,None,112,1.01,112,1.17,112,1.21,Yes,sure,hit,1.1822309494018555,NA
223,84h#2zk,False,208,2,equal,ST1_low_1_a2,P = T2?,Same,1,2,low,82,1.5,132,0.79,82,1.51,No,sure,cr,1.5617752075195312,NA
224,84h#2zk,False,209,2,equal,ST2_high_3_a2,P = T2?,Same,2,2,high,70,1.37,96,1.11,96,1.33,Yes,sure,hit,1.0208771228790283,NA
225,84h#2zk,False,210,2,equal,ST2_high_1_a2,P = T1?,Same,2,2,high,82,1.22,112,1.11,112,0.95,No,sure,cr,1.1080327033996582,NA
226,84h#2zk,False,211,2,equal,ST2_low_5_a2,P = T2?,Same,2,2,low,96,1.28,154,0.73,154,0.94,Yes,sure,hit,1.1480090618133545,NA
227,84h#2zk,False,212,2,equal,ST2_low_6_a1,P = T2?,Same,2,1,low,154,0.81,96,1.2,96,1.08,Yes,sure,hit,1.1290960311889648,NA
228,84h#2zk,False,213,2,equal,ST1_low_5_a2,P = T2?,Same,1,2,low,96,1.15,154,0.8,96,1.16,No,sure,cr,0.9665889739990234,NA
229,84h#2zk,False,214,2,equal,ST2_high_6_a1,P = T2?,Same,2,1,high,132,0.85,96,1.25,96,1.36,Yes,sure,hit,0.9207291603088379,NA
230,84h#2zk,False,215,2,equal,ST1_low_1_a1,P = T2?,Same,1,1,low,82,1.35,132,0.95,82,1.54,No,sure,cr,1.1034889221191406,NA
231,84h#2zk,False,216,2,equal,DT2_low_5_a2,P = T2?,Different,2,2,low,96,1.25,154,0.89,180,0.82,Yes,sure,hit,0.9639339447021484,NA
232,84h#2zk,False,217,2,equal,ST1_low_6_a1,P = T1?,Same,1,1,low,154,0.78,96,1.4,154,0.82,Yes,sure,hit,0.8070499897003174,NA
233,84h#2zk,False,218,2,equal,ST2_low_2_a1,P = T1?,Same,2,1,low,132,0.92,82,1.64,82,1.56,No,sure,cr,0.8874900341033936,NA
234,84h#2zk,False,219,2,equal,STb_4_a2,P = T1?,Same,0,2,None,96,1.3,96,1.1,96,1.31,Yes,sure,hit,1.044602870941162,NA
235,84h#2zk,False,220,2,equal,ST2_low_1_a1,P = T2?,Same,2,1,low,82,1.39,132,1.02,132,1.05,Yes,sure,hit,0.9978950023651123,NA
236,84h#2zk,False,221,2,equal,ST1_low_3_a2,P = T2?,Same,1,2,low,70,1.39,112,1.01,70,1.58,No,sure,cr,0.8688719272613525,NA
237,84h#2zk,False,222,2,equal,ST1_low_5_a1,P = T2?,Same,1,1,low,96,1.2,154,0.89,96,1.27,No,sure,cr,0.8339118957519531,NA
238,84h#2zk,False,223,2,equal,ST2_high_5_a2,P = T1?,Same,2,2,high,96,1.35,132,1.03,132,0.89,No,sure,cr,0.8006494045257568,NA
239,84h#2zk,False,224,2,equal,ST2_low_1_a2,P = T2?,Same,2,2,low,82,1.21,132,1.05,132,0.78,Yes,sure,hit,0.90628981590271,NA
240,84h#2zk,False,225,2,equal,ST1_low_2_a2,P = T1?,Same,1,2,low,132,0.84,82,1.27,132,1.04,Yes,sure,hit,0.8167941570281982,NA
241,84h#2zk,False,226,2,equal,DT1_low_3_a1,P = T2?,Different,1,1,low,70,1.42,112,0.91,60,1.55,No,sure,cr,0.9283649921417236,NA
242,84h#2zk,False,227,2,equal,STb_1_a2,P = T1?,Same,0,2,None,60,2.04,60,1.94,60,1.54,No,sure,miss,0.35287976264953613,NA
243,84h#2zk,False,228,2,equal,ST2_high_4_a1,P = T1?,Same,2,1,high,96,1.38,70,1.43,70,1.44,Yes,sure,fa,0.9050998687744141,NA
244,84h#2zk,False,229,2,equal,ST1_high_4_a1,P = T1?,Same,1,1,high,96,1.16,70,1.5,96,1.3,Yes,sure,hit,1.4702768325805664,NA
245,84h#2zk,False,230,2,equal,ST1_high_2_a2,P = T1?,Same,1,2,high,112,0.93,82,1.63,112,1.0,Yes,sure,hit,1.1358387470245361,NA
246,84h#2zk,False,231,2,equal,ST2_low_1_a2,P = T2?,Same,2,2,low,82,1.26,132,0.93,132,0.85,Yes,sure,hit,1.2021160125732422,NA
247,84h#2zk,False,232,2,equal,ST1_low_5_a2,P = T1?,Same,1,2,low,96,1.39,154,0.76,96,1.13,Yes,sure,hit,0.8004510402679443,NA
248,84h#2zk,False,233,2,equal,ST2_low_6_a2,P = T2?,Same,2,2,low,154,0.85,96,1.38,96,1.08,Yes,sure,hit,1.0732152462005615,NA
249,84h#2zk,False,234,2,equal,ST2_low_2_a2,P = T1?,Same,2,2,low,132,0.85,82,1.61,82,1.22,No,quiteSure,cr,3.0765750408172607,NA
250,84h#2zk,False,235,2,equal,ST1_low_2_a1,P = T2?,Same,1,1,low,132,0.83,82,1.36,132,0.84,No,sure,cr,0.9919707775115967,NA
251,84h#2zk,False,236,2,equal,ST1_high_3_a2,P = T1?,Same,1,2,high,70,1.8,96,1.25,70,1.77,Yes,sure,hit,0.9155709743499756,NA
252,84h#2zk,False,237,2,equal,ST2_high_4_a1,P = T1?,Same,2,1,high,96,1.09,70,1.43,70,1.54,No,sure,cr,0.9885058403015137,NA
253,84h#2zk,False,238,2,equal,ST2_high_5_a1,P = T2?,Same,2,1,high,96,1.42,132,0.96,132,0.92,Yes,sure,hit,1.2842638492584229,NA
254,84h#2zk,False,239,2,equal,ST2_high_3_a2,P = T1?,Same,2,2,high,70,1.67,96,1.12,96,1.17,No,sure,cr,0.7489819526672363,NA
255,84h#2zk,False,240,2,equal,ST2_high_3_a1,P = T1?,Same,2,1,high,70,1.69,96,1.36,96,1.4,No,sure,cr,1.8778948783874512,NA
256,84h#2zk,False,241,2,equal,ST1_high_2_a1,P = T1?,Same,1,1,high,112,1.14,82,1.37,112,0.99,Yes,sure,hit,1.7204887866973877,NA
257,84h#2zk,False,242,2,equal,DT1_low_6_a1,P = T2?,Different,1,1,low,154,0.88,96,1.07,180,0.88,No,sure,cr,0.9905180931091309,NA
258,84h#2zk,False,243,2,equal,ST1_low_4_a2,P = T2?,Same,1,2,low,112,1.21,70,1.76,112,0.92,No,sure,cr,1.0248260498046875,NA
259,84h#2zk,False,244,2,equal,ST2_high_6_a2,P = T2?,Same,2,2,high,132,0.84,96,1.19,96,1.15,Yes,sure,hit,1.0195469856262207,NA
260,84h#2zk,False,245,2,equal,ST2_high_2_a1,P = T1?,Same,2,1,high,112,1.19,82,1.45,82,1.32,No,sure,cr,0.9058609008789062,NA
261,84h#2zk,False,246,2,equal,ST1_low_3_a2,P = T1?,Same,1,2,low,70,1.44,112,1.09,70,1.75,Yes,sure,hit,0.837846040725708,NA
262,84h#2zk,False,247,2,equal,ST2_high_3_a1,P = T1?,Same,2,1,high,70,1.72,96,1.07,96,1.41,No,sure,cr,0.9847259521484375,NA
263,84h#2zk,False,248,2,equal,ST1_high_4_a2,P = T2?,Same,1,2,high,96,1.3,70,1.8,96,1.39,No,sure,cr,0.7721731662750244,NA
264,84h#2zk,False,249,2,equal,ST1_low_5_a2,P = T1?,Same,1,2,low,96,1.16,154,0.75,96,1.32,Yes,sure,hit,0.8877749443054199,NA
265,84h#2zk,False,250,2,equal,ST1_low_2_a2,P = T1?,Same,1,2,low,132,0.92,82,1.54,132,0.81,Yes,sure,hit,1.088197946548462,NA
266,84h#2zk,False,251,2,equal,ST2_low_1_a1,P = T1?,Same,2,1,low,82,1.5,132,1.0,132,0.93,No,sure,cr,0.7751128673553467,NA
267,84h#2zk,False,252,2,equal,ST2_high_6_a2,P = T1?,Same,2,2,high,132,0.86,96,1.11,96,1.1,Yes,sure,fa,1.1868431568145752,NA
268,84h#2zk,False,253,2,equal,ST2_low_4_a2,P = T2?,Same,2,2,low,112,1.12,70,1.46,70,1.83,Yes,sure,hit,1.602470874786377,NA
269,84h#2zk,False,254,2,equal,DT2_high_6_a1,P = T1?,Different,2,1,high,132,0.9,96,1.26,82,1.36,No,sure,cr,0.862023115158081,NA
270,84h#2zk,False,255,2,equal,ST1_low_4_a2,P = T1?,Same,1,2,low,112,1.1,70,1.6,112,1.05,Yes,sure,hit,0.788917064666748,NA
271,84h#2zk,False,256,2,equal,ST1_low_4_a2,P = T1?,Same,1,2,low,112,1.07,70,1.45,112,1.17,Yes,sure,hit,0.7748589515686035,NA
272,84h#2zk,False,257,2,equal,ST2_high_5_a2,P = T2?,Same,2,2,high,96,1.26,132,0.85,132,0.95,Yes,sure,hit,0.891686201095581,NA
273,84h#2zk,False,258,2,equal,ST2_high_2_a2,P = T2?,Same,2,2,high,112,0.96,82,1.64,82,1.24,Yes,sure,hit,0.981605052947998,NA
274,84h#2zk,False,259,2,equal,ST1_high_6_a2,P = T2?,Same,1,2,high,132,1.05,96,1.22,132,0.83,No,sure,cr,0.7480001449584961,NA
275,84h#2zk,False,260,2,equal,ST2_high_6_a2,P = T1?,Same,2,2,high,132,0.8,96,1.28,96,1.08,Yes,quiteSure,fa,1.115614891052246,NA
276,84h#2zk,False,261,2,equal,ST1_low_6_a1,P = T1?,Same,1,1,low,154,0.71,96,1.36,154,0.96,Yes,sure,hit,1.040820837020874,NA
277,84h#2zk,False,262,2,equal,ST1_low_3_a2,P = T2?,Same,1,2,low,70,1.57,112,1.22,70,1.67,No,sure,cr,1.1317071914672852,NA
278,84h#2zk,False,263,2,equal,ST2_high_4_a2,P = T1?,Same,2,2,high,96,1.18,70,1.78,70,1.71,No,sure,cr,1.0588641166687012,NA
279,84h#2zk,False,264,2,equal,ST1_high_6_a1,P = T2?,Same,1,1,high,132,0.8,96,1.37,132,1.05,Yes,unsure,fa,5.14196252822876,NA
280,84h#2zk,False,265,2,equal,ST1_high_6_a2,P = T1?,Same,1,2,high,132,0.87,96,1.18,132,0.79,Yes,sure,hit,1.3831279277801514,NA
281,84h#2zk,False,266,2,equal,ST1_high_2_a1,P = T2?,Same,1,1,high,112,1.03,82,1.51,112,0.96,No,sure,cr,0.9866130352020264,NA
282,84h#2zk,False,267,2,equal,ST2_high_5_a2,P = T2?,Same,2,2,high,96,1.19,132,0.84,132,0.89,Yes,sure,hit,1.9976482391357422,NA
283,84h#2zk,False,268,2,equal,ST1_high_3_a1,P = T2?,Same,1,1,high,70,1.55,96,1.42,70,1.53,No,sure,cr,1.0342719554901123,NA
284,84h#2zk,False,269,2,equal,STb_7_a1,P = T1?,Same,0,1,None,154,0.87,154,0.8,154,0.84,Yes,sure,hit,1.3446650505065918,NA
285,84h#2zk,False,270,2,equal,ST1_low_3_a1,P = T2?,Same,1,1,low,70,1.43,112,0.99,70,1.55,No,sure,cr,1.0788099765777588,NA
286,84h#2zk,False,271,2,equal,ST2_low_6_a2,P = T2?,Same,2,2,low,154,0.77,96,1.19,96,1.09,Yes,sure,hit,2.6705217361450195,NA
287,84h#2zk,False,272,2,equal,ST1_high_5_a1,P = T1?,Same,1,1,high,96,1.24,132,1.06,96,1.27,Yes,sure,hit,1.6903789043426514,NA
288,84h#2zk,False,273,2,equal,STb_4_a2,P = T2?,Same,0,2,None,96,1.18,96,1.41,96,1.27,Yes,sure,hit,1.2976171970367432,NA
289,84h#2zk,False,274,2,equal,STb_2_a2,P = T1?,Same,0,2,None,70,1.56,70,1.73,70,1.81,No,unsure,miss,3.056385040283203,NA
290,84h#2zk,False,275,2,equal,ST2_high_5_a1,P = T1?,Same,2,1,high,96,1.4,132,0.81,132,0.89,No,sure,cr,1.4236161708831787,NA
291,84h#2zk,False,276,2,equal,ST1_high_5_a2,P = T1?,Same,1,2,high,96,1.26,132,0.97,96,1.24,Yes,sure,hit,2.139784812927246,NA
292,84h#2zk,False,277,2,equal,ST2_low_3_a2,P = T1?,Same,2,2,low,70,1.41,112,0.96,112,1.22,No,sure,cr,1.024524211883545,NA
293,84h#2zk,False,278,2,equal,ST1_high_3_a2,P = T2?,Same,1,2,high,70,1.44,96,1.34,70,1.61,No,sure,cr,1.2493751049041748,NA
294,84h#2zk,False,279,2,equal,ST1_high_6_a1,P = T2?,Same,1,1,high,132,1.03,96,1.16,132,0.8,No,sure,cr,0.9058341979980469,NA
295,84h#2zk,False,280,2,equal,ST2_high_6_a1,P = T2?,Same,2,1,high,132,0.95,96,1.24,96,1.14,Yes,quiteSure,hit,1.2999522686004639,NA
296,84h#2zk,False,281,2,equal,ST1_low_1_a1,P = T2?,Same,1,1,low,82,1.44,132,0.79,82,1.46,No,sure,cr,0.9712800979614258,NA
297,84h#2zk,False,282,2,equal,ST1_low_3_a1,P = T1?,Same,1,1,low,70,1.52,112,0.95,70,1.79,Yes,sure,hit,0.865861177444458,NA
298,84h#2zk,False,283,2,equal,ST1_high_4_a1,P = T2?,Same,1,1,high,96,1.08,70,1.41,96,1.4,No,quiteSure,cr,2.149484872817993,NA
299,84h#2zk,False,284,2,equal,ST1_low_5_a2,P = T1?,Same,1,2,low,96,1.41,154,0.89,96,1.38,Yes,sure,hit,1.027418851852417,NA
300,84h#2zk,False,285,2,equal,ST2_low_4_a2,P = T1?,Same,2,2,low,112,1.14,70,1.38,70,1.67,No,sure,cr,0.9524059295654297,NA
301,84h#2zk,False,286,2,equal,ST1_low_3_a1,P = T1?,Same,1,1,low,70,1.77,112,0.97,70,1.45,Yes,sure,hit,0.9120931625366211,NA
302,84h#2zk,False,287,2,equal,ST1_high_1_a2,P = T1?,Same,1,2,high,82,1.29,112,0.92,82,1.52,Yes,sure,hit,0.8680098056793213,NA
303,84h#2zk,False,288,2,equal,ST1_high_5_a2,P = T1?,Same,1,2,high,96,1.12,132,0.84,96,1.36,Yes,sure,hit,0.7457668781280518,NA
304,84h#2zk,False,289,2,equal,ST2_high_6_a2,P = T2?,Same,2,2,high,132,1.02,96,1.35,96,1.11,Yes,sure,hit,1.176267147064209,NA
305,84h#2zk,False,290,2,equal,ST1_high_5_a1,P = T1?,Same,1,1,high,96,1.27,132,1.0,96,1.09,Yes,sure,hit,1.101999044418335,NA
306,84h#2zk,False,291,2,equal,ST1_high_3_a1,P = T1?,Same,1,1,high,70,1.71,96,1.25,70,1.49,Yes,sure,hit,1.641249179840088,NA
307,84h#2zk,False,292,2,equal,ST1_low_1_a1,P = T1?,Same,1,1,low,82,1.23,132,1.0,82,1.39,Yes,sure,hit,0.9326310157775879,NA
308,84h#2zk,False,293,2,equal,ST2_low_4_a1,P = T1?,Same,2,1,low,112,1.0,70,1.57,70,1.8,No,sure,cr,1.1347720623016357,NA
309,84h#2zk,False,294,2,equal,STb_4_a1,P = T2?,Same,0,1,None,96,1.15,96,1.08,96,1.17,Yes,sure,hit,1.2903189659118652,NA
310,84h#2zk,False,295,2,equal,ST1_low_3_a2,P = T1?,Same,1,2,low,70,1.69,112,1.09,70,1.68,Yes,sure,hit,0.8727760314941406,NA
311,84h#2zk,False,296,2,equal,ST2_low_4_a1,P = T1?,Same,2,1,low,112,1.03,70,1.67,70,1.66,No,sure,cr,0.9983727931976318,NA
312,84h#2zk,False,297,2,equal,ST1_low_5_a1,P = T1?,Same,1,1,low,96,1.39,154,0.87,96,1.26,Yes,sure,hit,0.8868989944458008,NA
313,84h#2zk,False,298,2,equal,ST1_high_4_a1,P = T2?,Same,1,1,high,96,1.17,70,1.75,96,1.09,No,sure,cr,1.0820281505584717,NA
314,84h#2zk,False,299,2,equal,DT1_high_6_a2,P = T2?,Different,1,2,high,132,0.83,96,1.42,154,0.83,No,sure,cr,0.907336950302124,NA
315,84h#2zk,False,300,2,equal,ST2_low_1_a1,P = T2?,Same,2,1,low,82,1.32,132,0.94,132,0.99,Yes,sure,hit,1.1108407974243164,NA
316,84h#2zk,False,301,2,equal,ST2_high_5_a2,P = T2?,Same,2,2,high,96,1.27,132,0.96,132,1.05,Yes,sure,hit,1.0266201496124268,NA
317,84h#2zk,False,302,2,equal,ST1_high_3_a2,P = T1?,Same,1,2,high,70,1.45,96,1.15,70,1.7,Yes,sure,hit,1.1134190559387207,NA
318,84h#2zk,False,303,2,equal,ST2_low_6_a1,P = T2?,Same,2,1,low,154,0.89,96,0.98,96,1.49,No,unsure,miss,2.5192768573760986,NA
319,84h#2zk,False,304,2,equal,ST1_high_6_a1,P = T2?,Same,1,1,high,132,0.93,96,1.4,132,0.92,No,sure,cr,1.087372064590454,NA
320,84h#2zk,False,305,2,equal,ST2_low_3_a2,P = T2?,Same,2,2,low,70,1.8,112,0.94,112,1.14,Yes,sure,hit,1.031040906906128,NA
321,84h#2zk,False,306,2,equal,ST2_low_2_a2,P = T2?,Same,2,2,low,132,1.01,82,1.45,82,1.59,Yes,sure,hit,0.7499141693115234,NA
322,84h#2zk,False,307,2,equal,ST2_high_6_a2,P = T2?,Same,2,2,high,132,1.02,96,1.36,96,1.37,Yes,sure,hit,0.9539179801940918,NA
323,84h#2zk,False,308,2,equal,ST1_low_5_a2,P = T2?,Same,1,2,low,96,1.27,154,0.75,96,1.2,No,sure,cr,0.9436910152435303,NA
324,84h#2zk,False,309,2,equal,ST1_high_3_a2,P = T1?,Same,1,2,high,70,1.52,96,1.37,70,1.73,No,quiteSure,miss,4.143068790435791,NA
325,84h#2zk,False,310,2,equal,ST1_high_3_a1,P = T2?,Same,1,1,high,70,1.55,96,1.19,70,1.76,No,sure,cr,0.9568920135498047,NA
326,84h#2zk,False,311,2,equal,ST2_low_1_a2,P = T1?,Same,2,2,low,82,1.42,132,1.03,132,1.05,No,sure,cr,0.9771409034729004,NA
327,84h#2zk,False,312,2,equal,ST1_low_1_a2,P = T2?,Same,1,2,low,82,1.55,132,0.94,82,1.5,No,sure,cr,0.8775267601013184,NA
328,84h#2zk,False,313,2,equal,ST2_low_5_a2,P = T1?,Same,2,2,low,96,1.24,154,0.79,154,0.82,No,sure,cr,1.0244150161743164,NA
329,84h#2zk,False,314,2,equal,ST1_high_1_a1,P = T1?,Same,1,1,high,82,1.3,112,1.04,82,1.47,No,quiteSure,miss,1.1432371139526367,NA
330,84h#2zk,False,315,2,equal,ST2_low_2_a1,P = T2?,Same,2,1,low,132,0.89,82,1.4,82,1.62,Yes,sure,hit,1.1536588668823242,NA
331,84h#2zk,False,316,2,equal,ST1_low_3_a1,P = T2?,Same,1,1,low,70,1.59,112,1.11,70,1.67,No,sure,cr,0.9084241390228271,NA
332,84h#2zk,False,317,2,equal,ST1_low_6_a2,P = T2?,Same,1,2,low,154,0.95,96,1.26,154,0.79,No,sure,cr,1.7537682056427002,NA
333,84h#2zk,False,318,2,equal,ST2_high_1_a2,P = T2?,Same,2,2,high,82,1.5,112,1.14,112,1.22,Yes,sure,hit,0.9653191566467285,NA
334,84h#2zk,False,319,2,equal,DT2_high_5_a1,P = T1?,Different,2,1,high,96,1.25,132,0.83,154,0.94,No,unsure,cr,2.475302219390869,NA
335,84h#2zk,False,320,2,equal,ST2_low_2_a2,P = T2?,Same,2,2,low,132,0.82,82,1.34,82,1.32,Yes,sure,hit,1.0330190658569336,0.75
