,pcode,practice,trial,block,questionType,condition,question,PTS,TargetPosition,AccessoryPosition,TNS,T1_hz,T1_amp,T2_hz,T2_amp,P_hz,P_amp,response_dicho,response_rating,response_sdt,rt,P_correct
0,84h#2zk,True,1,1,unequal,STb_2_a1,P != T2?,Same,0,1,None,70,1.42,70,1.65,70,1.68,No,sure,cr,2.1689059734344482,NA
1,84h#2zk,True,2,1,unequal,DT2_high_3_a1,P != T2?,Different,2,1,high,70,1.78,96,1.32,112,1.1,No,sure,cr,3.8075878620147705,NA
2,84h#2zk,True,3,1,unequal,ST1_low_6_a2,P != T2?,Same,1,2,low,154,1.02,96,1.27,154,0.94,Yes,sure,hit,1.48042893409729,NA
3,84h#2zk,True,4,1,unequal,ST1_low_1_a1,P != T1?,Same,1,1,low,82,1.57,132,0.69,82,1.7,No,sure,cr,2.0228021144866943,NA
4,84h#2zk,True,5,1,unequal,ST2_high_2_a2,P != T2?,Same,2,2,high,112,0.99,82,1.69,82,1.36,No,sure,cr,2.6028988361358643,NA
5,84h#2zk,True,6,1,unequal,STb_8_a2,P != T1?,Same,0,2,None,180,1.05,180,0.82,180,0.72,No,sure,cr,1.3700218200683594,NA
6,84h#2zk,True,7,1,unequal,ST1_low_2_a2,P != T2?,Same,1,2,low,132,0.84,82,1.7,132,0.83,Yes,sure,hit,3.10420298576355,NA
7,84h#2zk,True,8,1,unequal,ST1_high_5_a2,P != T1?,Same,1,2,high,96,1.37,132,1.12,96,1.26,No,sure,cr,2.255869150161743,NA
8,84h#2zk,True,9,1,unequal,STb_2_a2,P != T1?,Same,0,2,None,70,1.82,70,1.57,70,1.83,No,sure,cr,1.2581679821014404,NA
9,84h#2zk,True,10,1,unequal,ST2_high_6_a2,P != T1?,Same,2,2,high,132,1.0,96,1.42,96,1.49,Yes,sure,hit,1.3770098686218262,NA
10,84h#2zk,True,11,1,unequal,DT1_high_6_a2,P != T1?,Different,1,2,high,132,0.87,96,1.29,154,0.83,No,sure,cr,2.4558799266815186,NA
11,84h#2zk,True,12,1,unequal,STb_8_a2,P != T2?,Same,0,2,None,180,0.72,180,0.87,180,0.93,No,sure,cr,1.529684066772461,NA
12,84h#2zk,True,13,1,unequal,DT2_low_6_a2,P != T1?,Different,2,2,low,154,0.75,96,1.21,82,1.6,Yes,sure,hit,2.333178997039795,NA
13,84h#2zk,True,14,1,unequal,ST2_high_2_a1,P != T2?,Same,2,1,high,112,0.98,82,1.85,82,1.24,No,sure,cr,1.7458181381225586,NA
14,84h#2zk,True,15,1,unequal,ST2_high_2_a2,P != T1?,Same,2,2,high,112,0.95,82,1.22,82,1.39,Yes,sure,hit,1.3606491088867188,NA
15,84h#2zk,True,16,1,unequal,DT1_low_1_a2,P != T2?,Different,1,2,low,82,1.34,132,0.99,70,1.43,Yes,sure,hit,1.6061010360717773,1.0
16,84h#2zk,False,1,1,unequal,ST2_low_3_a2,P != T2?,Same,2,2,low,70,1.83,112,0.96,112,1.01,No,sure,cr,3.691110134124756,NA
17,84h#2zk,False,2,1,unequal,ST2_high_1_a1,P != T1?,Same,2,1,high,82,1.52,112,1.08,112,0.92,Yes,sure,hit,1.7733159065246582,NA
18,84h#2zk,False,3,1,unequal,ST2_low_5_a1,P != T2?,Same,2,1,low,96,1.08,154,0.79,154,0.71,No,sure,cr,1.636061191558838,NA
19,84h#2zk,False,4,1,unequal,ST1_high_2_a1,P != T2?,Same,1,1,high,112,1.0,82,1.47,112,1.05,Yes,sure,hit,1.3323261737823486,NA
20,84h#2zk,False,5,1,unequal,ST1_high_1_a2,P != T1?,Same,1,2,high,82,1.22,112,1.07,82,1.34,No,sure,cr,4.7990288734436035,NA
21,84h#2zk,False,6,1,unequal,ST1_low_2_a1,P != T1?,Same,1,1,low,132,0.79,82,1.41,132,1.02,No,quiteSure,cr,1.4154348373413086,NA
22,84h#2zk,False,7,1,unequal,ST1_high_2_a2,P != T2?,Same,1,2,high,112,1.01,82,1.63,112,1.06,Yes,sure,hit,2.833214044570923,NA
23,84h#2zk,False,8,1,unequal,ST2_low_2_a2,P != T1?,Same,2,2,low,132,1.02,82,1.57,82,1.3,Yes,sure,hit,2.23020076751709,NA
24,84h#2zk,False,9,1,unequal,ST1_low_6_a1,P != T1?,Same,1,1,low,154,0.86,96,1.11,154,0.91,No,sure,cr,1.327388048171997,NA
25,84h#2zk,False,10,1,unequal,ST2_low_2_a2,P != T1?,Same,2,2,low,132,1.06,82,1.4,82,1.54,Yes,sure,hit,1.7822520732879639,NA
26,84h#2zk,False,11,1,unequal,ST2_high_6_a2,P != T2?,Same,2,2,high,132,0.8,96,1.19,96,1.31,No,sure,cr,1.3735599517822266,NA
27,84h#2zk,False,12,1,unequal,ST2_high_2_a1,P != T2?,Same,2,1,high,112,1.15,82,1.37,82,1.36,No,sure,cr,2.5752251148223877,NA
28,84h#2zk,False,13,1,unequal,ST2_high_2_a2,P != T1?,Same,2,2,high,112,1.13,82,1.52,82,1.5,Yes,sure,hit,1.4100220203399658,NA
29,84h#2zk,False,14,1,unequal,ST1_low_1_a2,P != T1?,Same,1,2,low,82,1.42,132,0.86,82,1.44,No,sure,cr,1.7179908752441406,NA
30,84h#2zk,False,15,1,unequal,STb_4_a1,P != T2?,Same,0,1,None,96,1.11,96,1.16,96,1.35,No,sure,cr,2.598576784133911,NA
31,84h#2zk,False,16,1,unequal,ST2_high_1_a2,P != T1?,Same,2,2,high,82,1.48,112,1.19,112,0.97,Yes,sure,hit,1.7055718898773193,NA
32,84h#2zk,False,17,1,unequal,ST2_high_3_a1,P != T1?,Same,2,1,high,70,1.65,96,1.31,96,1.07,Yes,quiteSure,hit,3.3245749473571777,NA
33,84h#2zk,False,18,1,unequal,ST1_low_5_a1,P != T2?,Same,1,1,low,96,1.33,154,0.82,96,1.33,Yes,sure,hit,1.7728509902954102,NA
34,84h#2zk,False,19,1,unequal,DT1_high_5_a1,P != T1?,Different,1,1,high,96,1.31,132,1.04,82,1.56,No,sure,cr,2.462862014770508,NA
35,84h#2zk,False,20,1,unequal,ST2_high_1_a2,P != T2?,Same,2,2,high,82,1.49,112,1.21,112,0.94,No,sure,cr,1.6428489685058594,NA
36,84h#2zk,False,21,1,unequal,ST2_high_3_a1,P != T2?,Same,2,1,high,70,1.62,96,1.37,96,1.1,No,sure,cr,1.5548341274261475,NA
37,84h#2zk,False,22,1,unequal,ST1_low_4_a2,P != T1?,Same,1,2,low,112,1.08,70,1.44,112,1.08,No,sure,cr,1.3626618385314941,NA
38,84h#2zk,False,23,1,unequal,ST1_low_6_a2,P != T1?,Same,1,2,low,154,0.78,96,1.35,154,0.8,No,sure,cr,1.2382709980010986,NA
39,84h#2zk,False,24,1,unequal,ST2_low_6_a2,P != T2?,Same,2,2,low,154,0.76,96,1.43,96,1.22,No,sure,cr,1.58705472946167,NA
40,84h#2zk,False,25,1,unequal,ST1_high_6_a2,P != T1?,Same,1,2,high,132,1.06,96,1.09,132,0.88,No,sure,cr,1.5695481300354004,NA
41,84h#2zk,False,26,1,unequal,ST1_low_4_a2,P != T1?,Same,1,2,low,112,0.99,70,1.84,112,1.02,No,sure,cr,1.073038101196289,NA
42,84h#2zk,False,27,1,unequal,ST1_high_5_a1,P != T1?,Same,1,1,high,96,1.15,132,0.87,96,1.16,No,sure,cr,1.0563688278198242,NA
43,84h#2zk,False,28,1,unequal,ST2_low_5_a1,P != T1?,Same,2,1,low,96,1.28,154,0.95,154,0.77,Yes,sure,hit,1.8134098052978516,NA
44,84h#2zk,False,29,1,unequal,ST1_high_3_a1,P != T1?,Same,1,1,high,70,1.52,96,1.31,70,1.75,No,sure,cr,1.249006986618042,NA
45,84h#2zk,False,30,1,unequal,ST2_low_2_a1,P != T2?,Same,2,1,low,132,0.98,82,1.55,82,1.24,No,sure,cr,2.1122028827667236,NA
46,84h#2zk,False,31,1,unequal,ST1_high_1_a2,P != T1?,Same,1,2,high,82,1.31,112,1.22,82,1.44,No,sure,cr,1.1559932231903076,NA
47,84h#2zk,False,32,1,unequal,ST2_low_1_a2,P != T1?,Same,2,2,low,82,1.39,132,0.95,132,1.05,Yes,sure,hit,1.5672907829284668,NA
48,84h#2zk,False,33,1,unequal,ST1_low_5_a1,P != T2?,Same,1,1,low,96,1.26,154,0.86,96,1.16,Yes,quiteSure,hit,1.4381277561187744,NA
49,84h#2zk,False,34,1,unequal,DT2_low_3_a1,P != T1?,Different,2,1,low,70,1.8,112,0.95,132,0.79,Yes,sure,hit,1.3526079654693604,NA
50,84h#2zk,False,35,1,unequal,ST2_low_4_a2,P != T2?,Same,2,2,low,112,1.0,70,1.72,70,1.44,No,sure,cr,1.2032809257507324,NA
51,84h#2zk,False,36,1,unequal,ST2_low_2_a2,P != T1?,Same,2,2,low,132,1.02,82,1.42,82,1.64,Yes,sure,hit,1.115173101425171,NA
52,84h#2zk,False,37,1,unequal,ST2_high_5_a1,P != T2?,Same,2,1,high,96,1.41,132,0.83,132,0.85,No,sure,cr,2.40175199508667,NA
53,84h#2zk,False,38,1,unequal,ST1_low_2_a1,P != T2?,Same,1,1,low,132,0.9,82,1.21,132,1.04,Yes,quiteSure,hit,2.588947296142578,NA
54,84h#2zk,False,39,1,unequal,ST1_low_5_a2,P != T1?,Same,1,2,low,96,1.1,154,0.87,96,1.4,No,sure,cr,1.3594210147857666,NA
55,84h#2zk,False,40,1,unequal,ST2_high_3_a2,P != T2?,Same,2,2,high,70,1.63,96,1.42,96,1.21,No,unsure,cr,3.463117837905884,NA
56,84h#2zk,False,41,1,unequal,ST2_high_1_a1,P != T2?,Same,2,1,high,82,1.61,112,1.09,112,0.94,No,sure,cr,1.4580957889556885,NA
57,84h#2zk,False,42,1,unequal,ST2_high_2_a1,P != T1?,Same,2,1,high,112,1.13,82,1.31,82,1.56,Yes,sure,hit,1.3974509239196777,NA
58,84h#2zk,False,43,1,unequal,ST1_high_4_a2,P != T2?,Same,1,2,high,96,1.2,70,1.57,96,1.32,Yes,quiteSure,hit,1.8594810962677002,NA
59,84h#2zk,False,44,1,unequal,ST1_high_6_a1,P != T1?,Same,1,1,high,132,0.85,96,1.24,132,0.92,Yes,sure,fa,2.121479034423828,NA
60,84h#2zk,False,45,1,unequal,ST2_high_5_a2,P != T1?,Same,2,2,high,96,1.23,132,0.8,132,1.05,Yes,sure,hit,1.3419630527496338,NA
61,84h#2zk,False,46,1,unequal,ST1_low_2_a2,P != T1?,Same,1,2,low,132,0.91,82,1.39,132,0.97,No,sure,cr,1.0429198741912842,NA
62,84h#2zk,False,47,1,unequal,STb_7_a2,P != T2?,Same,0,2,None,154,0.75,154,0.81,154,0.83,No,sure,cr,2.2316839694976807,NA
63,84h#2zk,False,48,1,unequal,ST2_high_4_a2,P != T1?,Same,2,2,high,96,1.31,70,1.77,70,1.8,Yes,unsure,hit,2.1801979541778564,NA
64,84h#2zk,False,49,1,unequal,ST2_low_4_a2,P != T2?,Same,2,2,low,112,1.19,70,1.37,70,1.48,No,sure,cr,1.3719072341918945,NA
65,84h#2zk,False,50,1,unequal,ST2_high_3_a2,P != T1?,Same,2,2,high,70,1.37,96,1.28,96,1.38,Yes,quiteSure,hit,1.4015638828277588,NA
66,84h#2zk,False,51,1,unequal,ST1_low_2_a2,P != T2?,Same,1,2,low,132,1.06,82,1.56,132,0.8,Yes,sure,hit,2.2603180408477783,NA
67,84h#2zk,False,52,1,unequal,ST2_low_3_a1,P != T1?,Same,2,1,low,70,1.64,112,0.92,112,0.95,Yes,sure,hit,1.2549631595611572,NA
68,84h#2zk,False,53,1,unequal,ST2_high_5_a2,P != T1?,Same,2,2,high,96,1.19,132,1.01,132,1.05,Yes,quiteSure,hit,1.4945101737976074,NA
69,84h#2zk,False,54,1,unequal,ST1_high_1_a2,P != T2?,Same,1,2,high,82,1.4,112,1.09,82,1.52,Yes,sure,hit,1.5875880718231201,NA
70,84h#2zk,False,55,1,unequal,STb_7_a2,P != T1?,Same,0,2,None,154,0.88,154,0.86,154,0.81,No,sure,cr,1.2934460639953613,NA
71,84h#2zk,False,56,1,unequal,ST1_low_6_a1,P != T1?,Same,1,1,low,154,0.75,96,1.11,154,0.84,No,sure,cr,1.001986026763916,NA
72,84h#2zk,False,57,1,unequal,ST1_low_6_a1,P != T2?,Same,1,1,low,154,0.87,96,1.26,154,0.9,Yes,sure,hit,1.3950939178466797,NA
73,84h#2zk,False,58,1,unequal,STb_1_a2,P != T1?,Same,0,2,None,60,1.82,60,1.68,60,1.99,No,sure,cr,1.4409496784210205,NA
74,84h#2zk,False,59,1,unequal,ST1_high_3_a2,P != T1?,Same,1,2,high,70,1.55,96,1.21,70,1.75,No,sure,cr,1.0201890468597412,NA
75,84h#2zk,False,60,1,unequal,ST2_high_6_a1,P != T1?,Same,2,1,high,132,0.84,96,1.26,96,1.25,Yes,quiteSure,hit,2.134766101837158,NA
76,84h#2zk,False,61,1,unequal,DT1_high_4_a2,P != T1?,Different,1,2,high,96,1.35,70,1.67,112,1.01,No,sure,cr,1.4801900386810303,NA
77,84h#2zk,False,62,1,unequal,ST2_low_4_a2,P != T1?,Same,2,2,low,112,1.22,70,1.39,70,1.64,Yes,sure,hit,1.3883068561553955,NA
78,84h#2zk,False,63,1,unequal,ST1_high_5_a2,P != T2?,Same,1,2,high,96,1.42,132,0.97,96,1.42,Yes,sure,hit,1.1221120357513428,NA
79,84h#2zk,False,64,1,unequal,ST1_high_4_a1,P != T1?,Same,1,1,high,96,1.34,70,1.51,96,1.3,No,sure,cr,1.1274299621582031,NA
80,84h#2zk,False,65,1,unequal,ST1_low_4_a1,P != T2?,Same,1,1,low,112,1.1,70,1.68,112,0.98,Yes,sure,hit,1.7796778678894043,NA
81,84h#2zk,False,66,1,unequal,ST1_low_1_a1,P != T2?,Same,1,1,low,82,1.25,132,0.99,82,1.58,Yes,sure,hit,0.9506571292877197,NA
82,84h#2zk,False,67,1,unequal,STb_5_a1,P != T1?,Same,0,1,None,112,1.09,112,1.01,112,0.91,No,sure,cr,1.0295360088348389,NA
83,84h#2zk,False,68,1,unequal,ST1_high_2_a2,P != T1?,Same,1,2,high,112,1.09,82,1.53,112,1.09,No,sure,cr,1.4028441905975342,NA
84,84h#2zk,False,69,1,unequal,ST2_low_5_a1,P != T2?,Same,2,1,low,96,1.11,154,0.91,154,0.91,No,sure,cr,1.8258647918701172,NA
85,84h#2zk,False,70,1,unequal,ST1_low_2_a2,P != T2?,Same,1,2,low,132,0.84,82,1.7,132,0.83,Yes,sure,hit,1.7280030250549316,NA
86,84h#2zk,False,71,1,unequal,ST1_low_4_a2,P != T1?,Same,1,2,low,112,1.04,70,1.52,112,1.13,No,sure,cr,1.3796510696411133,NA
87,84h#2zk,False,72,1,unequal,ST1_high_3_a1,P != T2?,Same,1,1,high,70,1.47,96,1.26,70,1.69,Yes,unsure,hit,4.752899169921875,NA
88,84h#2zk,False,73,1,unequal,ST2_low_1_a1,P != T2?,Same,2,1,low,82,1.23,132,0.95,132,0.95,No,sure,cr,1.1767230033874512,NA
89,84h#2zk,False,74,1,unequal,ST1_low_3_a2,P != T2?,Same,1,2,low,70,1.57,112,1.14,70,1.56,Yes,sure,hit,2.5189712047576904,NA
90,84h#2zk,False,75,1,unequal,ST2_high_5_a1,P != T1?,Same,2,1,high,96,1.11,132,0.91,132,0.95,Yes,sure,hit,1.4495201110839844,NA
91,84h#2zk,False,76,1,unequal,ST1_high_1_a1,P != T1?,Same,1,1,high,82,1.49,112,1.04,82,1.47,No,sure,cr,1.2082459926605225,NA
92,84h#2zk,False,77,1,unequal,ST2_high_5_a2,P != T2?,Same,2,2,high,96,1.16,132,0.87,132,0.94,No,sure,cr,3.065324068069458,NA
93,84h#2zk,False,78,1,unequal,ST1_low_1_a1,P != T2?,Same,1,1,low,82,1.44,132,0.9,82,1.57,Yes,sure,hit,2.8171677589416504,NA
94,84h#2zk,False,79,1,unequal,ST1_high_3_a2,P != T2?,Same,1,2,high,70,1.39,96,1.41,70,1.65,Yes,sure,hit,1.2043287754058838,NA
95,84h#2zk,False,80,1,unequal,ST1_high_5_a2,P != T2?,Same,1,2,high,96,1.3,132,0.85,96,1.22,Yes,sure,hit,1.1744482517242432,NA
96,84h#2zk,False,81,1,unequal,ST1_high_1_a1,P != T2?,Same,1,1,high,82,1.44,112,1.07,82,1.62,Yes,sure,hit,1.3386118412017822,NA
97,84h#2zk,False,82,1,unequal,ST1_low_2_a2,P != T1?,Same,1,2,low,132,0.85,82,1.24,132,0.91,No,sure,cr,1.111893892288208,NA
98,84h#2zk,False,83,1,unequal,ST2_low_3_a2,P != T1?,Same,2,2,low,70,1.59,112,1.13,112,0.93,Yes,sure,hit,1.2518229484558105,NA
99,84h#2zk,False,84,1,unequal,ST1_high_6_a2,P != T2?,Same,1,2,high,132,0.85,96,1.39,132,0.91,Yes,sure,hit,1.0863947868347168,NA
100,84h#2zk,False,85,1,unequal,ST1_low_1_a2,P != T1?,Same,1,2,low,82,1.54,132,0.97,82,1.41,No,sure,cr,1.3773548603057861,NA
101,84h#2zk,False,86,1,unequal,ST1_high_2_a1,P != T1?,Same,1,1,high,112,1.09,82,1.62,112,1.07,No,sure,cr,1.1121811866760254,NA
102,84h#2zk,False,87,1,unequal,ST1_high_4_a2,P != T1?,Same,1,2,high,96,1.28,70,1.65,96,1.36,No,sure,cr,1.2387750148773193,NA
103,84h#2zk,False,88,1,unequal,ST2_high_4_a1,P != T2?,Same,2,1,high,96,1.25,70,1.67,70,1.75,No,sure,cr,1.2527761459350586,NA
104,84h#2zk,False,89,1,unequal,ST2_low_6_a2,P != T2?,Same,2,2,low,154,0.87,96,1.11,96,1.11,No,sure,cr,1.127389907836914,NA
105,84h#2zk,False,90,1,unequal,ST1_high_5_a1,P != T2?,Same,1,1,high,96,1.07,132,0.92,96,1.4,Yes,sure,hit,1.706617832183838,NA
106,84h#2zk,False,91,1,unequal,ST1_high_4_a1,P != T1?,Same,1,1,high,96,1.23,70,1.61,96,1.33,No,sure,cr,1.1599581241607666,NA
107,84h#2zk,False,92,1,unequal,DT1_high_5_a2,P != T1?,Different,1,2,high,96,1.32,132,0.96,82,1.34,No,sure,cr,1.0071828365325928,NA
108,84h#2zk,False,93,1,unequal,ST1_high_4_a1,P != T2?,Same,1,1,high,96,1.29,70,1.63,96,1.33,Yes,sure,hit,1.2067348957061768,NA
109,84h#2zk,False,94,1,unequal,ST2_low_5_a2,P != T1?,Same,2,2,low,96,1.27,154,0.76,154,0.87,Yes,sure,hit,1.4382579326629639,NA
110,84h#2zk,False,95,1,unequal,ST1_high_6_a1,P != T1?,Same,1,1,high,132,0.93,96,1.17,132,1.01,No,sure,cr,2.8909459114074707,NA
111,84h#2zk,False,96,1,unequal,ST2_high_1_a2,P != T1?,Same,2,2,high,82,1.38,112,1.19,112,1.09,Yes,sure,hit,1.2777581214904785,NA
112,84h#2zk,False,97,1,unequal,ST2_high_6_a1,P != T2?,Same,2,1,high,132,0.86,96,1.11,96,1.12,No,sure,cr,1.1150929927825928,NA
113,84h#2zk,False,98,1,unequal,ST1_high_1_a2,P != T2?,Same,1,2,high,82,1.56,112,1.04,82,1.28,Yes,sure,hit,1.116821050643921,NA
114,84h#2zk,False,99,1,unequal,ST1_low_1_a1,P != T1?,Same,1,1,low,82,1.57,132,0.69,82,1.7,No,sure,cr,0.932070255279541,NA
115,84h#2zk,False,100,1,unequal,STb_6_a1,P != T2?,Same,0,1,None,132,1.02,132,0.82,132,0.95,No,sure,cr,1.4530792236328125,NA
116,84h#2zk,False,101,1,unequal,ST2_low_2_a1,P != T2?,Same,2,1,low,132,0.93,82,1.42,82,1.25,No,sure,cr,1.1989150047302246,NA
117,84h#2zk,False,102,1,unequal,ST2_low_5_a1,P != T1?,Same,2,1,low,96,1.28,154,0.91,154,0.88,Yes,sure,hit,1.396697998046875,NA
118,84h#2zk,False,103,1,unequal,ST2_low_4_a2,P != T2?,Same,2,2,low,112,1.12,70,1.42,70,1.81,No,sure,cr,1.0280241966247559,NA
119,84h#2zk,False,104,1,unequal,STb_3_a1,P != T1?,Same,0,1,None,82,1.28,82,1.43,82,1.56,No,sure,cr,1.920137882232666,NA
120,84h#2zk,False,105,1,unequal,ST2_low_3_a1,P != T2?,Same,2,1,low,70,1.77,112,1.06,112,1.0,No,sure,cr,1.1003749370574951,NA
121,84h#2zk,False,106,1,unequal,STb_3_a2,P != T1?,Same,0,2,None,82,1.3,82,1.46,82,1.47,No,sure,cr,1.8022801876068115,NA
122,84h#2zk,False,107,1,unequal,ST1_high_5_a2,P != T1?,Same,1,2,high,96,1.37,132,1.12,96,1.26,No,quiteSure,cr,2.52742600440979,NA
123,84h#2zk,False,108,1,unequal,ST2_high_3_a2,P != T2?,Same,2,2,high,70,1.52,96,1.23,96,1.13,No,sure,cr,1.4729681015014648,NA
124,84h#2zk,False,109,1,unequal,ST1_high_3_a1,P != T1?,Same,1,1,high,70,1.68,96,1.1,70,1.64,No,sure,cr,1.3484678268432617,NA
125,84h#2zk,False,110,1,unequal,STb_6_a2,P != T1?,Same,0,2,None,132,1.02,132,0.84,132,0.79,No,sure,cr,0.9921369552612305,NA
126,84h#2zk,False,111,1,unequal,ST2_low_3_a2,P != T2?,Same,2,2,low,70,1.83,112,1.08,112,1.11,No,sure,cr,1.1989481449127197,NA
127,84h#2zk,False,112,1,unequal,ST1_high_1_a2,P != T2?,Same,1,2,high,82,1.44,112,1.2,82,1.53,Yes,quiteSure,hit,1.857635736465454,NA
128,84h#2zk,False,113,1,unequal,ST1_high_3_a2,P != T1?,Same,1,2,high,70,1.84,96,1.19,70,1.72,No,sure,cr,1.2643358707427979,NA
129,84h#2zk,False,114,1,unequal,DT2_low_6_a1,P != T2?,Different,2,1,low,154,0.93,96,1.34,82,1.37,No,sure,cr,1.389206886291504,NA
130,84h#2zk,False,115,1,unequal,ST1_low_3_a2,P != T2?,Same,1,2,low,70,1.78,112,1.01,70,1.39,Yes,sure,hit,1.29768705368042,NA
131,84h#2zk,False,116,1,unequal,STb_5_a2,P != T2?,Same,0,2,None,112,1.14,112,1.08,112,0.92,No,quiteSure,cr,1.8044788837432861,NA
132,84h#2zk,False,117,1,unequal,ST1_high_4_a2,P != T2?,Same,1,2,high,96,1.21,70,1.81,96,1.35,Yes,sure,hit,1.3680431842803955,NA
133,84h#2zk,False,118,1,unequal,ST1_low_4_a1,P != T1?,Same,1,1,low,112,1.2,70,1.7,112,1.17,No,sure,cr,1.4658586978912354,NA
134,84h#2zk,False,119,1,unequal,ST1_high_2_a1,P != T1?,Same,1,1,high,112,1.2,82,1.62,112,1.04,No,sure,cr,2.3163299560546875,NA
135,84h#2zk,False,120,1,unequal,ST1_high_6_a2,P != T1?,Same,1,2,high,132,0.8,96,1.37,132,1.01,No,sure,cr,2.2527401447296143,NA
136,84h#2zk,False,121,1,unequal,ST1_low_5_a2,P != T1?,Same,1,2,low,96,1.26,154,0.86,96,1.16,No,sure,cr,1.4909281730651855,NA
137,84h#2zk,False,122,1,unequal,ST1_high_2_a2,P != T1?,Same,1,2,high,112,1.23,82,1.47,112,1.06,No,sure,cr,1.1615381240844727,NA
138,84h#2zk,False,123,1,unequal,STb_6_a2,P != T2?,Same,0,2,None,132,0.95,132,0.92,132,1.02,No,sure,cr,0.9300732612609863,NA
139,84h#2zk,False,124,1,unequal,ST2_high_2_a2,P != T2?,Same,2,2,high,112,1.15,82,1.54,82,1.23,No,sure,cr,3.322906970977783,NA
140,84h#2zk,False,125,1,unequal,ST1_high_2_a2,P != T2?,Same,1,2,high,112,0.99,82,1.49,112,1.23,Yes,sure,hit,1.4085822105407715,NA
141,84h#2zk,False,126,1,unequal,ST2_high_2_a1,P != T1?,Same,2,1,high,112,1.17,82,1.5,82,1.45,Yes,quiteSure,hit,1.2246198654174805,NA
142,84h#2zk,False,127,1,unequal,ST1_high_6_a1,P != T2?,Same,1,1,high,132,0.98,96,1.36,132,0.96,Yes,sure,hit,1.9900171756744385,NA
143,84h#2zk,False,128,1,unequal,ST1_high_6_a2,P != T2?,Same,1,2,high,132,0.86,96,1.18,132,1.03,Yes,sure,hit,1.3789219856262207,NA
144,84h#2zk,False,129,1,unequal,ST2_high_2_a2,P != T1?,Same,2,2,high,112,0.95,82,1.22,82,1.39,Yes,sure,hit,1.981938123703003,NA
145,84h#2zk,False,130,1,unequal,ST2_high_1_a1,P != T1?,Same,2,1,high,82,1.53,112,1.08,112,1.1,Yes,sure,hit,1.1560711860656738,NA
146,84h#2zk,False,131,1,unequal,DT2_low_4_a2,P != T2?,Different,2,2,low,112,1.21,70,1.79,60,1.79,No,sure,cr,1.4624841213226318,NA
147,84h#2zk,False,132,1,unequal,ST2_high_1_a1,P != T1?,Same,2,1,high,82,1.27,112,1.12,112,1.21,Yes,sure,hit,1.143596887588501,NA
148,84h#2zk,False,133,1,unequal,ST2_low_2_a1,P != T1?,Same,2,1,low,132,0.84,82,1.41,82,1.63,Yes,sure,hit,1.2086520195007324,NA
149,84h#2zk,False,134,1,unequal,DT1_high_4_a1,P != T1?,Different,1,1,high,96,1.42,70,1.56,112,1.07,No,sure,cr,1.1087589263916016,NA
150,84h#2zk,False,135,1,unequal,ST2_high_5_a1,P != T1?,Same,2,1,high,96,1.13,132,0.92,132,0.96,No,sure,miss,0.9421138763427734,NA
151,84h#2zk,False,136,1,unequal,ST2_high_4_a1,P != T1?,Same,2,1,high,96,1.38,70,1.58,70,1.69,Yes,sure,hit,1.1419281959533691,NA
152,84h#2zk,False,137,1,unequal,ST2_low_3_a2,P != T1?,Same,2,2,low,70,1.51,112,1.14,112,1.04,Yes,sure,hit,1.152919054031372,NA
153,84h#2zk,False,138,1,unequal,ST2_low_2_a2,P != T2?,Same,2,2,low,132,1.04,82,1.29,82,1.43,No,sure,cr,1.0251951217651367,NA
154,84h#2zk,False,139,1,unequal,ST2_high_4_a1,P != T1?,Same,2,1,high,96,1.26,70,1.44,70,1.5,Yes,quiteSure,hit,1.2023448944091797,NA
155,84h#2zk,False,140,1,unequal,ST2_high_6_a2,P != T1?,Same,2,2,high,132,0.93,96,1.27,96,1.29,Yes,quiteSure,hit,1.9312798976898193,NA
156,84h#2zk,False,141,1,unequal,ST2_low_4_a2,P != T1?,Same,2,2,low,112,1.02,70,1.79,70,1.78,Yes,sure,hit,1.1448819637298584,NA
157,84h#2zk,False,142,1,unequal,ST2_high_2_a2,P != T1?,Same,2,2,high,112,1.17,82,1.59,82,1.23,Yes,sure,hit,1.2586250305175781,NA
158,84h#2zk,False,143,1,unequal,ST2_low_1_a1,P != T1?,Same,2,1,low,82,1.55,132,0.94,132,0.93,Yes,sure,hit,1.181067943572998,NA
159,84h#2zk,False,144,1,unequal,ST1_low_2_a2,P != T2?,Same,1,2,low,132,1.01,82,1.44,132,0.82,Yes,sure,hit,1.6580030918121338,NA
160,84h#2zk,False,145,1,unequal,ST1_high_5_a1,P != T1?,Same,1,1,high,96,1.39,132,1.06,96,1.37,No,sure,cr,1.5683948993682861,NA
161,84h#2zk,False,146,1,unequal,ST1_high_3_a2,P != T1?,Same,1,2,high,70,1.51,96,1.2,70,1.6,No,sure,cr,1.030107021331787,NA
162,84h#2zk,False,147,1,unequal,ST1_low_5_a2,P != T2?,Same,1,2,low,96,1.27,154,0.95,96,1.37,Yes,unsure,hit,2.7367539405822754,NA
163,84h#2zk,False,148,1,unequal,ST1_high_5_a1,P != T2?,Same,1,1,high,96,1.09,132,0.87,96,1.19,Yes,quiteSure,hit,2.0347740650177,NA
164,84h#2zk,False,149,1,unequal,ST2_low_2_a2,P != T2?,Same,2,2,low,132,0.98,82,1.41,82,1.55,No,sure,cr,1.2388651371002197,NA
165,84h#2zk,False,150,1,unequal,ST1_low_5_a2,P != T2?,Same,1,2,low,96,1.19,154,0.73,96,1.1,Yes,quiteSure,hit,1.6591429710388184,NA
166,84h#2zk,False,151,1,unequal,ST2_low_5_a2,P != T2?,Same,2,2,low,96,1.12,154,0.77,154,0.91,No,sure,cr,1.6605658531188965,NA
167,84h#2zk,False,152,1,unequal,ST1_high_2_a2,P != T2?,Same,1,2,high,112,1.1,82,1.33,112,1.03,Yes,sure,hit,1.8545169830322266,NA
168,84h#2zk,False,153,1,unequal,ST1_low_5_a1,P != T2?,Same,1,1,low,96,1.1,154,0.86,96,1.42,Yes,sure,hit,1.0669450759887695,NA
169,84h#2zk,False,154,1,unequal,ST1_low_1_a1,P != T1?,Same,1,1,low,82,1.37,132,0.89,82,1.47,No,sure,cr,1.1659049987792969,NA
170,84h#2zk,False,155,1,unequal,ST2_high_6_a1,P != T1?,Same,2,1,high,132,0.89,96,1.42,96,1.42,Yes,sure,hit,1.1922130584716797,NA
171,84h#2zk,False,156,1,unequal,ST1_low_2_a2,P != T1?,Same,1,2,low,132,0.79,82,1.56,132,0.92,No,sure,cr,0.842116117477417,NA
172,84h#2zk,False,157,1,unequal,ST1_low_3_a2,P != T1?,Same,1,2,low,70,1.72,112,1.2,70,1.41,No,sure,cr,0.8725872039794922,NA
173,84h#2zk,False,158,1,unequal,ST2_high_3_a2,P != T1?,Same,2,2,high,70,1.75,96,1.07,96,1.08,Yes,sure,hit,2.296657085418701,NA
174,84h#2zk,False,159,1,unequal,STb_5_a1,P != T2?,Same,0,1,None,112,0.98,112,1.01,112,1.08,No,sure,cr,1.536074161529541,NA
175,84h#2zk,False,160,1,unequal,ST2_low_3_a1,P != T1?,Same,2,1,low,70,1.75,112,1.03,112,1.07,Yes,sure,hit,1.1819608211517334,NA
176,84h#2zk,False,161,1,unequal,ST1_low_2_a1,P != T2?,Same,1,1,low,132,1.04,82,1.26,132,0.79,Yes,sure,hit,1.1000280380249023,NA
177,84h#2zk,False,162,1,unequal,ST2_high_3_a1,P != T2?,Same,2,1,high,70,1.4,96,1.28,96,1.07,No,sure,cr,1.5549399852752686,NA
178,84h#2zk,False,163,1,unequal,ST1_high_4_a2,P != T2?,Same,1,2,high,96,1.33,70,1.39,96,1.23,Yes,quiteSure,hit,2.6290030479431152,NA
179,84h#2zk,False,164,1,unequal,ST1_high_2_a1,P != T2?,Same,1,1,high,112,1.11,82,1.53,112,1.2,Yes,sure,hit,2.137845754623413,NA
180,84h#2zk,False,165,1,unequal,ST1_low_3_a1,P != T1?,Same,1,1,low,70,1.65,112,0.97,70,1.47,No,sure,cr,0.9794168472290039,NA
181,84h#2zk,False,166,1,unequal,ST1_low_6_a1,P != T2?,Same,1,1,low,154,0.9,96,1.41,154,0.89,Yes,sure,hit,1.5948801040649414,NA
182,84h#2zk,False,167,1,unequal,ST2_low_5_a2,P != T1?,Same,2,2,low,96,1.26,154,0.8,154,0.77,Yes,sure,hit,1.206895112991333,NA
183,84h#2zk,False,168,1,unequal,ST2_low_1_a2,P != T2?,Same,2,2,low,82,1.61,132,0.79,132,0.79,No,sure,cr,1.4585940837860107,NA
184,84h#2zk,False,169,1,unequal,DT1_low_6_a2,P != T2?,Different,1,2,low,154,0.77,96,1.27,180,0.85,Yes,sure,hit,1.1919522285461426,NA
185,84h#2zk,False,170,1,unequal,ST2_low_1_a1,P != T1?,Same,2,1,low,82,1.39,132,0.99,132,0.98,No,sure,miss,3.513814926147461,NA
186,84h#2zk,False,171,1,unequal,ST2_high_2_a2,P != T2?,Same,2,2,high,112,0.99,82,1.69,82,1.36,No,sure,cr,1.5930752754211426,NA
187,84h#2zk,False,172,1,unequal,ST1_low_2_a1,P != T1?,Same,1,1,low,132,0.85,82,1.27,132,0.8,No,sure,cr,1.122663974761963,NA
188,84h#2zk,False,173,1,unequal,ST1_high_6_a2,P != T2?,Same,1,2,high,132,1.02,96,1.36,132,1.05,Yes,sure,hit,1.8201978206634521,NA
189,84h#2zk,False,174,1,unequal,ST2_high_5_a2,P != T2?,Same,2,2,high,96,1.21,132,1.01,132,0.83,No,sure,cr,1.5396850109100342,NA
190,84h#2zk,False,175,1,unequal,ST2_low_6_a1,P != T2?,Same,2,1,low,154,0.74,96,1.36,96,1.39,No,sure,cr,1.1580443382263184,NA
191,84h#2zk,False,176,1,unequal,ST1_high_3_a1,P != T2?,Same,1,1,high,70,1.55,96,1.21,70,1.43,Yes,sure,hit,2.908621072769165,NA
192,84h#2zk,False,177,1,unequal,ST2_high_4_a1,P != T1?,Same,2,1,high,96,1.33,70,1.5,70,1.73,Yes,sure,hit,1.0351910591125488,NA
193,84h#2zk,False,178,1,unequal,ST2_low_2_a1,P != T2?,Same,2,1,low,132,0.93,82,1.38,82,1.38,No,sure,cr,1.498284101486206,NA
194,84h#2zk,False,179,1,unequal,ST2_low_1_a2,P != T1?,Same,2,2,low,82,1.47,132,0.89,132,0.95,Yes,sure,hit,1.9590559005737305,NA
195,84h#2zk,False,180,1,unequal,ST2_low_5_a2,P != T1?,Same,2,2,low,96,1.27,154,0.87,154,0.71,Yes,quiteSure,hit,1.1206550598144531,NA
196,84h#2zk,False,181,1,unequal,ST2_high_2_a1,P != T1?,Same,2,1,high,112,1.13,82,1.49,82,1.55,Yes,quiteSure,hit,2.5138492584228516,NA
197,84h#2zk,False,182,1,unequal,ST2_low_3_a1,P != T1?,Same,2,1,low,70,1.42,112,1.16,112,0.93,Yes,sure,hit,1.1821529865264893,NA
198,84h#2zk,False,183,1,unequal,ST2_low_4_a1,P != T1?,Same,2,1,low,112,1.07,70,1.68,70,1.74,Yes,sure,hit,0.8738057613372803,NA
199,84h#2zk,False,184,1,unequal,ST2_high_4_a2,P != T2?,Same,2,2,high,96,1.25,70,1.81,70,1.57,No,sure,cr,4.65599799156189,NA
200,84h#2zk,False,185,1,unequal,ST1_high_5_a2,P != T2?,Same,1,2,high,96,1.12,132,1.05,96,1.18,Yes,sure,hit,1.2514896392822266,NA
201,84h#2zk,False,186,1,unequal,STb_7_a1,P != T1?,Same,0,1,None,154,0.95,154,0.72,154,0.71,No,sure,cr,1.3977198600769043,NA
202,84h#2zk,False,187,1,unequal,ST2_low_6_a2,P != T1?,Same,2,2,low,154,0.96,96,1.41,96,1.36,Yes,sure,hit,1.0408940315246582,NA
203,84h#2zk,False,188,1,unequal,ST2_high_6_a2,P != T2?,Same,2,2,high,132,0.87,96,1.18,96,1.15,No,sure,cr,1.1424899101257324,NA
204,84h#2zk,False,189,1,unequal,ST2_high_4_a2,P != T2?,Same,2,2,high,96,1.28,70,1.37,70,1.7,No,sure,cr,1.5095858573913574,NA
205,84h#2zk,False,190,1,unequal,ST1_low_3_a1,P != T2?,Same,1,1,low,70,1.7,112,1.0,70,1.53,Yes,sure,hit,1.668844223022461,NA
206,84h#2zk,False,191,1,unequal,ST2_high_6_a1,P != T1?,Same,2,1,high,132,0.97,96,1.18,96,1.32,Yes,quiteSure,hit,0.9822711944580078,NA
207,84h#2zk,False,192,1,unequal,ST2_low_2_a1,P != T1?,Same,2,1,low,132,0.8,82,1.29,82,1.35,Yes,sure,hit,0.9388611316680908,NA
208,84h#2zk,False,193,1,unequal,ST2_high_4_a2,P != T2?,Same,2,2,high,96,1.28,70,1.78,70,1.57,No,sure,cr,1.0943822860717773,NA
209,84h#2zk,False,194,1,unequal,ST1_low_6_a1,P != T1?,Same,1,1,low,154,0.82,96,1.39,154,0.74,No,sure,cr,2.2719650268554688,NA
210,84h#2zk,False,195,1,unequal,ST1_high_2_a1,P != T2?,Same,1,1,high,112,1.22,82,1.28,112,1.03,Yes,sure,hit,1.1131229400634766,NA
211,84h#2zk,False,196,1,unequal,ST1_low_5_a2,P != T2?,Same,1,2,low,96,1.07,154,0.88,96,1.27,Yes,sure,hit,1.6400651931762695,NA
212,84h#2zk,False,197,1,unequal,ST1_high_5_a2,P != T1?,Same,1,2,high,96,1.32,132,1.04,96,1.29,No,sure,cr,0.9286971092224121,NA
213,84h#2zk,False,198,1,unequal,ST2_high_6_a2,P != T1?,Same,2,2,high,132,1.0,96,1.42,96,1.49,Yes,sure,hit,0.935772180557251,NA
214,84h#2zk,False,199,1,unequal,ST1_low_6_a2,P != T2?,Same,1,2,low,154,0.93,96,1.22,154,0.84,Yes,sure,hit,1.0175070762634277,NA
215,84h#2zk,False,200,1,unequal,ST1_high_3_a2,P != T2?,Same,1,2,high,70,1.41,96,1.09,70,1.74,Yes,sure,hit,0.9674971103668213,NA
216,84h#2zk,False,201,1,unequal,ST2_low_5_a1,P != T2?,Same,2,1,low,96,1.25,154,0.91,154,0.75,No,sure,cr,1.1709818840026855,NA
217,84h#2zk,False,202,1,unequal,ST1_low_3_a1,P != T2?,Same,1,1,low,70,1.64,112,1.19,70,1.45,Yes,sure,hit,1.1222832202911377,NA
218,84h#2zk,False,203,1,unequal,ST1_low_1_a2,P != T2?,Same,1,2,low,82,1.62,132,0.96,82,1.52,Yes,sure,hit,1.1344399452209473,NA
219,84h#2zk,False,204,1,unequal,DT1_low_4_a2,P != T2?,Different,1,2,low,112,0.97,70,1.51,132,1.03,Yes,sure,hit,1.598336935043335,NA
220,84h#2zk,False,205,1,unequal,ST2_low_6_a2,P != T2?,Same,2,2,low,154,0.85,96,1.28,96,1.36,No,sure,cr,2.7186810970306396,NA
221,84h#2zk,False,206,1,unequal,ST2_high_3_a2,P != T2?,Same,2,2,high,70,1.45,96,1.42,96,1.27,No,sure,cr,1.2547111511230469,NA
222,84h#2zk,False,207,1,unequal,ST2_low_4_a1,P != T1?,Same,2,1,low,112,1.21,70,1.48,70,1.79,Yes,sure,hit,1.6054661273956299,NA
223,84h#2zk,False,208,1,unequal,ST1_high_4_a2,P != T1?,Same,1,2,high,96,1.3,70,1.76,96,1.34,No,sure,cr,1.1074001789093018,NA
224,84h#2zk,False,209,1,unequal,ST1_high_1_a2,P != T1?,Same,1,2,high,82,1.6,112,1.13,82,1.59,No,sure,cr,0.9076788425445557,NA
225,84h#2zk,False,210,1,unequal,ST2_high_4_a1,P != T2?,Same,2,1,high,96,1.15,70,1.83,70,1.84,No,sure,cr,1.2202808856964111,NA
226,84h#2zk,False,211,1,unequal,ST2_low_1_a1,P != T2?,Same,2,1,low,82,1.4,132,0.91,132,0.94,No,sure,cr,1.038766860961914,NA
227,84h#2zk,False,212,1,unequal,STb_8_a2,P != T2?,Same,0,2,None,180,0.72,180,0.87,180,0.93,No,sure,cr,0.713496208190918,NA
228,84h#2zk,False,213,1,unequal,ST2_high_5_a2,P != T2?,Same,2,2,high,96,1.41,132,0.84,132,0.92,No,sure,cr,0.8226108551025391,NA
229,84h#2zk,False,214,1,unequal,ST1_low_1_a2,P != T2?,Same,1,2,low,82,1.41,132,0.86,82,1.45,Yes,quiteSure,hit,2.157388925552368,NA
230,84h#2zk,False,215,1,unequal,ST1_low_3_a1,P != T1?,Same,1,1,low,70,1.5,112,1.18,70,1.79,No,sure,cr,0.9312469959259033,NA
231,84h#2zk,False,216,1,unequal,ST1_low_2_a1,P != T1?,Same,1,1,low,132,0.97,82,1.46,132,0.84,No,sure,cr,1.024190902709961,NA
232,84h#2zk,False,217,1,unequal,ST1_low_3_a2,P != T1?,Same,1,2,low,70,1.39,112,1.05,70,1.78,No,sure,cr,0.8134350776672363,NA
233,84h#2zk,False,218,1,unequal,ST2_low_6_a1,P != T1?,Same,2,1,low,154,0.79,96,1.26,96,1.32,Yes,sure,hit,1.1939821243286133,NA
234,84h#2zk,False,219,1,unequal,ST1_low_6_a2,P != T1?,Same,1,2,low,154,0.73,96,1.14,154,0.81,No,sure,cr,0.8612959384918213,NA
235,84h#2zk,False,220,1,unequal,ST2_high_3_a1,P != T1?,Same,2,1,high,70,1.5,96,1.4,96,1.22,No,sure,miss,0.9487910270690918,NA
236,84h#2zk,False,221,1,unequal,ST2_high_1_a2,P != T2?,Same,2,2,high,82,1.32,112,1.09,112,1.15,No,sure,cr,3.1732022762298584,NA
237,84h#2zk,False,222,1,unequal,DT1_high_1_a2,P != T2?,Different,1,2,high,82,1.52,112,0.93,70,1.68,Yes,sure,hit,1.3083977699279785,NA
238,84h#2zk,False,223,1,unequal,ST2_high_6_a1,P != T2?,Same,2,1,high,132,0.91,96,1.29,96,1.43,No,sure,cr,1.025893211364746,NA
239,84h#2zk,False,224,1,unequal,ST2_high_6_a2,P != T1?,Same,2,2,high,132,0.88,96,1.31,96,1.1,No,sure,miss,1.2581801414489746,NA
240,84h#2zk,False,225,1,unequal,ST1_low_3_a2,P != T1?,Same,1,2,low,70,1.78,112,1.21,70,1.45,No,sure,cr,2.3571691513061523,NA
241,84h#2zk,False,226,1,unequal,ST2_low_6_a2,P != T1?,Same,2,2,low,154,0.87,96,1.37,96,1.39,Yes,sure,hit,1.209291934967041,NA
242,84h#2zk,False,227,1,unequal,DT2_low_3_a2,P != T2?,Different,2,2,low,70,1.83,112,0.94,132,1.06,No,sure,cr,1.5660731792449951,NA
243,84h#2zk,False,228,1,unequal,DT1_high_1_a2,P != T1?,Different,1,2,high,82,1.57,112,1.05,70,1.57,No,sure,cr,1.0296518802642822,NA
244,84h#2zk,False,229,1,unequal,ST2_low_3_a1,P != T2?,Same,2,1,low,70,1.62,112,1.08,112,0.95,No,sure,cr,1.0307338237762451,NA
245,84h#2zk,False,230,1,unequal,ST2_high_5_a1,P != T1?,Same,2,1,high,96,1.23,132,0.93,132,1.05,Yes,quiteSure,hit,1.6110599040985107,NA
246,84h#2zk,False,231,1,unequal,ST1_high_4_a1,P != T2?,Same,1,1,high,96,1.41,70,1.56,96,1.15,Yes,quiteSure,hit,1.1495728492736816,NA
247,84h#2zk,False,232,1,unequal,ST1_low_1_a2,P != T1?,Same,1,2,low,82,1.34,132,1.04,82,1.25,No,sure,cr,1.4166159629821777,NA
248,84h#2zk,False,233,1,unequal,ST1_high_5_a1,P != T1?,Same,1,1,high,96,1.4,132,1.02,96,1.2,Yes,quiteSure,fa,2.56478214263916,NA
249,84h#2zk,False,234,1,unequal,ST2_low_5_a1,P != T1?,Same,2,1,low,96,1.33,154,0.8,154,0.9,Yes,sure,hit,2.1387579441070557,NA
250,84h#2zk,False,235,1,unequal,ST2_high_4_a1,P != T2?,Same,2,1,high,96,1.27,70,1.38,70,1.61,No,sure,cr,2.647656202316284,NA
251,84h#2zk,False,236,1,unequal,ST2_high_2_a2,P != T2?,Same,2,2,high,112,1.06,82,1.37,82,1.25,No,quiteSure,cr,1.3374040126800537,NA
252,84h#2zk,False,237,1,unequal,ST2_high_6_a2,P != T2?,Same,2,2,high,132,1.01,96,1.43,96,1.1,No,quiteSure,cr,1.8108859062194824,NA
253,84h#2zk,False,238,1,unequal,ST1_high_1_a1,P != T2?,Same,1,1,high,82,1.51,112,1.24,82,1.54,Yes,sure,hit,2.0996429920196533,NA
254,84h#2zk,False,239,1,unequal,ST1_high_5_a1,P != T2?,Same,1,1,high,96,1.38,132,0.92,96,1.22,No,unsure,miss,2.7900030612945557,NA
255,84h#2zk,False,240,1,unequal,DT1_high_4_a1,P != T2?,Different,1,1,high,96,1.06,70,1.51,112,0.97,Yes,sure,hit,1.0246667861938477,NA
256,84h#2zk,False,241,1,unequal,ST1_high_4_a1,P != T2?,Same,1,1,high,96,1.28,70,1.84,96,1.1,Yes,sure,hit,1.256221055984497,NA
257,84h#2zk,False,242,1,unequal,ST1_high_6_a1,P != T1?,Same,1,1,high,132,0.89,96,1.37,132,0.92,Yes,quiteSure,fa,3.3081741333007812,NA
258,84h#2zk,False,243,1,unequal,ST1_low_5_a1,P != T1?,Same,1,1,low,96,1.21,154,0.75,96,1.19,No,sure,cr,1.0433881282806396,NA
259,84h#2zk,False,244,1,unequal,ST1_low_4_a1,P != T1?,Same,1,1,low,112,0.99,70,1.68,112,1.06,No,sure,cr,1.0466609001159668,NA
260,84h#2zk,False,245,1,unequal,ST1_low_6_a1,P != T2?,Same,1,1,low,154,0.92,96,1.09,154,0.86,No,quiteSure,miss,4.523701906204224,NA
261,84h#2zk,False,246,1,unequal,ST2_low_5_a2,P != T2?,Same,2,2,low,96,1.22,154,0.9,154,0.9,No,sure,cr,1.9804952144622803,NA
262,84h#2zk,False,247,1,unequal,ST2_low_4_a2,P != T1?,Same,2,2,low,112,0.92,70,1.71,70,1.37,Yes,sure,hit,1.263404130935669,NA
263,84h#2zk,False,248,1,unequal,ST1_low_4_a1,P != T2?,Same,1,1,low,112,1.0,70,1.7,112,1.01,Yes,sure,hit,1.0988259315490723,NA
264,84h#2zk,False,249,1,unequal,ST1_high_6_a2,P != T1?,Same,1,2,high,132,1.04,96,1.15,132,0.9,No,sure,cr,1.6422169208526611,NA
265,84h#2zk,False,250,1,unequal,ST1_low_3_a1,P != T2?,Same,1,1,low,70,1.7,112,1.22,70,1.43,Yes,sure,hit,1.360901117324829,NA
266,84h#2zk,False,251,1,unequal,ST2_high_3_a1,P != T1?,Same,2,1,high,70,1.79,96,1.33,96,1.41,No,sure,miss,1.6190731525421143,NA
267,84h#2zk,False,252,1,unequal,ST2_high_5_a1,P != T2?,Same,2,1,high,96,1.31,132,0.9,132,0.92,No,sure,cr,1.5531718730926514,NA
268,84h#2zk,False,253,1,unequal,ST2_low_4_a1,P != T2?,Same,2,1,low,112,1.02,70,1.54,70,1.77,No,sure,cr,1.0845959186553955,NA
269,84h#2zk,False,254,1,unequal,ST1_low_4_a2,P != T2?,Same,1,2,low,112,1.05,70,1.61,112,1.05,Yes,sure,hit,1.217357873916626,NA
270,84h#2zk,False,255,1,unequal,ST1_low_5_a1,P != T1?,Same,1,1,low,96,1.21,154,0.87,96,1.08,Yes,quiteSure,fa,1.1106438636779785,NA
271,84h#2zk,False,256,1,unequal,ST1_high_4_a1,P != T1?,Same,1,1,high,96,1.3,70,1.41,96,1.06,No,sure,cr,0.9812831878662109,NA
272,84h#2zk,False,257,1,unequal,ST2_low_1_a2,P != T2?,Same,2,2,low,82,1.54,132,0.87,132,0.97,No,sure,cr,1.8971421718597412,NA
273,84h#2zk,False,258,1,unequal,ST2_high_1_a1,P != T2?,Same,2,1,high,82,1.27,112,1.06,112,1.07,No,sure,cr,1.443169116973877,NA
274,84h#2zk,False,259,1,unequal,ST2_high_3_a2,P != T1?,Same,2,2,high,70,1.41,96,1.32,96,1.29,Yes,quiteSure,hit,1.6539320945739746,NA
275,84h#2zk,False,260,1,unequal,ST2_low_4_a1,P != T1?,Same,2,1,low,112,1.16,70,1.45,70,1.77,Yes,sure,hit,1.416679859161377,NA
276,84h#2zk,False,261,1,unequal,ST1_low_1_a1,P != T2?,Same,1,1,low,82,1.33,132,0.79,82,1.34,Yes,quiteSure,hit,1.153925895690918,NA
277,84h#2zk,False,262,1,unequal,ST1_high_2_a1,P != T1?,Same,1,1,high,112,1.07,82,1.63,112,1.02,No,sure,cr,1.0055181980133057,NA
278,84h#2zk,False,263,1,unequal,ST1_low_4_a1,P != T2?,Same,1,1,low,112,0.92,70,1.73,112,1.1,Yes,sure,hit,1.297940969467163,NA
279,84h#2zk,False,264,1,unequal,ST2_high_6_a1,P != T2?,Same,2,1,high,132,0.79,96,1.39,96,1.27,No,sure,cr,1.7704498767852783,NA
280,84h#2zk,False,265,1,unequal,ST1_low_4_a2,P != T2?,Same,1,2,low,112,1.1,70,1.37,112,1.08,Yes,sure,hit,1.1571259498596191,NA
281,84h#2zk,False,266,1,unequal,ST1_low_6_a2,P != T2?,Same,1,2,low,154,0.91,96,1.35,154,0.72,Yes,sure,hit,1.5618019104003906,NA
282,84h#2zk,False,267,1,unequal,ST2_low_4_a1,P != T2?,Same,2,1,low,112,1.01,70,1.74,70,1.65,No,sure,cr,1.3112151622772217,NA
283,84h#2zk,False,268,1,unequal,ST2_high_3_a1,P != T2?,Same,2,1,high,70,1.37,96,1.32,96,1.26,No,sure,cr,1.0116469860076904,NA
284,84h#2zk,False,269,1,unequal,ST2_high_5_a2,P != T1?,Same,2,2,high,96,1.24,132,0.79,132,0.97,Yes,sure,hit,1.2598001956939697,NA
285,84h#2zk,False,270,1,unequal,ST1_high_6_a1,P != T2?,Same,1,1,high,132,0.86,96,1.06,132,0.97,Yes,sure,hit,1.1335082054138184,NA
286,84h#2zk,False,271,1,unequal,ST1_low_5_a1,P != T1?,Same,1,1,low,96,1.07,154,0.84,96,1.34,No,sure,cr,1.46921968460083,NA
287,84h#2zk,False,272,1,unequal,ST1_low_5_a2,P != T1?,Same,1,2,low,96,1.32,154,0.72,96,1.42,No,sure,cr,1.1692018508911133,NA
288,84h#2zk,False,273,1,unequal,ST2_low_3_a1,P != T2?,Same,2,1,low,70,1.37,112,1.01,112,1.18,No,sure,cr,1.0580158233642578,NA
289,84h#2zk,False,274,1,unequal,ST1_low_3_a2,P != T2?,Same,1,2,low,70,1.73,112,1.22,70,1.51,Yes,sure,hit,2.9399468898773193,NA
290,84h#2zk,False,275,1,unequal,ST2_low_6_a1,P != T1?,Same,2,1,low,154,0.75,96,1.16,96,1.12,Yes,quiteSure,hit,1.7445099353790283,NA
291,84h#2zk,False,276,1,unequal,DT1_low_5_a2,P != T1?,Different,1,2,low,96,1.3,154,0.76,82,1.36,No,sure,cr,1.295017957687378,NA
292,84h#2zk,False,277,1,unequal,ST2_high_4_a2,P != T1?,Same,2,2,high,96,1.07,70,1.47,70,1.65,Yes,sure,hit,1.1574149131774902,NA
293,84h#2zk,False,278,1,unequal,ST2_high_1_a2,P != T2?,Same,2,2,high,82,1.3,112,1.18,112,0.96,No,sure,cr,1.0866107940673828,NA
294,84h#2zk,False,279,1,unequal,DT2_low_6_a2,P != T2?,Different,2,2,low,154,0.76,96,1.17,82,1.61,No,sure,cr,1.5408508777618408,NA
295,84h#2zk,False,280,1,unequal,ST1_low_2_a1,P != T2?,Same,1,1,low,132,0.96,82,1.31,132,1.06,Yes,sure,hit,1.1634728908538818,NA
296,84h#2zk,False,281,1,unequal,ST2_low_6_a1,P != T1?,Same,2,1,low,154,0.84,96,1.17,96,1.33,Yes,quiteSure,hit,3.2999680042266846,NA
297,84h#2zk,False,282,1,unequal,ST1_high_6_a1,P != T2?,Same,1,1,high,132,1.02,96,1.41,132,0.91,Yes,sure,hit,0.8982009887695312,NA
298,84h#2zk,False,283,1,unequal,ST2_low_4_a1,P != T2?,Same,2,1,low,112,1.24,70,1.81,70,1.38,No,sure,cr,0.9246032238006592,NA
299,84h#2zk,False,284,1,unequal,ST2_low_1_a1,P != T1?,Same,2,1,low,82,1.64,132,0.8,132,0.9,Yes,sure,hit,0.9092679023742676,NA
300,84h#2zk,False,285,1,unequal,ST2_low_1_a1,P != T2?,Same,2,1,low,82,1.59,132,0.85,132,1.01,No,sure,cr,1.4645321369171143,NA
301,84h#2zk,False,286,1,unequal,ST1_low_1_a2,P != T2?,Same,1,2,low,82,1.25,132,1.02,82,1.56,Yes,sure,hit,0.9772038459777832,NA
302,84h#2zk,False,287,1,unequal,STb_8_a2,P != T1?,Same,0,2,None,180,1.05,180,0.82,180,0.72,No,sure,cr,1.2783269882202148,NA
303,84h#2zk,False,288,1,unequal,ST2_low_5_a2,P != T2?,Same,2,2,low,96,1.16,154,0.77,154,0.93,No,sure,cr,1.1917710304260254,NA
304,84h#2zk,False,289,1,unequal,ST2_high_2_a1,P != T2?,Same,2,1,high,112,0.98,82,1.85,82,1.24,No,sure,cr,2.469857692718506,NA
305,84h#2zk,False,290,1,unequal,ST2_low_6_a2,P != T1?,Same,2,2,low,154,0.83,96,1.09,96,1.19,Yes,quiteSure,hit,1.4175329208374023,NA
306,84h#2zk,False,291,1,unequal,ST1_high_2_a2,P != T1?,Same,1,2,high,112,0.96,82,1.48,112,0.92,No,sure,cr,1.867210865020752,NA
307,84h#2zk,False,292,1,unequal,ST2_low_3_a2,P != T1?,Same,2,2,low,70,1.56,112,1.2,112,1.03,Yes,quiteSure,hit,1.099769115447998,NA
308,84h#2zk,False,293,1,unequal,ST1_low_4_a1,P != T1?,Same,1,1,low,112,1.15,70,1.7,112,1.09,No,sure,cr,0.9947102069854736,NA
309,84h#2zk,False,294,1,unequal,ST2_high_4_a2,P != T1?,Same,2,2,high,96,1.29,70,1.75,70,1.69,Yes,sure,hit,1.5175869464874268,NA
310,84h#2zk,False,295,1,unequal,ST1_high_1_a1,P != T1?,Same,1,1,high,82,1.45,112,0.93,82,1.37,No,sure,cr,1.1696619987487793,NA
311,84h#2zk,False,296,1,unequal,ST2_low_2_a1,P != T1?,Same,2,1,low,132,0.99,82,1.49,82,1.51,Yes,sure,hit,2.731156349182129,NA
312,84h#2zk,False,297,1,unequal,ST2_low_1_a2,P != T2?,Same,2,2,low,82,1.4,132,0.98,132,0.84,No,sure,cr,0.9737339019775391,NA
313,84h#2zk,False,298,1,unequal,STb_3_a2,P != T2?,Same,0,2,None,82,1.4,82,1.27,82,1.55,Yes,quiteSure,fa,6.106849193572998,NA
314,84h#2zk,False,299,1,unequal,DT1_low_6_a1,P != T1?,Different,1,1,low,154,0.77,96,1.29,180,0.9,No,quiteSure,cr,1.7188928127288818,NA
315,84h#2zk,False,300,1,unequal,ST1_high_1_a1,P != T2?,Same,1,1,high,82,1.38,112,1.12,82,1.32,Yes,sure,hit,1.1789538860321045,NA
316,84h#2zk,False,301,1,unequal,ST2_low_3_a2,P != T2?,Same,2,2,low,70,1.74,112,1.18,112,0.95,No,sure,cr,0.8858687877655029,NA
317,84h#2zk,False,302,1,unequal,ST1_low_1_a1,P != T1?,Same,1,1,low,82,1.46,132,0.89,82,1.37,No,sure,cr,0.9949848651885986,NA
318,84h#2zk,False,303,1,unequal,ST1_low_4_a2,P != T2?,Same,1,2,low,112,0.96,70,1.59,112,1.02,Yes,sure,hit,1.1541187763214111,NA
319,84h#2zk,False,304,1,unequal,ST1_high_3_a1,P != T2?,Same,1,1,high,70,1.59,96,1.41,70,1.42,Yes,quiteSure,hit,1.9069278240203857,NA
320,84h#2zk,False,305,1,unequal,ST1_low_6_a2,P != T1?,Same,1,2,low,154,0.95,96,1.29,154,0.88,No,sure,cr,1.4456219673156738,NA
321,84h#2zk,False,306,1,unequal,ST2_low_1_a2,P != T1?,Same,2,2,low,82,1.49,132,0.89,132,1.0,Yes,sure,hit,1.5455858707427979,NA
322,84h#2zk,False,307,1,unequal,ST2_low_6_a1,P != T2?,Same,2,1,low,154,0.75,96,1.42,96,1.33,No,sure,cr,1.0287230014801025,NA
323,84h#2zk,False,308,1,unequal,ST1_high_3_a1,P != T1?,Same,1,1,high,70,1.81,96,1.39,70,1.77,No,sure,cr,0.8668711185455322,NA
324,84h#2zk,False,309,1,unequal,ST1_high_5_a2,P != T1?,Same,1,2,high,96,1.21,132,0.85,96,1.18,No,sure,cr,1.1360077857971191,NA
325,84h#2zk,False,310,1,unequal,ST1_low_6_a2,P != T2?,Same,1,2,low,154,1.02,96,1.27,154,0.94,Yes,sure,hit,0.9878091812133789,NA
326,84h#2zk,False,311,1,unequal,ST1_high_4_a2,P != T1?,Same,1,2,high,96,1.07,70,1.57,96,1.15,No,sure,cr,0.8623208999633789,NA
327,84h#2zk,False,312,1,unequal,ST1_low_3_a1,P != T1?,Same,1,1,low,70,1.41,112,0.97,70,1.65,No,sure,cr,0.8219351768493652,NA
328,84h#2zk,False,313,1,unequal,ST1_high_3_a2,P != T2?,Same,1,2,high,70,1.83,96,1.11,70,1.73,No,sure,miss,1.0273020267486572,NA
329,84h#2zk,False,314,1,unequal,ST2_high_1_a2,P != T1?,Same,2,2,high,82,1.29,112,0.94,112,0.93,Yes,sure,hit,1.3322880268096924,NA
330,84h#2zk,False,315,1,unequal,ST2_high_1_a1,P != T2?,Same,2,1,high,82,1.24,112,1.14,112,1.22,No,sure,cr,1.0496041774749756,NA
331,84h#2zk,False,316,1,unequal,ST2_low_2_a2,P != T2?,Same,2,2,low,132,1.0,82,1.41,82,1.39,No,sure,cr,1.305929183959961,NA
332,84h#2zk,False,317,1,unequal,ST2_low_6_a1,P != T2?,Same,2,1,low,154,0.92,96,1.33,96,1.07,No,sure,cr,0.9346709251403809,NA
333,84h#2zk,False,318,1,unequal,ST2_high_5_a1,P != T2?,Same,2,1,high,96,1.33,132,0.8,132,1.02,No,sure,cr,0.9378588199615479,NA
334,84h#2zk,False,319,1,unequal,ST1_high_1_a1,P != T1?,Same,1,1,high,82,1.5,112,0.94,82,1.39,No,sure,cr,1.1764342784881592,NA
335,84h#2zk,False,320,1,unequal,ST2_high_2_a1,P != T2?,Same,2,1,high,112,1.1,82,1.39,82,1.25,No,sure,cr,4.141330718994141,0.75
