,pcode,practice,trial,block,questionType,condition,question,PTS,TargetPosition,AccessoryPosition,TNS,T1_hz,T1_amp,T2_hz,T2_amp,P_hz,P_amp,response_dicho,response_rating,response_sdt,rt,P_correct
0,63xnq5!,True,1,2,unequal,STb_7_a1,P != T1?,Same,0,1,None,154,0.75,154,0.74,154,0.76,Yes,quiteSure,fa,2.0326921939849854,NA
1,63xnq5!,True,2,2,unequal,ST1_low_2_a2,P != T2?,Same,1,2,low,132,0.9,82,1.45,132,0.98,Yes,quiteSure,hit,2.444546937942505,NA
2,63xnq5!,True,3,2,unequal,ST1_low_1_a2,P != T1?,Same,1,2,low,82,1.17,132,0.83,82,1.43,No,quiteSure,cr,2.3301689624786377,NA
3,63xnq5!,True,4,2,unequal,ST2_low_4_a2,P != T1?,Same,2,2,low,112,1.12,70,1.73,70,1.58,No,quiteSure,miss,2.9821200370788574,NA
4,63xnq5!,True,5,2,unequal,ST2_low_3_a1,P != T2?,Same,2,1,low,70,1.55,112,1.11,112,1.12,No,quiteSure,cr,2.017112970352173,NA
5,63xnq5!,True,6,2,unequal,ST2_low_6_a2,P != T2?,Same,2,2,low,154,0.91,96,1.37,96,1.11,Yes,quiteSure,fa,3.2984750270843506,NA
6,63xnq5!,True,7,2,unequal,DT1_high_2_a1,P != T2?,Different,1,1,high,112,1.23,82,1.37,132,0.96,Yes,quiteSure,hit,1.5402321815490723,NA
7,63xnq5!,True,8,2,unequal,ST1_high_6_a2,P != T1?,Same,1,2,high,132,0.96,96,1.41,132,1.2,No,quiteSure,cr,2.5086188316345215,NA
8,63xnq5!,True,9,2,unequal,DT2_low_6_a1,P != T2?,Different,2,1,low,154,0.87,96,1.33,82,1.5,No,quiteSure,cr,2.622952938079834,NA
9,63xnq5!,True,10,2,unequal,STb_1_a2,P != T2?,Same,0,2,None,60,1.66,60,1.64,60,1.55,No,quiteSure,cr,3.524780035018921,NA
10,63xnq5!,True,11,2,unequal,DT1_low_1_a1,P != T1?,Different,1,1,low,82,1.61,132,0.94,70,1.61,No,quiteSure,cr,4.4922308921813965,NA
11,63xnq5!,True,12,2,unequal,STb_8_a1,P != T1?,Same,0,1,None,180,0.86,180,1.02,180,0.94,No,quiteSure,cr,1.6529788970947266,NA
12,63xnq5!,True,13,2,unequal,STb_4_a2,P != T2?,Same,0,2,None,96,1.2,96,1.31,96,1.27,No,quiteSure,cr,2.109710931777954,NA
13,63xnq5!,True,14,2,unequal,ST2_high_2_a2,P != T1?,Same,2,2,high,112,0.98,82,1.45,82,1.54,Yes,quiteSure,hit,1.9511170387268066,NA
14,63xnq5!,True,15,2,unequal,ST1_low_5_a2,P != T2?,Same,1,2,low,96,1.08,154,1.02,96,1.21,Yes,quiteSure,hit,1.42933988571167,NA
15,63xnq5!,True,16,2,unequal,DT1_high_5_a1,P != T1?,Different,1,1,high,96,1.08,132,1.06,82,1.27,No,quiteSure,cr,1.8624529838562012,0.625
16,63xnq5!,False,1,2,unequal,ST2_high_2_a2,P != T2?,Same,2,2,high,112,1.16,82,1.32,82,1.3,Yes,sure,fa,12.361293077468872,NA
17,63xnq5!,False,2,2,unequal,ST1_high_4_a2,P != T1?,Same,1,2,high,96,1.09,70,1.51,96,1.25,No,sure,cr,12.814202308654785,NA
18,63xnq5!,False,3,2,unequal,ST2_low_3_a1,P != T2?,Same,2,1,low,70,1.4,112,1.13,112,1.09,No,quiteSure,cr,13.869406938552856,NA
19,63xnq5!,False,4,2,unequal,DT1_low_2_a1,P != T2?,Different,1,1,low,132,0.9,82,1.34,154,0.85,Yes,quiteSure,hit,6.1553709506988525,NA
20,63xnq5!,False,5,2,unequal,ST1_high_3_a2,P != T2?,Same,1,2,high,70,1.72,96,1.42,70,1.48,No,quiteSure,miss,3.025627851486206,NA
21,63xnq5!,False,6,2,unequal,ST1_low_3_a1,P != T1?,Same,1,1,low,70,1.71,112,1.16,70,1.43,No,quiteSure,cr,2.373178720474243,NA
22,63xnq5!,False,7,2,unequal,DT2_high_4_a1,P != T2?,Different,2,1,high,96,1.13,70,1.82,60,1.86,Yes,quiteSure,fa,11.4149169921875,NA
23,63xnq5!,False,8,2,unequal,ST2_high_3_a2,P != T1?,Same,2,2,high,70,1.39,96,1.12,96,1.07,No,quiteSure,miss,2.7367749214172363,NA
24,63xnq5!,False,9,2,unequal,ST2_high_4_a1,P != T2?,Same,2,1,high,96,1.09,70,1.47,70,1.69,No,quiteSure,cr,2.306884765625,NA
25,63xnq5!,False,10,2,unequal,ST1_low_5_a2,P != T2?,Same,1,2,low,96,1.3,154,0.79,96,1.27,Yes,quiteSure,hit,4.103410959243774,NA
26,63xnq5!,False,11,2,unequal,ST1_high_4_a1,P != T2?,Same,1,1,high,96,1.22,70,1.59,96,1.11,No,quiteSure,miss,6.986399173736572,NA
27,63xnq5!,False,12,2,unequal,ST1_low_5_a2,P != T2?,Same,1,2,low,96,1.12,154,0.91,96,1.32,No,quiteSure,miss,3.4576449394226074,NA
28,63xnq5!,False,13,2,unequal,ST2_high_5_a1,P != T2?,Same,2,1,high,96,1.33,132,0.81,132,0.82,No,quiteSure,cr,1.428462028503418,NA
29,63xnq5!,False,14,2,unequal,ST2_low_1_a2,P != T1?,Same,2,2,low,82,1.44,132,0.99,132,1.04,Yes,quiteSure,hit,1.7229509353637695,NA
30,63xnq5!,False,15,2,unequal,DT2_low_5_a1,P != T2?,Different,2,1,low,96,1.39,154,0.95,180,0.8,Yes,quiteSure,fa,4.285475015640259,NA
31,63xnq5!,False,16,2,unequal,ST1_high_1_a2,P != T2?,Same,1,2,high,82,1.57,112,0.92,82,1.52,No,quiteSure,miss,3.2273080348968506,NA
32,63xnq5!,False,17,2,unequal,ST1_high_5_a2,P != T1?,Same,1,2,high,96,1.36,132,0.81,96,1.33,Yes,quiteSure,fa,4.670842170715332,NA
33,63xnq5!,False,18,2,unequal,ST1_high_1_a1,P != T2?,Same,1,1,high,82,1.51,112,1.15,82,1.24,Yes,quiteSure,hit,1.5840859413146973,NA
34,63xnq5!,False,19,2,unequal,ST1_low_1_a2,P != T2?,Same,1,2,low,82,1.23,132,0.89,82,1.29,No,quiteSure,miss,1.5150132179260254,NA
35,63xnq5!,False,20,2,unequal,ST2_high_6_a1,P != T2?,Same,2,1,high,132,0.87,96,1.26,96,1.28,No,quiteSure,cr,2.2250800132751465,NA
36,63xnq5!,False,21,2,unequal,ST2_low_5_a2,P != T1?,Same,2,2,low,96,1.17,154,0.91,154,0.95,Yes,quiteSure,hit,5.607903957366943,NA
37,63xnq5!,False,22,2,unequal,ST1_low_2_a1,P != T2?,Same,1,1,low,132,0.86,82,1.37,132,1.02,Yes,quiteSure,hit,1.9234607219696045,NA
38,63xnq5!,False,23,2,unequal,ST1_low_1_a1,P != T2?,Same,1,1,low,82,1.32,132,1.05,82,1.29,Yes,unsure,hit,1.7275216579437256,NA
39,63xnq5!,False,24,2,unequal,ST1_low_6_a2,P != T1?,Same,1,2,low,154,0.76,96,1.29,154,0.85,No,unsure,cr,7.308465957641602,NA
40,63xnq5!,False,25,2,unequal,ST2_low_2_a2,P != T1?,Same,2,2,low,132,1.06,82,1.36,82,1.41,Yes,unsure,hit,1.5429832935333252,NA
41,63xnq5!,False,26,2,unequal,ST1_low_5_a1,P != T2?,Same,1,1,low,96,1.17,154,0.94,96,1.29,Yes,unsure,hit,3.5667879581451416,NA
42,63xnq5!,False,27,2,unequal,ST1_low_1_a2,P != T1?,Same,1,2,low,82,1.17,132,0.83,82,1.43,No,quiteSure,cr,1.5412557125091553,NA
43,63xnq5!,False,28,2,unequal,ST2_low_1_a2,P != T1?,Same,2,2,low,82,1.59,132,1.06,132,0.84,Yes,quiteSure,hit,2.622913122177124,NA
44,63xnq5!,False,29,2,unequal,ST1_low_1_a2,P != T1?,Same,1,2,low,82,1.37,132,0.92,82,1.38,Yes,quiteSure,fa,2.079652786254883,NA
45,63xnq5!,False,30,2,unequal,ST1_low_3_a2,P != T2?,Same,1,2,low,70,1.74,112,1.1,70,1.76,Yes,quiteSure,hit,1.944040060043335,NA
46,63xnq5!,False,31,2,unequal,ST2_high_3_a1,P != T1?,Same,2,1,high,70,1.41,96,1.32,96,1.42,Yes,quiteSure,hit,1.563112735748291,NA
47,63xnq5!,False,32,2,unequal,ST1_low_3_a2,P != T2?,Same,1,2,low,70,1.79,112,1.17,70,1.44,Yes,quiteSure,hit,2.151700019836426,NA
48,63xnq5!,False,33,2,unequal,ST1_high_4_a2,P != T2?,Same,1,2,high,96,1.35,70,1.56,96,1.13,Yes,quiteSure,hit,1.9393620491027832,NA
49,63xnq5!,False,34,2,unequal,ST2_high_4_a2,P != T2?,Same,2,2,high,96,1.16,70,1.5,70,1.84,No,quiteSure,cr,2.238955020904541,NA
50,63xnq5!,False,35,2,unequal,ST1_high_6_a1,P != T2?,Same,1,1,high,132,0.98,96,1.16,132,0.99,Yes,quiteSure,hit,1.7460711002349854,NA
51,63xnq5!,False,36,2,unequal,ST2_high_2_a1,P != T1?,Same,2,1,high,112,1.0,82,1.23,82,1.24,Yes,quiteSure,hit,2.5543479919433594,NA
52,63xnq5!,False,37,2,unequal,ST1_high_4_a2,P != T1?,Same,1,2,high,96,1.16,70,1.84,96,1.14,Yes,quiteSure,fa,6.787329912185669,NA
53,63xnq5!,False,38,2,unequal,DT2_high_3_a2,P != T2?,Different,2,2,high,70,1.53,96,1.09,112,0.95,No,quiteSure,cr,2.3275489807128906,NA
54,63xnq5!,False,39,2,unequal,STb_5_a2,P != T1?,Same,0,2,None,112,1.01,112,1.07,112,1.22,No,unsure,cr,2.602283000946045,NA
55,63xnq5!,False,40,2,unequal,ST2_low_5_a1,P != T1?,Same,2,1,low,96,1.41,154,0.88,154,0.82,Yes,quiteSure,hit,1.5862147808074951,NA
56,63xnq5!,False,41,2,unequal,STb_6_a2,P != T2?,Same,0,2,None,132,1.0,132,1.02,132,1.04,No,quiteSure,cr,3.3852059841156006,NA
57,63xnq5!,False,42,2,unequal,ST1_low_4_a1,P != T1?,Same,1,1,low,112,0.93,70,1.5,112,1.18,No,quiteSure,cr,1.477510929107666,NA
58,63xnq5!,False,43,2,unequal,STb_1_a1,P != T1?,Same,0,1,None,60,1.86,60,1.99,60,1.77,No,quiteSure,cr,3.069530963897705,NA
59,63xnq5!,False,44,2,unequal,ST1_high_3_a1,P != T2?,Same,1,1,high,70,1.66,96,1.38,70,1.78,Yes,quiteSure,hit,1.9739608764648438,NA
60,63xnq5!,False,45,2,unequal,ST1_high_1_a2,P != T1?,Same,1,2,high,82,1.56,112,1.03,82,1.4,No,quiteSure,cr,1.4269680976867676,NA
61,63xnq5!,False,46,2,unequal,ST2_low_4_a1,P != T1?,Same,2,1,low,112,0.92,70,1.52,70,1.46,Yes,quiteSure,hit,1.8359389305114746,NA
62,63xnq5!,False,47,2,unequal,ST2_high_4_a1,P != T1?,Same,2,1,high,96,1.11,70,1.62,70,1.45,No,quiteSure,miss,2.2186789512634277,NA
63,63xnq5!,False,48,2,unequal,ST1_high_6_a2,P != T2?,Same,1,2,high,132,0.8,96,1.24,132,0.79,No,quiteSure,miss,3.3661158084869385,NA
64,63xnq5!,False,49,2,unequal,ST1_low_6_a1,P != T1?,Same,1,1,low,154,0.75,96,1.32,154,0.76,Yes,quiteSure,fa,3.497373104095459,NA
65,63xnq5!,False,50,2,unequal,ST1_low_6_a1,P != T2?,Same,1,1,low,154,0.78,96,1.41,154,0.78,Yes,quiteSure,hit,1.5881311893463135,NA
66,63xnq5!,False,51,2,unequal,ST2_low_1_a1,P != T1?,Same,2,1,low,82,1.53,132,0.98,132,0.91,No,unsure,miss,1.1172130107879639,NA
67,63xnq5!,False,52,2,unequal,ST2_high_6_a1,P != T1?,Same,2,1,high,132,0.84,96,1.21,96,1.21,Yes,unsure,hit,1.943896770477295,NA
68,63xnq5!,False,53,2,unequal,ST2_low_3_a2,P != T2?,Same,2,2,low,70,1.38,112,0.98,112,0.94,Yes,quiteSure,fa,4.46352219581604,NA
69,63xnq5!,False,54,2,unequal,ST2_low_2_a2,P != T2?,Same,2,2,low,132,1.0,82,1.54,82,1.53,No,quiteSure,cr,3.435265064239502,NA
70,63xnq5!,False,55,2,unequal,ST2_low_3_a2,P != T1?,Same,2,2,low,70,1.66,112,0.94,112,1.09,Yes,quiteSure,hit,1.2705950736999512,NA
71,63xnq5!,False,56,2,unequal,ST1_low_6_a2,P != T2?,Same,1,2,low,154,0.72,96,1.17,154,0.74,No,quiteSure,miss,1.4300520420074463,NA
72,63xnq5!,False,57,2,unequal,ST2_low_5_a2,P != T2?,Same,2,2,low,96,1.41,154,0.72,154,0.77,No,quiteSure,cr,1.8129870891571045,NA
73,63xnq5!,False,58,2,unequal,ST2_low_2_a2,P != T1?,Same,2,2,low,132,0.93,82,1.27,82,1.35,No,sure,miss,3.385477066040039,NA
74,63xnq5!,False,59,2,unequal,ST1_low_4_a1,P != T2?,Same,1,1,low,112,1.03,70,1.64,112,1.2,No,unsure,miss,4.247469902038574,NA
75,63xnq5!,False,60,2,unequal,ST2_low_3_a2,P != T2?,Same,2,2,low,70,1.54,112,1.02,112,1.1,No,unsure,cr,5.4354307651519775,NA
76,63xnq5!,False,61,2,unequal,ST1_low_3_a2,P != T1?,Same,1,2,low,70,1.52,112,1.11,70,1.72,No,unsure,cr,1.8976168632507324,NA
77,63xnq5!,False,62,2,unequal,ST2_low_1_a1,P != T2?,Same,2,1,low,82,1.23,132,1.01,132,0.83,No,quiteSure,cr,1.8610820770263672,NA
78,63xnq5!,False,63,2,unequal,DT1_low_6_a2,P != T1?,Different,1,2,low,154,0.71,96,1.32,180,0.74,Yes,quiteSure,fa,2.8016538619995117,NA
79,63xnq5!,False,64,2,unequal,ST1_high_4_a1,P != T1?,Same,1,1,high,96,1.11,70,1.56,96,1.14,No,unsure,cr,1.4040398597717285,NA
80,63xnq5!,False,65,2,unequal,ST2_high_3_a2,P != T1?,Same,2,2,high,70,1.6,96,1.35,96,1.23,No,quiteSure,miss,1.9278090000152588,NA
81,63xnq5!,False,66,2,unequal,ST1_low_3_a2,P != T2?,Same,1,2,low,70,1.39,112,1.1,70,1.56,Yes,quiteSure,hit,3.003955841064453,NA
82,63xnq5!,False,67,2,unequal,ST1_high_3_a2,P != T1?,Same,1,2,high,70,1.5,96,1.4,70,1.4,No,quiteSure,cr,3.5877859592437744,NA
83,63xnq5!,False,68,2,unequal,ST1_high_1_a2,P != T1?,Same,1,2,high,82,1.33,112,1.0,82,1.54,No,quiteSure,cr,2.593843936920166,NA
84,63xnq5!,False,69,2,unequal,ST2_high_1_a1,P != T1?,Same,2,1,high,82,1.44,112,1.16,112,1.17,Yes,unsure,hit,1.791929006576538,NA
85,63xnq5!,False,70,2,unequal,ST2_high_1_a2,P != T2?,Same,2,2,high,82,1.57,112,1.2,112,1.2,No,sure,cr,2.464308977127075,NA
86,63xnq5!,False,71,2,unequal,ST1_low_6_a1,P != T1?,Same,1,1,low,154,0.84,96,1.1,154,0.73,No,sure,cr,1.6811459064483643,NA
87,63xnq5!,False,72,2,unequal,ST1_high_5_a1,P != T2?,Same,1,1,high,96,1.26,132,0.8,96,1.36,Yes,quiteSure,hit,3.185457944869995,NA
88,63xnq5!,False,73,2,unequal,ST2_high_5_a2,P != T2?,Same,2,2,high,96,1.12,132,1.03,132,1.04,No,quiteSure,cr,8.014312982559204,NA
89,63xnq5!,False,74,2,unequal,ST1_low_4_a1,P != T1?,Same,1,1,low,112,0.94,70,1.74,112,1.01,No,quiteSure,cr,3.8582699298858643,NA
90,63xnq5!,False,75,2,unequal,ST2_high_1_a2,P != T2?,Same,2,2,high,82,1.27,112,1.01,112,1.14,No,sure,cr,1.7779393196105957,NA
91,63xnq5!,False,76,2,unequal,ST2_low_2_a1,P != T2?,Same,2,1,low,132,0.85,82,1.35,82,1.38,No,sure,cr,2.68571400642395,NA
92,63xnq5!,False,77,2,unequal,ST2_low_5_a1,P != T2?,Same,2,1,low,96,1.37,154,0.79,154,0.86,Yes,sure,fa,2.0554451942443848,NA
93,63xnq5!,False,78,2,unequal,DT2_high_5_a1,P != T1?,Different,2,1,high,96,1.07,132,0.87,154,0.95,No,unsure,miss,12.343739748001099,NA
94,63xnq5!,False,79,2,unequal,ST2_high_2_a1,P != T2?,Same,2,1,high,112,1.17,82,1.53,82,1.47,No,sure,cr,2.1946640014648438,NA
95,63xnq5!,False,80,2,unequal,ST1_high_4_a2,P != T1?,Same,1,2,high,96,1.19,70,1.47,96,1.42,No,sure,cr,1.4514961242675781,NA
96,63xnq5!,False,81,2,unequal,ST2_high_1_a1,P != T1?,Same,2,1,high,82,1.55,112,1.18,112,1.14,Yes,quiteSure,hit,2.9126930236816406,NA
97,63xnq5!,False,82,2,unequal,ST2_low_4_a2,P != T1?,Same,2,2,low,112,1.12,70,1.73,70,1.58,Yes,quiteSure,hit,1.6744277477264404,NA
98,63xnq5!,False,83,2,unequal,ST1_high_6_a1,P != T2?,Same,1,1,high,132,0.82,96,1.14,132,1.03,Yes,quiteSure,hit,4.440178871154785,NA
99,63xnq5!,False,84,2,unequal,ST2_low_4_a1,P != T2?,Same,2,1,low,112,0.94,70,1.54,70,1.5,No,quiteSure,cr,2.917123794555664,NA
100,63xnq5!,False,85,2,unequal,ST1_high_3_a2,P != T2?,Same,1,2,high,70,1.63,96,1.24,70,1.65,No,quiteSure,miss,4.154479265213013,NA
101,63xnq5!,False,86,2,unequal,ST2_high_1_a2,P != T2?,Same,2,2,high,82,1.43,112,0.97,112,1.17,No,quiteSure,cr,2.913097858428955,NA
102,63xnq5!,False,87,2,unequal,ST1_low_6_a1,P != T1?,Same,1,1,low,154,0.88,96,1.23,154,0.76,No,quiteSure,cr,1.650852918624878,NA
103,63xnq5!,False,88,2,unequal,ST2_high_4_a2,P != T1?,Same,2,2,high,96,1.25,70,1.43,70,1.42,Yes,quiteSure,hit,1.608173131942749,NA
104,63xnq5!,False,89,2,unequal,ST1_high_2_a2,P != T2?,Same,1,2,high,112,1.18,82,1.64,112,1.01,Yes,quiteSure,hit,4.0025551319122314,NA
105,63xnq5!,False,90,2,unequal,ST1_low_6_a2,P != T2?,Same,1,2,low,154,0.74,96,1.07,154,0.93,Yes,sure,hit,1.4746696949005127,NA
106,63xnq5!,False,91,2,unequal,ST2_low_5_a2,P != T2?,Same,2,2,low,96,1.37,154,0.92,154,0.78,No,sure,cr,2.732003927230835,NA
107,63xnq5!,False,92,2,unequal,ST2_high_2_a2,P != T2?,Same,2,2,high,112,1.15,82,1.35,82,1.24,No,sure,cr,2.4457738399505615,NA
108,63xnq5!,False,93,2,unequal,ST1_high_1_a1,P != T2?,Same,1,1,high,82,1.33,112,0.93,82,1.3,No,sure,miss,1.3565990924835205,NA
109,63xnq5!,False,94,2,unequal,ST1_high_3_a2,P != T2?,Same,1,2,high,70,1.37,96,1.19,70,1.81,Yes,unsure,hit,3.3859267234802246,NA
110,63xnq5!,False,95,2,unequal,ST2_low_5_a1,P != T2?,Same,2,1,low,96,1.35,154,0.8,154,0.89,No,sure,cr,2.279621124267578,NA
111,63xnq5!,False,96,2,unequal,ST2_high_3_a1,P != T2?,Same,2,1,high,70,1.7,96,1.17,96,1.25,No,sure,cr,2.394660711288452,NA
112,63xnq5!,False,97,2,unequal,ST2_high_5_a2,P != T2?,Same,2,2,high,96,1.35,132,0.83,132,1.06,No,sure,cr,1.588155746459961,NA
113,63xnq5!,False,98,2,unequal,ST1_low_4_a1,P != T2?,Same,1,1,low,112,1.06,70,1.38,112,1.23,Yes,sure,hit,1.3382980823516846,NA
114,63xnq5!,False,99,2,unequal,ST2_high_6_a2,P != T1?,Same,2,2,high,132,0.89,96,1.33,96,1.16,Yes,sure,hit,2.21301007270813,NA
115,63xnq5!,False,100,2,unequal,ST1_high_1_a2,P != T2?,Same,1,2,high,82,1.59,112,1.05,82,1.48,No,sure,miss,3.9030940532684326,NA
116,63xnq5!,False,101,2,unequal,ST2_low_1_a2,P != T1?,Same,2,2,low,82,1.36,132,0.8,132,0.91,Yes,quiteSure,hit,3.2250781059265137,NA
117,63xnq5!,False,102,2,unequal,ST1_high_1_a2,P != T1?,Same,1,2,high,82,1.59,112,1.2,82,1.55,Yes,sure,fa,2.5327510833740234,NA
118,63xnq5!,False,103,2,unequal,ST2_high_6_a1,P != T2?,Same,2,1,high,132,1.02,96,1.33,96,1.17,Yes,quiteSure,fa,4.332057952880859,NA
119,63xnq5!,False,104,2,unequal,ST2_high_4_a1,P != T2?,Same,2,1,high,96,1.24,70,1.63,70,1.69,No,sure,cr,1.6569483280181885,NA
120,63xnq5!,False,105,2,unequal,ST1_low_5_a2,P != T1?,Same,1,2,low,96,1.38,154,0.81,96,1.36,No,quiteSure,cr,4.173998117446899,NA
121,63xnq5!,False,106,2,unequal,ST2_high_3_a2,P != T2?,Same,2,2,high,70,1.54,96,1.28,96,1.12,No,quiteSure,cr,3.83135986328125,NA
122,63xnq5!,False,107,2,unequal,DT2_low_5_a2,P != T1?,Different,2,2,low,96,1.23,154,0.92,180,0.93,Yes,sure,hit,1.2906861305236816,NA
123,63xnq5!,False,108,2,unequal,ST2_high_5_a1,P != T2?,Same,2,1,high,96,1.38,132,0.93,132,0.83,No,sure,cr,1.408647060394287,NA
124,63xnq5!,False,109,2,unequal,ST2_high_2_a2,P != T2?,Same,2,2,high,112,0.96,82,1.37,82,1.42,No,sure,cr,1.5835628509521484,NA
125,63xnq5!,False,110,2,unequal,ST2_high_6_a2,P != T2?,Same,2,2,high,132,1.03,96,1.39,96,1.1,No,sure,cr,1.7421369552612305,NA
126,63xnq5!,False,111,2,unequal,ST1_low_5_a1,P != T1?,Same,1,1,low,96,1.33,154,0.73,96,1.34,No,sure,cr,2.1725728511810303,NA
127,63xnq5!,False,112,2,unequal,ST1_low_4_a1,P != T1?,Same,1,1,low,112,1.03,70,1.8,112,1.23,No,sure,cr,3.3595728874206543,NA
128,63xnq5!,False,113,2,unequal,ST1_high_2_a1,P != T1?,Same,1,1,high,112,1.03,82,1.57,112,1.13,No,sure,cr,8.968835830688477,NA
129,63xnq5!,False,114,2,unequal,ST1_low_1_a1,P != T2?,Same,1,1,low,82,1.5,132,0.99,82,1.44,Yes,sure,hit,2.376676082611084,NA
130,63xnq5!,False,115,2,unequal,ST2_high_4_a1,P != T1?,Same,2,1,high,96,1.11,70,1.44,70,1.42,Yes,sure,hit,1.9000329971313477,NA
131,63xnq5!,False,116,2,unequal,ST1_high_6_a1,P != T2?,Same,1,1,high,132,0.98,96,1.32,132,0.81,Yes,quiteSure,hit,2.25954008102417,NA
132,63xnq5!,False,117,2,unequal,ST1_low_6_a2,P != T1?,Same,1,2,low,154,0.91,96,1.13,154,0.94,No,sure,cr,2.840996265411377,NA
133,63xnq5!,False,118,2,unequal,ST2_low_4_a2,P != T2?,Same,2,2,low,112,0.95,70,1.42,70,1.75,No,sure,cr,1.786135196685791,NA
134,63xnq5!,False,119,2,unequal,ST2_high_3_a1,P != T2?,Same,2,1,high,70,1.55,96,1.16,96,1.36,No,sure,cr,1.0898308753967285,NA
135,63xnq5!,False,120,2,unequal,ST2_high_6_a2,P != T1?,Same,2,2,high,132,0.92,96,1.3,96,1.17,Yes,sure,hit,1.4797329902648926,NA
136,63xnq5!,False,121,2,unequal,ST1_low_3_a2,P != T1?,Same,1,2,low,70,1.46,112,0.93,70,1.65,Yes,sure,fa,2.4436380863189697,NA
137,63xnq5!,False,122,2,unequal,ST1_high_3_a1,P != T2?,Same,1,1,high,70,1.49,96,1.42,70,1.41,No,sure,miss,1.9946589469909668,NA
138,63xnq5!,False,123,2,unequal,ST1_low_5_a2,P != T2?,Same,1,2,low,96,1.08,154,1.02,96,1.21,Yes,sure,hit,1.6700201034545898,NA
139,63xnq5!,False,124,2,unequal,ST1_high_3_a1,P != T1?,Same,1,1,high,70,1.54,96,1.14,70,1.66,Yes,sure,fa,2.9583499431610107,NA
140,63xnq5!,False,125,2,unequal,STb_1_a1,P != T2?,Same,0,1,None,60,1.78,60,1.59,60,1.96,No,sure,cr,4.149504899978638,NA
141,63xnq5!,False,126,2,unequal,ST2_low_6_a2,P != T1?,Same,2,2,low,154,0.89,96,1.27,96,1.43,Yes,sure,hit,3.9889519214630127,NA
142,63xnq5!,False,127,2,unequal,STb_4_a2,P != T1?,Same,0,2,None,96,1.14,96,1.22,96,1.41,Yes,sure,fa,1.4772570133209229,NA
143,63xnq5!,False,128,2,unequal,ST2_low_6_a1,P != T1?,Same,2,1,low,154,0.9,96,1.15,96,1.08,Yes,sure,hit,6.103672742843628,NA
144,63xnq5!,False,129,2,unequal,ST1_high_4_a1,P != T2?,Same,1,1,high,96,1.37,70,1.43,96,1.14,No,sure,miss,2.9127581119537354,NA
145,63xnq5!,False,130,2,unequal,STb_6_a1,P != T2?,Same,0,1,None,132,0.87,132,0.93,132,0.85,No,sure,cr,3.9475479125976562,NA
146,63xnq5!,False,131,2,unequal,ST2_low_1_a2,P != T2?,Same,2,2,low,82,1.39,132,0.8,132,0.79,No,sure,cr,10.180840969085693,NA
147,63xnq5!,False,132,2,unequal,DT1_low_5_a2,P != T1?,Different,1,2,low,96,1.22,154,0.93,82,1.28,Yes,sure,fa,9.253461122512817,NA
148,63xnq5!,False,133,2,unequal,DT2_low_1_a1,P != T1?,Different,2,1,low,82,1.22,132,0.83,154,0.89,No,sure,miss,3.026848077774048,NA
149,63xnq5!,False,134,2,unequal,ST2_high_4_a1,P != T1?,Same,2,1,high,96,1.39,70,1.7,70,1.72,Yes,quiteSure,hit,1.901860237121582,NA
150,63xnq5!,False,135,2,unequal,ST2_high_1_a2,P != T1?,Same,2,2,high,82,1.55,112,0.94,112,1.11,Yes,unsure,hit,1.8750419616699219,NA
151,63xnq5!,False,136,2,unequal,ST1_low_1_a1,P != T1?,Same,1,1,low,82,1.35,132,0.84,82,1.4,Yes,unsure,fa,1.604956865310669,NA
152,63xnq5!,False,137,2,unequal,DT1_high_6_a2,P != T1?,Different,1,2,high,132,0.8,96,1.06,154,0.71,No,quiteSure,cr,3.7896478176116943,NA
153,63xnq5!,False,138,2,unequal,ST1_high_2_a2,P != T2?,Same,1,2,high,112,1.19,82,1.54,112,0.95,No,quiteSure,miss,1.586050033569336,NA
154,63xnq5!,False,139,2,unequal,ST1_high_6_a1,P != T1?,Same,1,1,high,132,0.97,96,1.07,132,0.85,No,quiteSure,cr,1.4722490310668945,NA
155,63xnq5!,False,140,2,unequal,ST2_high_1_a1,P != T2?,Same,2,1,high,82,1.37,112,1.02,112,0.95,No,quiteSure,cr,1.3154551982879639,NA
156,63xnq5!,False,141,2,unequal,ST2_low_6_a1,P != T1?,Same,2,1,low,154,0.76,96,1.08,96,1.42,Yes,quiteSure,hit,3.498793840408325,NA
157,63xnq5!,False,142,2,unequal,ST2_low_4_a2,P != T1?,Same,2,2,low,112,1.07,70,1.7,70,1.48,Yes,sure,hit,1.7856900691986084,NA
158,63xnq5!,False,143,2,unequal,DT2_low_3_a2,P != T1?,Different,2,2,low,70,1.49,112,0.91,132,1.01,Yes,sure,hit,1.5680317878723145,NA
159,63xnq5!,False,144,2,unequal,ST1_low_1_a2,P != T1?,Same,1,2,low,82,1.46,132,0.89,82,1.25,Yes,sure,fa,0.977787971496582,NA
160,63xnq5!,False,145,2,unequal,STb_4_a2,P != T2?,Same,0,2,None,96,1.2,96,1.31,96,1.27,Yes,sure,fa,1.9705250263214111,NA
161,63xnq5!,False,146,2,unequal,ST2_low_5_a2,P != T1?,Same,2,2,low,96,1.37,154,0.76,154,0.95,Yes,sure,hit,1.811471939086914,NA
162,63xnq5!,False,147,2,unequal,ST1_low_4_a2,P != T2?,Same,1,2,low,112,0.99,70,1.63,112,0.96,Yes,sure,hit,1.564504861831665,NA
163,63xnq5!,False,148,2,unequal,ST2_high_2_a2,P != T1?,Same,2,2,high,112,0.93,82,1.36,82,1.31,Yes,sure,hit,1.6756877899169922,NA
164,63xnq5!,False,149,2,unequal,ST2_high_2_a1,P != T1?,Same,2,1,high,112,0.94,82,1.24,82,1.27,Yes,quiteSure,hit,2.4198572635650635,NA
165,63xnq5!,False,150,2,unequal,STb_8_a2,P != T1?,Same,0,2,None,180,0.79,180,0.94,180,0.95,No,sure,cr,3.769166946411133,NA
166,63xnq5!,False,151,2,unequal,ST2_low_6_a2,P != T2?,Same,2,2,low,154,0.91,96,1.37,96,1.11,No,sure,cr,1.697394847869873,NA
167,63xnq5!,False,152,2,unequal,ST1_high_5_a1,P != T1?,Same,1,1,high,96,1.2,132,0.95,96,1.36,No,sure,cr,5.525235891342163,NA
168,63xnq5!,False,153,2,unequal,DT1_high_6_a1,P != T2?,Different,1,1,high,132,0.9,96,1.19,154,0.91,No,sure,miss,3.6826350688934326,NA
169,63xnq5!,False,154,2,unequal,ST1_low_5_a1,P != T2?,Same,1,1,low,96,1.22,154,0.75,96,1.09,No,sure,miss,2.620976209640503,NA
170,63xnq5!,False,155,2,unequal,ST2_high_4_a2,P != T1?,Same,2,2,high,96,1.26,70,1.79,70,1.37,Yes,quiteSure,hit,1.8318119049072266,NA
171,63xnq5!,False,156,2,unequal,ST1_high_3_a2,P != T1?,Same,1,2,high,70,1.55,96,1.38,70,1.43,No,quiteSure,cr,2.3302557468414307,NA
172,63xnq5!,False,157,2,unequal,ST2_low_1_a1,P != T2?,Same,2,1,low,82,1.6,132,0.88,132,0.89,No,sure,cr,2.0362329483032227,NA
173,63xnq5!,False,158,2,unequal,ST1_high_2_a2,P != T1?,Same,1,2,high,112,0.98,82,1.21,112,1.1,No,unsure,cr,3.3417580127716064,NA
174,63xnq5!,False,159,2,unequal,ST2_low_2_a1,P != T1?,Same,2,1,low,132,0.98,82,1.57,82,1.58,Yes,unsure,hit,6.334161281585693,NA
175,63xnq5!,False,160,2,unequal,ST1_low_3_a1,P != T2?,Same,1,1,low,70,1.65,112,1.13,70,1.81,No,sure,miss,1.2287909984588623,NA
176,63xnq5!,False,161,2,unequal,ST1_high_5_a1,P != T2?,Same,1,1,high,96,1.38,132,0.92,96,1.29,No,sure,miss,2.0361509323120117,NA
177,63xnq5!,False,162,2,unequal,STb_5_a1,P != T2?,Same,0,1,None,112,1.05,112,1.21,112,1.1,No,sure,cr,1.0266742706298828,NA
178,63xnq5!,False,163,2,unequal,ST2_low_3_a2,P != T1?,Same,2,2,low,70,1.72,112,1.01,112,1.03,Yes,sure,hit,5.4132609367370605,NA
179,63xnq5!,False,164,2,unequal,STb_4_a1,P != T1?,Same,0,1,None,96,1.3,96,1.14,96,1.23,No,sure,cr,1.9915809631347656,NA
180,63xnq5!,False,165,2,unequal,ST2_high_4_a2,P != T1?,Same,2,2,high,96,1.1,70,1.83,70,1.59,Yes,sure,hit,1.5769410133361816,NA
181,63xnq5!,False,166,2,unequal,ST1_high_5_a2,P != T2?,Same,1,2,high,96,1.28,132,0.83,96,1.39,No,sure,miss,1.7227201461791992,NA
182,63xnq5!,False,167,2,unequal,DT2_low_1_a2,P != T2?,Different,2,2,low,82,1.42,132,0.79,154,0.71,Yes,sure,fa,2.236314058303833,NA
183,63xnq5!,False,168,2,unequal,DT2_low_6_a2,P != T2?,Different,2,2,low,154,0.77,96,1.24,82,1.56,No,quiteSure,cr,3.0256519317626953,NA
184,63xnq5!,False,169,2,unequal,ST1_low_2_a2,P != T1?,Same,1,2,low,132,1.0,82,1.55,132,0.81,No,quiteSure,cr,3.073399066925049,NA
185,63xnq5!,False,170,2,unequal,ST1_low_3_a1,P != T2?,Same,1,1,low,70,1.69,112,1.18,70,1.77,No,quiteSure,miss,1.5838558673858643,NA
186,63xnq5!,False,171,2,unequal,ST2_low_6_a1,P != T1?,Same,2,1,low,154,0.72,96,1.15,96,1.06,Yes,quiteSure,hit,2.394294023513794,NA
187,63xnq5!,False,172,2,unequal,ST2_low_1_a2,P != T2?,Same,2,2,low,82,1.61,132,1.0,132,1.03,No,sure,cr,1.8269200325012207,NA
188,63xnq5!,False,173,2,unequal,ST2_low_3_a1,P != T1?,Same,2,1,low,70,1.6,112,0.95,112,1.21,No,sure,miss,0.7287392616271973,NA
189,63xnq5!,False,174,2,unequal,ST1_low_2_a2,P != T2?,Same,1,2,low,132,0.93,82,1.4,132,0.96,Yes,sure,hit,1.6293067932128906,NA
190,63xnq5!,False,175,2,unequal,ST2_low_4_a1,P != T2?,Same,2,1,low,112,1.11,70,1.71,70,1.72,Yes,sure,fa,2.824740171432495,NA
191,63xnq5!,False,176,2,unequal,ST2_high_1_a1,P != T1?,Same,2,1,high,82,1.39,112,1.0,112,1.08,Yes,sure,hit,1.7860169410705566,NA
192,63xnq5!,False,177,2,unequal,ST2_low_1_a2,P != T2?,Same,2,2,low,82,1.59,132,0.98,132,0.8,No,sure,cr,5.6905598640441895,NA
193,63xnq5!,False,178,2,unequal,ST2_high_4_a2,P != T2?,Same,2,2,high,96,1.29,70,1.62,70,1.39,No,quiteSure,cr,2.5305349826812744,NA
194,63xnq5!,False,179,2,unequal,ST1_low_2_a2,P != T2?,Same,1,2,low,132,0.98,82,1.51,132,1.04,Yes,quiteSure,hit,2.9791419506073,NA
195,63xnq5!,False,180,2,unequal,STb_8_a1,P != T1?,Same,0,1,None,180,0.86,180,1.02,180,0.94,No,quiteSure,cr,1.06514573097229,NA
196,63xnq5!,False,181,2,unequal,ST1_high_2_a2,P != T2?,Same,1,2,high,112,1.17,82,1.38,112,1.05,No,quiteSure,miss,1.6786749362945557,NA
197,63xnq5!,False,182,2,unequal,ST1_high_2_a1,P != T2?,Same,1,1,high,112,0.92,82,1.44,112,0.99,Yes,quiteSure,hit,2.3255879878997803,NA
198,63xnq5!,False,183,2,unequal,ST1_low_2_a2,P != T2?,Same,1,2,low,132,0.9,82,1.45,132,0.98,No,quiteSure,miss,1.363947868347168,NA
199,63xnq5!,False,184,2,unequal,ST2_high_5_a2,P != T1?,Same,2,2,high,96,1.33,132,0.92,132,0.92,Yes,quiteSure,hit,2.371220350265503,NA
200,63xnq5!,False,185,2,unequal,DT2_low_4_a1,P != T2?,Different,2,1,low,112,1.14,70,1.69,60,1.6,No,quiteSure,cr,9.417060852050781,NA
201,63xnq5!,False,186,2,unequal,ST1_high_2_a1,P != T2?,Same,1,1,high,112,1.07,82,1.44,112,1.15,Yes,quiteSure,hit,3.7254300117492676,NA
202,63xnq5!,False,187,2,unequal,STb_2_a2,P != T2?,Same,0,2,None,70,1.49,70,1.45,70,1.47,No,quiteSure,cr,0.5244579315185547,NA
203,63xnq5!,False,188,2,unequal,ST2_low_5_a1,P != T1?,Same,2,1,low,96,1.39,154,0.74,154,0.93,No,quiteSure,miss,1.1490790843963623,NA
204,63xnq5!,False,189,2,unequal,ST2_high_3_a2,P != T2?,Same,2,2,high,70,1.61,96,1.24,96,1.32,No,quiteSure,cr,0.6996450424194336,NA
205,63xnq5!,False,190,2,unequal,ST2_low_2_a2,P != T2?,Same,2,2,low,132,1.0,82,1.45,82,1.24,No,quiteSure,cr,2.944882869720459,NA
206,63xnq5!,False,191,2,unequal,ST2_low_4_a1,P != T1?,Same,2,1,low,112,0.97,70,1.78,70,1.58,Yes,quiteSure,hit,2.6239020824432373,NA
207,63xnq5!,False,192,2,unequal,ST2_high_6_a1,P != T1?,Same,2,1,high,132,0.8,96,1.43,96,1.31,Yes,quiteSure,hit,2.2608258724212646,NA
208,63xnq5!,False,193,2,unequal,ST1_high_6_a2,P != T2?,Same,1,2,high,132,0.96,96,1.21,132,0.96,No,unsure,miss,3.8578619956970215,NA
209,63xnq5!,False,194,2,unequal,ST2_low_4_a1,P != T1?,Same,2,1,low,112,1.09,70,1.83,70,1.81,No,unsure,miss,1.6724040508270264,NA
210,63xnq5!,False,195,2,unequal,ST2_low_1_a1,P != T2?,Same,2,1,low,82,1.23,132,0.95,132,0.92,No,quiteSure,cr,2.0626919269561768,NA
211,63xnq5!,False,196,2,unequal,ST2_low_4_a2,P != T2?,Same,2,2,low,112,0.93,70,1.39,70,1.7,No,quiteSure,cr,11.760009050369263,NA
212,63xnq5!,False,197,2,unequal,ST2_low_1_a1,P != T1?,Same,2,1,low,82,1.42,132,0.91,132,1.05,No,quiteSure,miss,1.9309277534484863,NA
213,63xnq5!,False,198,2,unequal,ST1_high_5_a2,P != T1?,Same,1,2,high,96,1.19,132,0.88,96,1.34,No,quiteSure,cr,4.959952116012573,NA
214,63xnq5!,False,199,2,unequal,ST2_low_3_a1,P != T1?,Same,2,1,low,70,1.83,112,1.1,112,0.99,Yes,unsure,hit,1.9925987720489502,NA
215,63xnq5!,False,200,2,unequal,ST2_low_5_a1,P != T2?,Same,2,1,low,96,1.25,154,0.88,154,0.83,No,quiteSure,cr,1.6736361980438232,NA
216,63xnq5!,False,201,2,unequal,ST1_high_4_a1,P != T1?,Same,1,1,high,96,1.37,70,1.69,96,1.12,No,quiteSure,cr,2.8705010414123535,NA
217,63xnq5!,False,202,2,unequal,ST2_low_3_a2,P != T1?,Same,2,2,low,70,1.46,112,0.99,112,1.14,Yes,quiteSure,hit,1.5442330837249756,NA
218,63xnq5!,False,203,2,unequal,ST1_low_3_a1,P != T1?,Same,1,1,low,70,1.59,112,1.06,70,1.65,No,quiteSure,cr,2.3838112354278564,NA
219,63xnq5!,False,204,2,unequal,ST2_high_5_a1,P != T1?,Same,2,1,high,96,1.38,132,0.88,132,0.79,No,quiteSure,miss,6.782137870788574,NA
220,63xnq5!,False,205,2,unequal,ST1_low_1_a2,P != T2?,Same,1,2,low,82,1.39,132,0.81,82,1.38,No,quiteSure,miss,1.7209420204162598,NA
221,63xnq5!,False,206,2,unequal,ST2_low_6_a2,P != T2?,Same,2,2,low,154,0.72,96,1.12,96,1.31,No,quiteSure,cr,1.5629441738128662,NA
222,63xnq5!,False,207,2,unequal,ST1_low_4_a1,P != T2?,Same,1,1,low,112,1.04,70,1.67,112,1.02,Yes,unsure,hit,1.6996562480926514,NA
223,63xnq5!,False,208,2,unequal,ST1_low_2_a1,P != T2?,Same,1,1,low,132,0.89,82,1.25,132,1.0,No,quiteSure,miss,1.6275489330291748,NA
224,63xnq5!,False,209,2,unequal,ST1_low_6_a1,P != T2?,Same,1,1,low,154,0.81,96,1.37,154,0.81,Yes,quiteSure,hit,3.7227892875671387,NA
225,63xnq5!,False,210,2,unequal,ST2_low_2_a1,P != T2?,Same,2,1,low,132,0.9,82,1.48,82,1.51,No,quiteSure,cr,2.4169540405273438,NA
226,63xnq5!,False,211,2,unequal,ST2_low_3_a1,P != T2?,Same,2,1,low,70,1.67,112,1.01,112,1.12,No,quiteSure,cr,2.1690101623535156,NA
227,63xnq5!,False,212,2,unequal,ST2_low_5_a1,P != T1?,Same,2,1,low,96,1.4,154,0.73,154,0.76,No,quiteSure,miss,2.0568020343780518,NA
228,63xnq5!,False,213,2,unequal,ST2_low_2_a2,P != T1?,Same,2,2,low,132,0.95,82,1.42,82,1.54,Yes,quiteSure,hit,1.4014430046081543,NA
229,63xnq5!,False,214,2,unequal,ST1_high_1_a1,P != T1?,Same,1,1,high,82,1.36,112,0.96,82,1.35,No,quiteSure,cr,2.373997926712036,NA
230,63xnq5!,False,215,2,unequal,ST1_high_5_a1,P != T1?,Same,1,1,high,96,1.34,132,0.8,96,1.21,No,quiteSure,cr,6.7839391231536865,NA
231,63xnq5!,False,216,2,unequal,ST1_low_6_a2,P != T2?,Same,1,2,low,154,0.84,96,1.19,154,0.88,No,unsure,miss,2.8460919857025146,NA
232,63xnq5!,False,217,2,unequal,STb_1_a2,P != T1?,Same,0,2,None,60,1.85,60,1.83,60,1.65,No,quiteSure,cr,1.6991679668426514,NA
233,63xnq5!,False,218,2,unequal,ST2_low_3_a2,P != T2?,Same,2,2,low,70,1.61,112,1.02,112,1.14,Yes,unsure,fa,3.2105159759521484,NA
234,63xnq5!,False,219,2,unequal,ST1_low_2_a1,P != T1?,Same,1,1,low,132,0.96,82,1.22,132,1.03,No,quiteSure,cr,2.5500452518463135,NA
235,63xnq5!,False,220,2,unequal,ST2_low_6_a1,P != T2?,Same,2,1,low,154,0.82,96,1.19,96,1.22,No,quiteSure,cr,2.0919177532196045,NA
236,63xnq5!,False,221,2,unequal,ST1_low_2_a2,P != T1?,Same,1,2,low,132,0.87,82,1.28,132,0.8,Yes,quiteSure,fa,3.3664252758026123,NA
237,63xnq5!,False,222,2,unequal,ST2_high_1_a2,P != T1?,Same,2,2,high,82,1.41,112,0.98,112,1.09,No,quiteSure,miss,1.880720853805542,NA
238,63xnq5!,False,223,2,unequal,ST1_low_6_a2,P != T1?,Same,1,2,low,154,0.8,96,1.21,154,0.74,No,quiteSure,cr,1.6561758518218994,NA
239,63xnq5!,False,224,2,unequal,ST2_high_5_a2,P != T1?,Same,2,2,high,96,1.37,132,0.98,132,1.03,Yes,quiteSure,hit,1.719789743423462,NA
240,63xnq5!,False,225,2,unequal,ST1_low_1_a1,P != T1?,Same,1,1,low,82,1.44,132,0.87,82,1.39,No,quiteSure,cr,1.7443811893463135,NA
241,63xnq5!,False,226,2,unequal,ST1_high_4_a1,P != T2?,Same,1,1,high,96,1.08,70,1.39,96,1.12,No,quiteSure,miss,5.94919490814209,NA
242,63xnq5!,False,227,2,unequal,ST1_low_1_a1,P != T1?,Same,1,1,low,82,1.47,132,0.92,82,1.64,Yes,quiteSure,fa,2.045896053314209,NA
243,63xnq5!,False,228,2,unequal,STb_8_a1,P != T2?,Same,0,1,None,180,0.9,180,0.81,180,0.92,No,quiteSure,cr,1.4535958766937256,NA
244,63xnq5!,False,229,2,unequal,ST1_high_5_a1,P != T1?,Same,1,1,high,96,1.22,132,0.86,96,1.31,Yes,quiteSure,fa,1.3134870529174805,NA
245,63xnq5!,False,230,2,unequal,ST2_high_3_a2,P != T2?,Same,2,2,high,70,1.67,96,1.34,96,1.31,No,quiteSure,cr,1.3823461532592773,NA
246,63xnq5!,False,231,2,unequal,ST1_high_2_a2,P != T1?,Same,1,2,high,112,1.16,82,1.22,112,1.06,Yes,quiteSure,fa,0.9298090934753418,NA
247,63xnq5!,False,232,2,unequal,ST2_high_3_a1,P != T1?,Same,2,1,high,70,1.76,96,1.3,96,1.23,Yes,quiteSure,hit,1.12847900390625,NA
248,63xnq5!,False,233,2,unequal,ST2_low_5_a2,P != T1?,Same,2,2,low,96,1.18,154,0.93,154,0.94,Yes,quiteSure,hit,1.3176109790802002,NA
249,63xnq5!,False,234,2,unequal,ST1_high_5_a2,P != T2?,Same,1,2,high,96,1.27,132,0.89,96,1.42,No,quiteSure,miss,2.5318946838378906,NA
250,63xnq5!,False,235,2,unequal,ST2_high_5_a1,P != T2?,Same,2,1,high,96,1.08,132,0.8,132,0.88,No,quiteSure,cr,1.8776109218597412,NA
251,63xnq5!,False,236,2,unequal,ST2_high_5_a2,P != T1?,Same,2,2,high,96,1.2,132,1.05,132,0.82,No,quiteSure,miss,1.9239280223846436,NA
252,63xnq5!,False,237,2,unequal,ST1_high_2_a2,P != T1?,Same,1,2,high,112,0.94,82,1.51,112,0.94,No,quiteSure,cr,0.3934459686279297,NA
253,63xnq5!,False,238,2,unequal,ST1_high_6_a1,P != T1?,Same,1,1,high,132,0.83,96,1.27,132,1.03,No,quiteSure,cr,1.585664987564087,NA
254,63xnq5!,False,239,2,unequal,ST2_high_1_a1,P != T2?,Same,2,1,high,82,1.34,112,1.04,112,1.1,No,quiteSure,cr,2.10280179977417,NA
255,63xnq5!,False,240,2,unequal,ST1_high_1_a1,P != T2?,Same,1,1,high,82,1.49,112,0.96,82,1.47,Yes,quiteSure,hit,1.6333670616149902,NA
256,63xnq5!,False,241,2,unequal,ST1_low_5_a2,P != T1?,Same,1,2,low,96,1.18,154,0.83,96,1.23,No,unsure,cr,2.7766709327697754,NA
257,63xnq5!,False,242,2,unequal,ST1_high_5_a2,P != T1?,Same,1,2,high,96,1.29,132,0.93,96,1.18,Yes,unsure,fa,2.986116886138916,NA
258,63xnq5!,False,243,2,unequal,ST1_low_1_a2,P != T2?,Same,1,2,low,82,1.64,132,1.02,82,1.45,No,unsure,miss,1.664335012435913,NA
259,63xnq5!,False,244,2,unequal,ST2_low_4_a1,P != T2?,Same,2,1,low,112,1.1,70,1.67,70,1.76,Yes,unsure,fa,2.305968761444092,NA
260,63xnq5!,False,245,2,unequal,ST1_high_6_a2,P != T1?,Same,1,2,high,132,0.96,96,1.41,132,0.96,No,unsure,cr,2.2407500743865967,NA
261,63xnq5!,False,246,2,unequal,ST1_high_1_a1,P != T1?,Same,1,1,high,82,1.44,112,1.1,82,1.35,No,quiteSure,cr,1.8699290752410889,NA
262,63xnq5!,False,247,2,unequal,ST2_low_3_a1,P != T1?,Same,2,1,low,70,1.6,112,1.09,112,1.18,Yes,sure,hit,3.9035208225250244,NA
263,63xnq5!,False,248,2,unequal,ST2_low_6_a2,P != T1?,Same,2,2,low,154,0.74,96,1.2,96,1.36,Yes,quiteSure,hit,3.367568254470825,NA
264,63xnq5!,False,249,2,unequal,ST1_high_6_a1,P != T1?,Same,1,1,high,132,1.05,96,1.18,132,0.92,Yes,quiteSure,fa,5.500085830688477,NA
265,63xnq5!,False,250,2,unequal,ST1_high_6_a2,P != T2?,Same,1,2,high,132,0.94,96,1.14,132,0.9,No,unsure,miss,2.2187352180480957,NA
266,63xnq5!,False,251,2,unequal,ST2_low_2_a1,P != T1?,Same,2,1,low,132,0.93,82,1.55,82,1.58,Yes,quiteSure,hit,3.0220561027526855,NA
267,63xnq5!,False,252,2,unequal,ST2_high_6_a2,P != T2?,Same,2,2,high,132,0.98,96,1.38,96,1.22,No,quiteSure,cr,4.5474488735198975,NA
268,63xnq5!,False,253,2,unequal,ST1_low_3_a2,P != T1?,Same,1,2,low,70,1.43,112,0.97,70,1.6,No,unsure,cr,3.0732781887054443,NA
269,63xnq5!,False,254,2,unequal,ST1_high_3_a1,P != T1?,Same,1,1,high,70,1.56,96,1.07,70,1.53,No,quiteSure,cr,4.4416823387146,NA
270,63xnq5!,False,255,2,unequal,ST1_high_5_a1,P != T2?,Same,1,1,high,96,1.26,132,0.85,96,1.29,No,quiteSure,miss,1.6534171104431152,NA
271,63xnq5!,False,256,2,unequal,ST2_high_6_a1,P != T2?,Same,2,1,high,132,0.84,96,1.41,96,1.19,No,unsure,cr,1.7475242614746094,NA
272,63xnq5!,False,257,2,unequal,ST2_high_4_a1,P != T2?,Same,2,1,high,96,1.06,70,1.8,70,1.61,Yes,unsure,fa,1.8369529247283936,NA
273,63xnq5!,False,258,2,unequal,ST1_high_4_a2,P != T2?,Same,1,2,high,96,1.27,70,1.5,96,1.14,No,quiteSure,miss,2.389909029006958,NA
274,63xnq5!,False,259,2,unequal,ST2_low_4_a2,P != T1?,Same,2,2,low,112,1.06,70,1.55,70,1.58,Yes,quiteSure,hit,1.6390588283538818,NA
275,63xnq5!,False,260,2,unequal,ST1_low_2_a1,P != T2?,Same,1,1,low,132,0.9,82,1.54,132,0.92,No,quiteSure,miss,1.4019169807434082,NA
276,63xnq5!,False,261,2,unequal,ST1_high_3_a2,P != T1?,Same,1,2,high,70,1.39,96,1.14,70,1.49,Yes,unsure,fa,1.4961111545562744,NA
277,63xnq5!,False,262,2,unequal,ST1_low_4_a2,P != T1?,Same,1,2,low,112,1.1,70,1.73,112,1.1,Yes,unsure,fa,2.866173028945923,NA
278,63xnq5!,False,263,2,unequal,ST1_low_4_a2,P != T2?,Same,1,2,low,112,1.22,70,1.51,112,0.98,Yes,unsure,hit,2.037341356277466,NA
279,63xnq5!,False,264,2,unequal,ST2_low_6_a2,P != T1?,Same,2,2,low,154,0.73,96,1.09,96,1.42,Yes,unsure,hit,2.418440818786621,NA
280,63xnq5!,False,265,2,unequal,ST1_low_6_a1,P != T2?,Same,1,1,low,154,0.8,96,1.22,154,0.89,Yes,unsure,hit,1.5873279571533203,NA
281,63xnq5!,False,266,2,unequal,ST1_high_2_a1,P != T1?,Same,1,1,high,112,1.22,82,1.38,112,1.04,Yes,unsure,fa,2.846261978149414,NA
282,63xnq5!,False,267,2,unequal,ST1_low_2_a1,P != T1?,Same,1,1,low,132,0.88,82,1.42,132,0.84,No,quiteSure,cr,2.509021043777466,NA
283,63xnq5!,False,268,2,unequal,ST1_high_4_a2,P != T2?,Same,1,2,high,96,1.22,70,1.83,96,1.38,Yes,unsure,hit,2.210875988006592,NA
284,63xnq5!,False,269,2,unequal,ST2_low_4_a2,P != T2?,Same,2,2,low,112,0.99,70,1.51,70,1.8,No,quiteSure,cr,2.1586110591888428,NA
285,63xnq5!,False,270,2,unequal,ST2_high_6_a1,P != T1?,Same,2,1,high,132,0.84,96,1.23,96,1.09,No,quiteSure,miss,1.9495327472686768,NA
286,63xnq5!,False,271,2,unequal,ST1_low_3_a1,P != T2?,Same,1,1,low,70,1.85,112,0.92,70,1.85,Yes,unsure,hit,2.059988021850586,NA
287,63xnq5!,False,272,2,unequal,ST1_high_5_a2,P != T2?,Same,1,2,high,96,1.08,132,1.03,96,1.14,No,quiteSure,miss,1.0020790100097656,NA
288,63xnq5!,False,273,2,unequal,ST1_high_1_a1,P != T1?,Same,1,1,high,82,1.63,112,0.99,82,1.5,Yes,unsure,fa,1.5186951160430908,NA
289,63xnq5!,False,274,2,unequal,ST1_high_2_a1,P != T1?,Same,1,1,high,112,0.99,82,1.48,112,1.12,No,quiteSure,cr,1.1203241348266602,NA
290,63xnq5!,False,275,2,unequal,ST2_high_6_a2,P != T1?,Same,2,2,high,132,0.98,96,1.06,96,1.25,Yes,quiteSure,hit,2.6108689308166504,NA
291,63xnq5!,False,276,2,unequal,ST1_low_4_a2,P != T1?,Same,1,2,low,112,1.06,70,1.68,112,1.06,No,quiteSure,cr,3.2746050357818604,NA
292,63xnq5!,False,277,2,unequal,STb_5_a2,P != T2?,Same,0,2,None,112,1.2,112,0.99,112,1.1,No,quiteSure,cr,8.246540069580078,NA
293,63xnq5!,False,278,2,unequal,ST1_high_6_a2,P != T1?,Same,1,2,high,132,0.96,96,1.41,132,1.2,Yes,quiteSure,fa,1.5838639736175537,NA
294,63xnq5!,False,279,2,unequal,ST2_high_4_a2,P != T2?,Same,2,2,high,96,1.27,70,1.75,70,1.83,No,quiteSure,cr,1.2845408916473389,NA
295,63xnq5!,False,280,2,unequal,ST2_low_3_a1,P != T2?,Same,2,1,low,70,1.55,112,1.11,112,1.12,No,unsure,cr,1.2015118598937988,NA
296,63xnq5!,False,281,2,unequal,ST1_low_5_a1,P != T1?,Same,1,1,low,96,1.23,154,0.88,96,1.33,Yes,unsure,fa,5.342518091201782,NA
297,63xnq5!,False,282,2,unequal,ST2_low_6_a1,P != T2?,Same,2,1,low,154,0.72,96,1.21,96,1.37,No,quiteSure,cr,1.581789255142212,NA
298,63xnq5!,False,283,2,unequal,ST2_high_2_a2,P != T1?,Same,2,2,high,112,0.98,82,1.45,82,1.54,Yes,quiteSure,hit,1.760673999786377,NA
299,63xnq5!,False,284,2,unequal,ST1_low_2_a1,P != T1?,Same,1,1,low,132,0.98,82,1.46,132,1.06,No,quiteSure,cr,3.9256820678710938,NA
300,63xnq5!,False,285,2,unequal,ST2_high_1_a2,P != T1?,Same,2,2,high,82,1.57,112,1.14,112,1.21,No,quiteSure,miss,1.4278838634490967,NA
301,63xnq5!,False,286,2,unequal,ST2_high_2_a2,P != T1?,Same,2,2,high,112,1.0,82,1.46,82,1.35,Yes,quiteSure,hit,3.7230868339538574,NA
302,63xnq5!,False,287,2,unequal,ST2_low_2_a2,P != T2?,Same,2,2,low,132,0.94,82,1.44,82,1.35,No,quiteSure,cr,2.015749931335449,NA
303,63xnq5!,False,288,2,unequal,ST1_low_4_a2,P != T1?,Same,1,2,low,112,1.15,70,1.74,112,0.95,No,quiteSure,cr,6.51409387588501,NA
304,63xnq5!,False,289,2,unequal,ST1_low_4_a2,P != T2?,Same,1,2,low,112,0.99,70,1.52,112,1.11,Yes,quiteSure,hit,5.187179088592529,NA
305,63xnq5!,False,290,2,unequal,ST2_high_2_a1,P != T2?,Same,2,1,high,112,1.13,82,1.22,82,1.45,No,quiteSure,cr,7.825789928436279,NA
306,63xnq5!,False,291,2,unequal,ST1_high_6_a2,P != T1?,Same,1,2,high,132,1.01,96,1.13,132,0.87,No,quiteSure,cr,2.0119800567626953,NA
307,63xnq5!,False,292,2,unequal,ST2_low_2_a1,P != T1?,Same,2,1,low,132,0.79,82,1.47,82,1.34,No,quiteSure,miss,0.5951831340789795,NA
308,63xnq5!,False,293,2,unequal,ST1_high_4_a1,P != T1?,Same,1,1,high,96,1.18,70,1.41,96,1.42,No,quiteSure,cr,2.4623680114746094,NA
309,63xnq5!,False,294,2,unequal,ST2_low_6_a1,P != T2?,Same,2,1,low,154,0.86,96,1.34,96,1.36,No,quiteSure,cr,0.3236711025238037,NA
310,63xnq5!,False,295,2,unequal,ST2_low_2_a1,P != T2?,Same,2,1,low,132,0.88,82,1.26,82,1.36,Yes,quiteSure,fa,1.246380090713501,NA
311,63xnq5!,False,296,2,unequal,STb_2_a2,P != T1?,Same,0,2,None,70,1.49,70,1.68,70,1.73,No,quiteSure,cr,1.576603889465332,NA
312,63xnq5!,False,297,2,unequal,ST1_low_5_a1,P != T2?,Same,1,1,low,96,1.17,154,0.95,96,1.35,Yes,quiteSure,hit,1.0463981628417969,NA
313,63xnq5!,False,298,2,unequal,ST2_high_6_a2,P != T2?,Same,2,2,high,132,1.0,96,1.14,96,1.26,No,unsure,cr,1.404876708984375,NA
314,63xnq5!,False,299,2,unequal,ST1_low_1_a1,P != T2?,Same,1,1,low,82,1.48,132,0.91,82,1.27,No,unsure,miss,2.4417951107025146,NA
315,63xnq5!,False,300,2,unequal,ST2_high_5_a2,P != T2?,Same,2,2,high,96,1.24,132,0.79,132,0.81,No,quiteSure,cr,1.2505149841308594,NA
316,63xnq5!,False,301,2,unequal,ST1_high_2_a1,P != T2?,Same,1,1,high,112,1.06,82,1.53,112,1.09,No,unsure,miss,2.802166223526001,NA
317,63xnq5!,False,302,2,unequal,ST2_high_3_a1,P != T2?,Same,2,1,high,70,1.58,96,1.43,96,1.33,No,unsure,cr,2.3083152770996094,NA
318,63xnq5!,False,303,2,unequal,ST1_high_3_a1,P != T2?,Same,1,1,high,70,1.5,96,1.13,70,1.76,Yes,unsure,hit,1.8358662128448486,NA
319,63xnq5!,False,304,2,unequal,ST2_low_5_a2,P != T2?,Same,2,2,low,96,1.28,154,0.88,154,0.73,No,unsure,cr,1.5390069484710693,NA
320,63xnq5!,False,305,2,unequal,ST2_high_2_a1,P != T2?,Same,2,1,high,112,1.0,82,1.45,82,1.34,Yes,unsure,fa,1.7436530590057373,NA
321,63xnq5!,False,306,2,unequal,DT1_high_4_a1,P != T1?,Different,1,1,high,96,1.13,70,1.55,112,0.97,No,unsure,cr,2.53322696685791,NA
322,63xnq5!,False,307,2,unequal,ST1_low_5_a1,P != T1?,Same,1,1,low,96,1.34,154,0.81,96,1.1,Yes,unsure,fa,2.2596380710601807,NA
323,63xnq5!,False,308,2,unequal,ST2_high_1_a1,P != T2?,Same,2,1,high,82,1.55,112,0.92,112,1.01,No,quiteSure,cr,2.5804879665374756,NA
324,63xnq5!,False,309,2,unequal,ST2_high_5_a1,P != T1?,Same,2,1,high,96,1.16,132,0.9,132,0.84,Yes,quiteSure,hit,2.0137670040130615,NA
325,63xnq5!,False,310,2,unequal,ST2_low_1_a1,P != T1?,Same,2,1,low,82,1.44,132,0.98,132,1.05,Yes,unsure,hit,4.150668144226074,NA
326,63xnq5!,False,311,2,unequal,ST1_low_2_a2,P != T1?,Same,1,2,low,132,0.87,82,1.32,132,0.91,No,quiteSure,cr,1.3819289207458496,NA
327,63xnq5!,False,312,2,unequal,ST1_high_3_a1,P != T1?,Same,1,1,high,70,1.39,96,1.19,70,1.85,Yes,quiteSure,fa,1.3806300163269043,NA
328,63xnq5!,False,313,2,unequal,ST2_high_2_a1,P != T1?,Same,2,1,high,112,1.12,82,1.61,82,1.37,No,unsure,miss,3.8853039741516113,NA
329,63xnq5!,False,314,2,unequal,ST2_high_3_a2,P != T1?,Same,2,2,high,70,1.63,96,1.37,96,1.37,Yes,unsure,hit,3.0694830417633057,NA
330,63xnq5!,False,315,2,unequal,ST1_high_1_a2,P != T2?,Same,1,2,high,82,1.26,112,1.03,82,1.63,No,unsure,miss,2.4335708618164062,NA
331,63xnq5!,False,316,2,unequal,ST2_high_5_a1,P != T1?,Same,2,1,high,96,1.17,132,0.84,132,1.04,Yes,unsure,hit,1.7454121112823486,NA
332,63xnq5!,False,317,2,unequal,ST2_high_3_a1,P != T1?,Same,2,1,high,70,1.74,96,1.27,96,1.33,Yes,unsure,hit,1.699110984802246,NA
333,63xnq5!,False,318,2,unequal,ST1_low_3_a1,P != T1?,Same,1,1,low,70,1.55,112,1.12,70,1.72,No,unsure,cr,2.3020379543304443,NA
334,63xnq5!,False,319,2,unequal,ST2_low_6_a2,P != T2?,Same,2,2,low,154,0.87,96,1.29,96,1.3,No,unsure,cr,1.8352429866790771,NA
335,63xnq5!,False,320,2,unequal,ST1_low_5_a2,P != T1?,Same,1,2,low,96,1.14,154,0.91,96,1.23,No,unsure,cr,2.5093839168548584,0.5
