,pcode,practice,trial,block,questionType,condition,question,PTS,TargetPosition,AccessoryPosition,TNS,T1_hz,T1_amp,T2_hz,T2_amp,P_hz,P_amp,response_dicho,response_rating,response_sdt,rt,P_correct
0,l29up!1,True,1,1,equal,STb_4_a2,P = T2?,Same,0,2,None,96,1.14,96,1.2,96,1.24,Yes,quiteSure,hit,3.7565109729766846,NA
1,l29up!1,True,2,1,equal,DT2_low_5_a2,P = T2?,Different,2,2,low,96,1.61,154,0.76,180,0.81,No,sure,miss,3.4408280849456787,NA
2,l29up!1,True,3,1,equal,ST2_low_4_a1,P = T2?,Same,2,1,low,112,1.33,70,1.56,70,2.0,Yes,sure,hit,1.9763588905334473,NA
3,l29up!1,True,4,1,equal,DT1_high_4_a1,P = T2?,Different,1,1,high,96,1.18,70,1.6,112,0.93,No,quiteSure,cr,3.375098943710327,NA
4,l29up!1,True,5,1,equal,ST1_high_6_a1,P = T1?,Same,1,1,high,132,0.79,96,1.51,132,0.76,Yes,sure,hit,1.3759558200836182,NA
5,l29up!1,True,6,1,equal,DT1_low_2_a1,P = T1?,Different,1,1,low,132,0.82,82,1.26,154,0.93,Yes,sure,hit,1.2585878372192383,NA
6,l29up!1,True,7,1,equal,DT1_high_2_a1,P = T1?,Different,1,1,high,112,0.95,82,1.35,132,1.09,Yes,quiteSure,hit,1.1458642482757568,NA
7,l29up!1,True,8,1,equal,ST1_low_1_a2,P = T1?,Same,1,2,low,82,1.29,132,1.11,82,1.2,Yes,sure,hit,1.0579628944396973,NA
8,l29up!1,True,9,1,equal,STb_5_a2,P = T1?,Same,0,2,None,112,0.97,112,1.02,112,1.11,Yes,quiteSure,hit,1.3717539310455322,NA
9,l29up!1,True,10,1,equal,ST2_low_6_a2,P = T2?,Same,2,2,low,154,0.76,96,1.23,96,1.24,Yes,sure,hit,1.1227178573608398,NA
10,l29up!1,True,11,1,equal,STb_3_a2,P = T1?,Same,0,2,None,82,1.62,82,1.48,82,1.34,Yes,quiteSure,hit,0.7671740055084229,NA
11,l29up!1,True,12,1,equal,ST1_low_6_a1,P = T2?,Same,1,1,low,154,1.09,96,1.28,154,0.98,No,sure,cr,2.4075682163238525,NA
12,l29up!1,True,13,1,equal,ST2_low_3_a1,P = T1?,Same,2,1,low,70,1.34,112,1.26,112,1.04,No,sure,cr,1.6385982036590576,NA
13,l29up!1,True,14,1,equal,ST2_high_5_a1,P = T1?,Same,2,1,high,96,1.37,132,0.81,132,1.03,No,sure,cr,1.931786060333252,NA
14,l29up!1,True,15,1,equal,STb_6_a2,P = T2?,Same,0,2,None,132,0.94,132,1.05,132,0.93,Yes,quiteSure,hit,1.2575652599334717,NA
15,l29up!1,True,16,1,equal,ST1_high_4_a2,P = T2?,Same,1,2,high,96,1.25,70,1.63,96,1.3,Yes,quiteSure,fa,1.4389348030090332,0.75
16,l29up!1,False,1,1,equal,ST2_high_1_a2,P = T1?,Same,2,2,high,82,1.28,112,1.09,112,0.96,Yes,quiteSure,fa,1.1061313152313232,NA
17,l29up!1,False,2,1,equal,DT2_high_6_a1,P = T2?,Different,2,1,high,132,0.84,96,1.06,82,1.5,No,quiteSure,miss,1.5744903087615967,NA
18,l29up!1,False,3,1,equal,ST2_high_4_a2,P = T2?,Same,2,2,high,96,1.37,70,1.55,70,1.53,Yes,sure,hit,1.2188191413879395,NA
19,l29up!1,False,4,1,equal,ST2_low_3_a1,P = T2?,Same,2,1,low,70,1.74,112,1.22,112,1.19,Yes,sure,hit,1.6652870178222656,NA
20,l29up!1,False,5,1,equal,DT2_high_2_a2,P = T2?,Different,2,2,high,112,1.03,82,1.39,70,1.83,Yes,sure,hit,1.3471879959106445,NA
21,l29up!1,False,6,1,equal,ST1_high_1_a1,P = T1?,Same,1,1,high,82,1.35,112,1.13,82,1.52,Yes,quiteSure,hit,1.4142208099365234,NA
22,l29up!1,False,7,1,equal,ST2_high_6_a1,P = T1?,Same,2,1,high,132,0.89,96,1.27,96,1.1,No,quiteSure,cr,2.0445821285247803,NA
23,l29up!1,False,8,1,equal,ST2_low_4_a1,P = T2?,Same,2,1,low,112,1.33,70,1.56,70,2.0,Yes,sure,hit,1.0768136978149414,NA
24,l29up!1,False,9,1,equal,ST2_low_6_a1,P = T1?,Same,2,1,low,154,0.75,96,1.24,96,1.16,No,sure,cr,2.7839531898498535,NA
25,l29up!1,False,10,1,equal,ST1_high_3_a1,P = T1?,Same,1,1,high,70,1.77,96,1.31,70,1.74,No,quiteSure,miss,1.7095229625701904,NA
26,l29up!1,False,11,1,equal,ST2_low_4_a2,P = T1?,Same,2,2,low,112,0.96,70,1.41,70,1.52,No,quiteSure,cr,1.8672547340393066,NA
27,l29up!1,False,12,1,equal,ST1_low_5_a1,P = T2?,Same,1,1,low,96,1.17,154,0.71,96,1.17,No,sure,cr,1.3724229335784912,NA
28,l29up!1,False,13,1,equal,ST1_low_6_a2,P = T1?,Same,1,2,low,154,0.77,96,1.08,154,0.82,Yes,unsure,hit,3.0784881114959717,NA
29,l29up!1,False,14,1,equal,ST2_low_2_a1,P = T1?,Same,2,1,low,132,0.89,82,1.52,82,1.49,No,sure,cr,4.003618001937866,NA
30,l29up!1,False,15,1,equal,ST2_high_3_a1,P = T1?,Same,2,1,high,70,1.8,96,1.33,96,1.27,No,sure,cr,1.7737700939178467,NA
31,l29up!1,False,16,1,equal,STb_1_a1,P = T2?,Same,0,1,None,60,1.62,60,2.02,60,1.69,Yes,sure,hit,1.1684949398040771,NA
32,l29up!1,False,17,1,equal,ST1_low_5_a1,P = T1?,Same,1,1,low,96,1.27,154,0.73,96,1.28,Yes,unsure,hit,1.2801928520202637,NA
33,l29up!1,False,18,1,equal,ST1_low_4_a2,P = T1?,Same,1,2,low,112,1.01,70,1.6,112,1.12,Yes,quiteSure,hit,0.9886891841888428,NA
34,l29up!1,False,19,1,equal,ST2_high_3_a1,P = T2?,Same,2,1,high,70,1.47,96,1.2,96,1.33,Yes,sure,hit,1.1909170150756836,NA
35,l29up!1,False,20,1,equal,ST2_high_6_a1,P = T1?,Same,2,1,high,132,1.04,96,1.33,96,1.17,No,sure,cr,1.348228931427002,NA
36,l29up!1,False,21,1,equal,ST1_high_5_a1,P = T2?,Same,1,1,high,96,1.08,132,0.83,96,1.41,Yes,sure,fa,1.0533339977264404,NA
37,l29up!1,False,22,1,equal,ST2_low_5_a1,P = T2?,Same,2,1,low,96,1.3,154,0.86,154,0.84,Yes,sure,hit,1.0531930923461914,NA
38,l29up!1,False,23,1,equal,ST2_low_3_a1,P = T1?,Same,2,1,low,70,1.34,112,1.26,112,1.04,No,sure,cr,1.5936880111694336,NA
39,l29up!1,False,24,1,equal,ST1_low_5_a2,P = T1?,Same,1,2,low,96,1.18,154,0.76,96,1.07,Yes,quiteSure,hit,0.9204370975494385,NA
40,l29up!1,False,25,1,equal,ST2_low_6_a2,P = T1?,Same,2,2,low,154,0.93,96,1.33,96,1.14,No,sure,cr,1.304914951324463,NA
41,l29up!1,False,26,1,equal,ST2_low_4_a1,P = T2?,Same,2,1,low,112,0.94,70,1.76,70,1.5,Yes,sure,hit,1.6422128677368164,NA
42,l29up!1,False,27,1,equal,ST1_high_5_a2,P = T2?,Same,1,2,high,96,1.34,132,0.95,96,1.4,No,sure,cr,1.2639212608337402,NA
43,l29up!1,False,28,1,equal,DT2_low_5_a2,P = T2?,Different,2,2,low,96,1.61,154,0.76,180,0.81,No,sure,miss,1.2185611724853516,NA
44,l29up!1,False,29,1,equal,ST2_high_4_a1,P = T2?,Same,2,1,high,96,1.32,70,1.81,70,1.55,Yes,quiteSure,hit,1.0565009117126465,NA
45,l29up!1,False,30,1,equal,ST2_low_4_a2,P = T1?,Same,2,2,low,112,1.08,70,1.72,70,1.6,No,sure,cr,1.4146559238433838,NA
46,l29up!1,False,31,1,equal,ST1_high_6_a2,P = T1?,Same,1,2,high,132,0.83,96,1.07,132,1.01,Yes,unsure,hit,1.735098123550415,NA
47,l29up!1,False,32,1,equal,ST1_high_4_a1,P = T2?,Same,1,1,high,96,1.17,70,1.54,96,1.22,Yes,unsure,fa,1.6410329341888428,NA
48,l29up!1,False,33,1,equal,ST1_low_1_a1,P = T2?,Same,1,1,low,82,1.47,132,0.9,82,1.59,No,sure,cr,1.417639970779419,NA
49,l29up!1,False,34,1,equal,ST1_high_3_a2,P = T2?,Same,1,2,high,70,1.56,96,1.23,70,1.75,Yes,quiteSure,fa,1.2542588710784912,NA
50,l29up!1,False,35,1,equal,DT2_low_4_a2,P = T1?,Different,2,2,low,112,1.11,70,1.46,60,1.85,No,sure,cr,1.3248927593231201,NA
51,l29up!1,False,36,1,equal,ST1_low_4_a1,P = T1?,Same,1,1,low,112,1.09,70,1.47,112,1.23,Yes,unsure,hit,1.1254057884216309,NA
52,l29up!1,False,37,1,equal,ST2_low_4_a1,P = T2?,Same,2,1,low,112,1.09,70,1.83,70,1.78,Yes,quiteSure,hit,1.1496481895446777,NA
53,l29up!1,False,38,1,equal,ST2_high_6_a2,P = T1?,Same,2,2,high,132,0.79,96,1.12,96,1.17,Yes,quiteSure,fa,1.1237711906433105,NA
54,l29up!1,False,39,1,equal,ST2_low_2_a2,P = T1?,Same,2,2,low,132,0.92,82,1.36,82,1.36,No,sure,cr,1.5047659873962402,NA
55,l29up!1,False,40,1,equal,ST1_high_2_a1,P = T2?,Same,1,1,high,112,1.09,82,1.63,112,1.11,No,sure,cr,1.052790641784668,NA
56,l29up!1,False,41,1,equal,ST2_low_1_a1,P = T2?,Same,2,1,low,82,1.48,132,0.8,132,0.93,No,sure,miss,1.0326662063598633,NA
57,l29up!1,False,42,1,equal,ST1_low_5_a1,P = T1?,Same,1,1,low,96,1.28,154,0.84,96,1.31,Yes,quiteSure,hit,1.1018481254577637,NA
58,l29up!1,False,43,1,equal,ST2_low_2_a2,P = T1?,Same,2,2,low,132,0.83,82,1.32,82,1.58,No,sure,cr,1.2596149444580078,NA
59,l29up!1,False,44,1,equal,STb_8_a1,P = T1?,Same,0,1,None,180,0.9,180,0.82,180,0.89,No,unsure,miss,3.1696319580078125,NA
60,l29up!1,False,45,1,equal,ST2_high_6_a2,P = T1?,Same,2,2,high,132,0.92,96,1.09,96,1.36,No,unsure,cr,4.279932975769043,NA
61,l29up!1,False,46,1,equal,ST2_low_6_a1,P = T1?,Same,2,1,low,154,0.83,96,1.15,96,1.42,No,quiteSure,cr,1.1669487953186035,NA
62,l29up!1,False,47,1,equal,ST1_high_6_a1,P = T1?,Same,1,1,high,132,0.79,96,1.51,132,0.76,Yes,quiteSure,hit,2.2047410011291504,NA
63,l29up!1,False,48,1,equal,STb_2_a2,P = T1?,Same,0,2,None,70,1.69,70,1.81,70,1.77,Yes,quiteSure,hit,1.2812039852142334,NA
64,l29up!1,False,49,1,equal,ST2_high_6_a2,P = T2?,Same,2,2,high,132,0.98,96,1.09,96,1.11,Yes,sure,hit,1.644021987915039,NA
65,l29up!1,False,50,1,equal,ST1_high_1_a2,P = T2?,Same,1,2,high,82,1.37,112,1.12,82,1.47,No,quiteSure,cr,1.2824831008911133,NA
66,l29up!1,False,51,1,equal,ST1_high_4_a1,P = T2?,Same,1,1,high,96,1.39,70,1.65,96,1.29,Yes,quiteSure,fa,1.0529990196228027,NA
67,l29up!1,False,52,1,equal,ST1_low_5_a2,P = T1?,Same,1,2,low,96,1.21,154,0.71,96,1.06,Yes,sure,hit,0.9011688232421875,NA
68,l29up!1,False,53,1,equal,ST1_high_1_a2,P = T1?,Same,1,2,high,82,1.23,112,0.98,82,1.27,Yes,sure,hit,1.0110681056976318,NA
69,l29up!1,False,54,1,equal,ST1_high_6_a2,P = T2?,Same,1,2,high,132,1.01,96,1.39,132,0.91,No,sure,cr,1.1220779418945312,NA
70,l29up!1,False,55,1,equal,ST2_high_1_a2,P = T2?,Same,2,2,high,82,1.36,112,1.04,112,1.02,Yes,sure,hit,0.9240529537200928,NA
71,l29up!1,False,56,1,equal,ST2_high_4_a1,P = T1?,Same,2,1,high,96,1.32,70,1.82,70,1.51,No,sure,cr,1.5271148681640625,NA
72,l29up!1,False,57,1,equal,ST1_low_3_a1,P = T2?,Same,1,1,low,70,1.48,112,1.08,70,1.52,No,sure,cr,1.1215240955352783,NA
73,l29up!1,False,58,1,equal,ST2_high_6_a1,P = T2?,Same,2,1,high,132,0.86,96,1.13,96,1.06,Yes,sure,hit,0.9648897647857666,NA
74,l29up!1,False,59,1,equal,STb_8_a2,P = T2?,Same,0,2,None,180,0.75,180,0.77,180,0.87,Yes,unsure,hit,2.6772947311401367,NA
75,l29up!1,False,60,1,equal,ST1_high_4_a2,P = T1?,Same,1,2,high,96,1.24,70,1.82,96,1.26,Yes,unsure,hit,1.1242871284484863,NA
76,l29up!1,False,61,1,equal,ST1_low_5_a1,P = T2?,Same,1,1,low,96,1.24,154,0.79,96,1.36,No,sure,cr,1.032292127609253,NA
77,l29up!1,False,62,1,equal,ST1_high_3_a1,P = T2?,Same,1,1,high,70,1.6,96,1.38,70,1.77,Yes,quiteSure,fa,1.325005054473877,NA
78,l29up!1,False,63,1,equal,ST1_high_2_a1,P = T2?,Same,1,1,high,112,1.19,82,1.36,112,1.06,Yes,quiteSure,fa,1.7564008235931396,NA
79,l29up!1,False,64,1,equal,ST1_low_1_a2,P = T2?,Same,1,2,low,82,1.53,132,0.93,82,1.43,No,sure,cr,1.0762879848480225,NA
80,l29up!1,False,65,1,equal,ST1_low_3_a1,P = T2?,Same,1,1,low,70,1.55,112,1.11,70,1.63,No,quiteSure,cr,2.1833531856536865,NA
81,l29up!1,False,66,1,equal,ST2_high_3_a2,P = T2?,Same,2,2,high,70,1.6,96,1.2,96,1.13,No,quiteSure,miss,1.7985539436340332,NA
82,l29up!1,False,67,1,equal,ST2_high_5_a1,P = T2?,Same,2,1,high,96,1.29,132,0.84,132,0.81,Yes,sure,hit,0.962852954864502,NA
83,l29up!1,False,68,1,equal,ST2_low_3_a2,P = T1?,Same,2,2,low,70,1.39,112,1.04,112,1.23,No,sure,cr,1.1456680297851562,NA
84,l29up!1,False,69,1,equal,ST1_high_1_a1,P = T2?,Same,1,1,high,82,1.46,112,1.22,82,1.55,No,sure,cr,1.102698802947998,NA
85,l29up!1,False,70,1,equal,DT2_low_1_a1,P = T2?,Different,2,1,low,82,1.48,132,0.99,154,0.78,Yes,quiteSure,hit,2.9899871349334717,NA
86,l29up!1,False,71,1,equal,ST1_low_5_a2,P = T2?,Same,1,2,low,96,1.32,154,0.82,96,1.42,No,sure,cr,1.2155520915985107,NA
87,l29up!1,False,72,1,equal,ST1_high_4_a2,P = T1?,Same,1,2,high,96,1.28,70,1.71,96,1.38,Yes,unsure,hit,2.1124868392944336,NA
88,l29up!1,False,73,1,equal,ST1_high_4_a2,P = T1?,Same,1,2,high,96,1.36,70,1.5,96,1.13,Yes,quiteSure,hit,2.001235008239746,NA
89,l29up!1,False,74,1,equal,STb_6_a1,P = T2?,Same,0,1,None,132,0.95,132,0.83,132,0.93,Yes,quiteSure,hit,2.050830841064453,NA
90,l29up!1,False,75,1,equal,DT1_low_6_a2,P = T1?,Different,1,2,low,154,0.94,96,1.27,180,0.78,Yes,quiteSure,hit,1.1224870681762695,NA
91,l29up!1,False,76,1,equal,ST1_high_2_a2,P = T1?,Same,1,2,high,112,0.96,82,1.62,112,0.94,Yes,quiteSure,hit,0.9652371406555176,NA
92,l29up!1,False,77,1,equal,ST2_low_6_a1,P = T2?,Same,2,1,low,154,0.77,96,1.3,96,1.09,Yes,quiteSure,hit,1.350153923034668,NA
93,l29up!1,False,78,1,equal,STb_4_a2,P = T1?,Same,0,2,None,96,1.14,96,1.33,96,1.22,No,sure,miss,1.4832420349121094,NA
94,l29up!1,False,79,1,equal,STb_4_a1,P = T1?,Same,0,1,None,96,1.42,96,1.32,96,1.34,Yes,quiteSure,hit,1.3040790557861328,NA
95,l29up!1,False,80,1,equal,DT1_low_3_a1,P = T2?,Different,1,1,low,70,1.55,112,1.2,60,1.9,No,sure,cr,1.056462049484253,NA
96,l29up!1,False,81,1,equal,DT1_high_2_a1,P = T1?,Different,1,1,high,112,0.95,82,1.35,132,1.09,Yes,quiteSure,hit,1.9558899402618408,NA
97,l29up!1,False,82,1,equal,ST2_high_5_a1,P = T1?,Same,2,1,high,96,1.24,132,1.02,132,0.86,No,sure,cr,2.608910083770752,NA
98,l29up!1,False,83,1,equal,ST1_low_3_a2,P = T2?,Same,1,2,low,70,1.4,112,1.03,70,1.73,No,sure,cr,1.1457412242889404,NA
99,l29up!1,False,84,1,equal,ST2_high_2_a1,P = T1?,Same,2,1,high,112,1.04,82,1.34,82,1.58,No,unsure,cr,1.5976769924163818,NA
100,l29up!1,False,85,1,equal,ST2_high_1_a2,P = T2?,Same,2,2,high,82,1.22,112,1.18,112,1.1,Yes,sure,hit,1.1455800533294678,NA
101,l29up!1,False,86,1,equal,ST1_low_4_a1,P = T1?,Same,1,1,low,112,0.97,70,1.82,112,0.92,Yes,quiteSure,hit,1.2816340923309326,NA
102,l29up!1,False,87,1,equal,ST2_high_4_a1,P = T1?,Same,2,1,high,96,1.11,70,1.81,70,1.61,No,sure,cr,1.9594509601593018,NA
103,l29up!1,False,88,1,equal,ST1_high_2_a2,P = T2?,Same,1,2,high,112,0.92,82,1.63,112,0.95,No,sure,cr,1.0566790103912354,NA
104,l29up!1,False,89,1,equal,ST2_high_3_a2,P = T1?,Same,2,2,high,70,1.48,96,1.07,96,1.29,No,sure,cr,1.235184669494629,NA
105,l29up!1,False,90,1,equal,ST1_low_6_a2,P = T2?,Same,1,2,low,154,0.9,96,1.32,154,0.81,No,sure,cr,1.0290260314941406,NA
106,l29up!1,False,91,1,equal,ST2_low_5_a1,P = T2?,Same,2,1,low,96,1.07,154,0.74,154,0.83,Yes,sure,hit,1.7572171688079834,NA
107,l29up!1,False,92,1,equal,ST2_high_4_a1,P = T1?,Same,2,1,high,96,1.16,70,1.52,70,1.66,No,sure,cr,1.3939871788024902,NA
108,l29up!1,False,93,1,equal,ST1_high_4_a1,P = T1?,Same,1,1,high,96,1.35,70,1.42,96,1.38,Yes,unsure,hit,1.9776561260223389,NA
109,l29up!1,False,94,1,equal,ST1_high_2_a1,P = T1?,Same,1,1,high,112,1.13,82,1.47,112,1.13,Yes,quiteSure,hit,1.1469082832336426,NA
110,l29up!1,False,95,1,equal,ST1_low_1_a2,P = T1?,Same,1,2,low,82,1.56,132,1.06,82,1.48,Yes,quiteSure,hit,0.9205560684204102,NA
111,l29up!1,False,96,1,equal,ST1_low_4_a2,P = T2?,Same,1,2,low,112,0.93,70,1.77,112,0.96,No,sure,cr,1.0789618492126465,NA
112,l29up!1,False,97,1,equal,ST1_high_4_a1,P = T1?,Same,1,1,high,96,1.24,70,1.38,96,1.09,Yes,unsure,hit,1.0115160942077637,NA
113,l29up!1,False,98,1,equal,ST2_low_2_a1,P = T1?,Same,2,1,low,132,0.93,82,1.43,82,1.29,No,sure,cr,1.1672511100769043,NA
114,l29up!1,False,99,1,equal,ST1_low_5_a2,P = T2?,Same,1,2,low,96,1.4,154,0.86,96,1.14,Yes,quiteSure,fa,1.4629278182983398,NA
115,l29up!1,False,100,1,equal,ST1_low_1_a2,P = T2?,Same,1,2,low,82,1.58,132,1.04,82,1.32,No,sure,cr,2.897946834564209,NA
116,l29up!1,False,101,1,equal,ST2_low_4_a2,P = T2?,Same,2,2,low,112,1.12,70,1.7,70,1.39,Yes,sure,hit,1.0083122253417969,NA
117,l29up!1,False,102,1,equal,ST1_low_6_a1,P = T2?,Same,1,1,low,154,1.09,96,1.28,154,0.98,No,sure,cr,0.9229810237884521,NA
118,l29up!1,False,103,1,equal,ST1_low_3_a2,P = T1?,Same,1,2,low,70,1.39,112,0.92,70,1.55,Yes,quiteSure,hit,1.1060528755187988,NA
119,l29up!1,False,104,1,equal,ST1_low_6_a1,P = T1?,Same,1,1,low,154,0.76,96,1.36,154,0.84,Yes,sure,hit,1.0546669960021973,NA
120,l29up!1,False,105,1,equal,ST2_low_5_a2,P = T1?,Same,2,2,low,96,1.07,154,0.76,154,0.74,No,sure,cr,1.2803761959075928,NA
121,l29up!1,False,106,1,equal,ST1_low_2_a2,P = T1?,Same,1,2,low,132,0.97,82,1.35,132,1.02,Yes,sure,hit,1.1648409366607666,NA
122,l29up!1,False,107,1,equal,STb_4_a2,P = T2?,Same,0,2,None,96,1.14,96,1.2,96,1.24,Yes,sure,hit,0.970980167388916,NA
123,l29up!1,False,108,1,equal,ST2_low_2_a1,P = T2?,Same,2,1,low,132,0.79,82,1.52,82,1.26,Yes,quiteSure,hit,1.0564708709716797,NA
124,l29up!1,False,109,1,equal,ST2_high_4_a2,P = T1?,Same,2,2,high,96,1.38,70,1.41,70,1.39,Yes,quiteSure,fa,1.282031774520874,NA
125,l29up!1,False,110,1,equal,ST1_low_6_a1,P = T1?,Same,1,1,low,154,0.79,96,1.09,154,0.9,Yes,quiteSure,hit,0.9429130554199219,NA
126,l29up!1,False,111,1,equal,ST1_low_4_a1,P = T2?,Same,1,1,low,112,0.95,70,1.77,112,0.92,No,sure,cr,1.3295519351959229,NA
127,l29up!1,False,112,1,equal,ST1_low_3_a2,P = T1?,Same,1,2,low,70,1.38,112,0.96,70,1.83,Yes,quiteSure,hit,1.5511248111724854,NA
128,l29up!1,False,113,1,equal,ST2_high_4_a2,P = T1?,Same,2,2,high,96,1.13,70,1.41,70,1.76,Yes,quiteSure,fa,1.1465022563934326,NA
129,l29up!1,False,114,1,equal,ST1_high_4_a1,P = T1?,Same,1,1,high,96,1.36,70,1.84,96,1.28,Yes,sure,hit,1.0354397296905518,NA
130,l29up!1,False,115,1,equal,ST1_high_1_a2,P = T1?,Same,1,2,high,82,1.42,112,1.19,82,1.33,Yes,sure,hit,0.8546040058135986,NA
131,l29up!1,False,116,1,equal,ST2_low_3_a2,P = T1?,Same,2,2,low,70,1.71,112,1.08,112,1.09,No,sure,cr,1.4818639755249023,NA
132,l29up!1,False,117,1,equal,ST2_high_2_a2,P = T1?,Same,2,2,high,112,1.24,82,1.58,82,1.35,No,sure,cr,1.1254198551177979,NA
133,l29up!1,False,118,1,equal,ST2_low_5_a2,P = T2?,Same,2,2,low,96,1.08,154,0.94,154,0.84,Yes,quiteSure,hit,2.095578193664551,NA
134,l29up!1,False,119,1,equal,ST2_low_3_a2,P = T1?,Same,2,2,low,70,1.79,112,0.92,112,0.93,No,sure,cr,1.0139319896697998,NA
135,l29up!1,False,120,1,equal,ST1_low_5_a2,P = T2?,Same,1,2,low,96,1.29,154,0.85,96,1.16,No,sure,cr,1.032127857208252,NA
136,l29up!1,False,121,1,equal,ST2_high_6_a1,P = T1?,Same,2,1,high,132,0.95,96,1.15,96,1.23,No,unsure,cr,2.406296968460083,NA
137,l29up!1,False,122,1,equal,ST1_low_5_a1,P = T1?,Same,1,1,low,96,1.16,154,0.73,96,1.15,Yes,quiteSure,hit,1.144273042678833,NA
138,l29up!1,False,123,1,equal,ST1_high_3_a2,P = T2?,Same,1,2,high,70,1.46,96,1.31,70,1.48,Yes,sure,fa,1.5498509407043457,NA
139,l29up!1,False,124,1,equal,ST2_high_3_a2,P = T1?,Same,2,2,high,70,1.75,96,1.09,96,1.23,No,unsure,cr,1.5037786960601807,NA
140,l29up!1,False,125,1,equal,ST1_low_5_a2,P = T1?,Same,1,2,low,96,1.42,154,0.78,96,1.18,Yes,unsure,hit,2.2727558612823486,NA
141,l29up!1,False,126,1,equal,ST1_low_2_a1,P = T2?,Same,1,1,low,132,1.02,82,1.39,132,0.98,No,sure,cr,1.0336530208587646,NA
142,l29up!1,False,127,1,equal,DT2_high_5_a2,P = T1?,Different,2,2,high,96,1.4,132,1.0,154,0.89,Yes,quiteSure,fa,3.450463056564331,NA
143,l29up!1,False,128,1,equal,ST2_low_1_a1,P = T2?,Same,2,1,low,82,1.23,132,0.96,132,0.8,Yes,quiteSure,hit,2.719559907913208,NA
144,l29up!1,False,129,1,equal,ST1_high_6_a2,P = T2?,Same,1,2,high,132,0.99,96,1.34,132,1.01,No,sure,cr,1.2149460315704346,NA
145,l29up!1,False,130,1,equal,ST2_high_5_a2,P = T1?,Same,2,2,high,96,1.33,132,0.97,132,1.01,Yes,unsure,fa,1.7949879169464111,NA
146,l29up!1,False,131,1,equal,STb_7_a2,P = T1?,Same,0,2,None,154,0.79,154,0.78,154,0.75,Yes,quiteSure,hit,1.0099492073059082,NA
147,l29up!1,False,132,1,equal,ST2_low_5_a2,P = T2?,Same,2,2,low,96,1.31,154,0.81,154,0.93,Yes,sure,hit,0.9874169826507568,NA
148,l29up!1,False,133,1,equal,ST1_low_3_a1,P = T1?,Same,1,1,low,70,1.66,112,0.94,70,1.53,Yes,sure,hit,0.9648876190185547,NA
149,l29up!1,False,134,1,equal,ST2_high_6_a1,P = T2?,Same,2,1,high,132,0.95,96,1.34,96,1.37,Yes,sure,hit,1.0580852031707764,NA
150,l29up!1,False,135,1,equal,ST2_low_2_a2,P = T2?,Same,2,2,low,132,0.83,82,1.41,82,1.33,Yes,quiteSure,hit,1.1243479251861572,NA
151,l29up!1,False,136,1,equal,ST2_low_3_a2,P = T2?,Same,2,2,low,70,1.52,112,1.19,112,1.2,Yes,sure,hit,1.1460461616516113,NA
152,l29up!1,False,137,1,equal,ST2_high_2_a2,P = T2?,Same,2,2,high,112,1.11,82,1.25,82,1.23,Yes,quiteSure,hit,1.033057689666748,NA
153,l29up!1,False,138,1,equal,DT1_high_6_a1,P = T2?,Different,1,1,high,132,0.84,96,1.36,154,0.83,No,sure,cr,1.150331735610962,NA
154,l29up!1,False,139,1,equal,ST1_high_2_a1,P = T1?,Same,1,1,high,112,1.14,82,1.26,112,1.15,No,unsure,miss,4.140143871307373,NA
155,l29up!1,False,140,1,equal,ST1_low_1_a2,P = T2?,Same,1,2,low,82,1.4,132,1.01,82,1.25,No,sure,cr,1.1917779445648193,NA
156,l29up!1,False,141,1,equal,ST2_low_5_a2,P = T1?,Same,2,2,low,96,1.1,154,0.86,154,0.76,Yes,unsure,fa,2.1630008220672607,NA
157,l29up!1,False,142,1,equal,ST2_high_1_a1,P = T2?,Same,2,1,high,82,1.21,112,1.18,112,0.92,Yes,quiteSure,hit,1.7113010883331299,NA
158,l29up!1,False,143,1,equal,ST1_high_6_a2,P = T1?,Same,1,2,high,132,0.95,96,1.38,132,0.91,Yes,sure,hit,1.0117671489715576,NA
159,l29up!1,False,144,1,equal,ST1_low_2_a1,P = T1?,Same,1,1,low,132,1.0,82,1.45,132,1.06,Yes,quiteSure,hit,0.943587064743042,NA
160,l29up!1,False,145,1,equal,ST1_low_2_a1,P = T1?,Same,1,1,low,132,0.97,82,1.63,132,0.9,Yes,quiteSure,hit,2.608654737472534,NA
161,l29up!1,False,146,1,equal,ST2_high_5_a1,P = T2?,Same,2,1,high,96,1.07,132,0.88,132,0.81,Yes,sure,hit,1.3922429084777832,NA
162,l29up!1,False,147,1,equal,ST1_low_3_a1,P = T2?,Same,1,1,low,70,1.38,112,1.1,70,1.47,No,sure,cr,1.1235809326171875,NA
163,l29up!1,False,148,1,equal,ST2_high_1_a1,P = T2?,Same,2,1,high,82,1.24,112,1.05,112,1.06,Yes,sure,hit,1.8466038703918457,NA
164,l29up!1,False,149,1,equal,ST2_high_1_a1,P = T2?,Same,2,1,high,82,1.35,112,1.09,112,1.18,Yes,sure,hit,1.3245699405670166,NA
165,l29up!1,False,150,1,equal,ST1_high_3_a2,P = T2?,Same,1,2,high,70,1.83,96,1.26,70,1.68,Yes,sure,fa,1.190458059310913,NA
166,l29up!1,False,151,1,equal,ST1_low_2_a2,P = T2?,Same,1,2,low,132,0.91,82,1.4,132,0.99,No,sure,cr,1.234165906906128,NA
167,l29up!1,False,152,1,equal,ST2_high_6_a2,P = T2?,Same,2,2,high,132,0.99,96,1.11,96,1.27,Yes,quiteSure,hit,1.9326839447021484,NA
168,l29up!1,False,153,1,equal,ST2_low_2_a1,P = T1?,Same,2,1,low,132,0.96,82,1.35,82,1.62,No,sure,cr,1.2345070838928223,NA
169,l29up!1,False,154,1,equal,ST2_low_4_a2,P = T2?,Same,2,2,low,112,0.93,70,1.45,70,1.72,Yes,quiteSure,hit,1.598229169845581,NA
170,l29up!1,False,155,1,equal,ST1_high_5_a1,P = T1?,Same,1,1,high,96,1.4,132,0.89,96,1.15,Yes,quiteSure,hit,1.053981065750122,NA
171,l29up!1,False,156,1,equal,ST1_high_5_a2,P = T1?,Same,1,2,high,96,1.26,132,0.9,96,1.42,Yes,quiteSure,hit,1.1714701652526855,NA
172,l29up!1,False,157,1,equal,ST2_high_5_a2,P = T2?,Same,2,2,high,96,1.13,132,0.97,132,1.04,Yes,sure,hit,1.2132148742675781,NA
173,l29up!1,False,158,1,equal,ST2_high_3_a1,P = T1?,Same,2,1,high,70,1.64,96,1.28,96,1.15,Yes,unsure,fa,1.2807199954986572,NA
174,l29up!1,False,159,1,equal,ST2_low_6_a2,P = T2?,Same,2,2,low,154,0.76,96,1.23,96,1.24,Yes,sure,hit,1.1676380634307861,NA
175,l29up!1,False,160,1,equal,ST2_low_1_a2,P = T2?,Same,2,2,low,82,1.3,132,0.83,132,0.87,Yes,sure,hit,1.1032061576843262,NA
176,l29up!1,False,161,1,equal,DT1_low_2_a2,P = T1?,Different,1,2,low,132,0.86,82,1.51,154,0.8,Yes,sure,hit,0.8749191761016846,NA
177,l29up!1,False,162,1,equal,ST1_low_6_a1,P = T2?,Same,1,1,low,154,0.88,96,1.15,154,0.82,No,sure,cr,0.8987030982971191,NA
178,l29up!1,False,163,1,equal,ST2_high_2_a2,P = T1?,Same,2,2,high,112,0.98,82,1.41,82,1.61,No,sure,cr,2.0255579948425293,NA
179,l29up!1,False,164,1,equal,ST1_low_6_a1,P = T1?,Same,1,1,low,154,0.9,96,1.14,154,0.78,Yes,quiteSure,hit,1.2546069622039795,NA
180,l29up!1,False,165,1,equal,ST1_high_3_a2,P = T1?,Same,1,2,high,70,1.54,96,1.22,70,1.79,No,sure,miss,2.8762667179107666,NA
181,l29up!1,False,166,1,equal,ST2_high_2_a1,P = T1?,Same,2,1,high,112,1.17,82,1.44,82,1.47,Yes,unsure,fa,2.022650957107544,NA
182,l29up!1,False,167,1,equal,ST2_low_3_a1,P = T2?,Same,2,1,low,70,1.84,112,1.11,112,0.94,Yes,sure,hit,1.2579259872436523,NA
183,l29up!1,False,168,1,equal,ST2_high_2_a2,P = T2?,Same,2,2,high,112,0.92,82,1.43,82,1.48,Yes,unsure,hit,2.629164934158325,NA
184,l29up!1,False,169,1,equal,ST2_high_2_a1,P = T1?,Same,2,1,high,112,1.17,82,1.38,82,1.44,No,quiteSure,cr,1.0773489475250244,NA
185,l29up!1,False,170,1,equal,ST2_low_6_a2,P = T2?,Same,2,2,low,154,0.91,96,1.14,96,1.16,Yes,sure,hit,2.583580255508423,NA
186,l29up!1,False,171,1,equal,ST2_high_5_a1,P = T1?,Same,2,1,high,96,1.1,132,0.83,132,0.99,No,sure,cr,1.4137191772460938,NA
187,l29up!1,False,172,1,equal,DT2_low_5_a1,P = T1?,Different,2,1,low,96,1.22,154,0.79,180,0.95,No,sure,cr,1.4125361442565918,NA
188,l29up!1,False,173,1,equal,ST1_high_5_a1,P = T2?,Same,1,1,high,96,1.32,132,1.0,96,1.21,No,sure,cr,1.3027150630950928,NA
189,l29up!1,False,174,1,equal,ST1_high_4_a2,P = T2?,Same,1,2,high,96,1.25,70,1.63,96,1.3,Yes,unsure,fa,1.3935377597808838,NA
190,l29up!1,False,175,1,equal,STb_5_a2,P = T2?,Same,0,2,None,112,1.15,112,1.1,112,1.23,Yes,quiteSure,hit,1.5276851654052734,NA
191,l29up!1,False,176,1,equal,ST1_high_6_a1,P = T1?,Same,1,1,high,132,0.9,96,1.2,132,0.79,Yes,quiteSure,hit,0.9217569828033447,NA
192,l29up!1,False,177,1,equal,ST1_high_5_a2,P = T1?,Same,1,2,high,96,1.12,132,0.88,96,1.22,Yes,quiteSure,hit,1.0117549896240234,NA
193,l29up!1,False,178,1,equal,STb_4_a1,P = T2?,Same,0,1,None,96,1.1,96,1.25,96,1.1,Yes,sure,hit,0.9651849269866943,NA
194,l29up!1,False,179,1,equal,ST1_low_4_a1,P = T2?,Same,1,1,low,112,1.21,70,1.47,112,1.22,Yes,unsure,fa,5.2826149463653564,NA
195,l29up!1,False,180,1,equal,ST1_low_3_a2,P = T2?,Same,1,2,low,70,1.63,112,0.95,70,1.62,No,sure,cr,1.0325303077697754,NA
196,l29up!1,False,181,1,equal,ST1_high_1_a1,P = T1?,Same,1,1,high,82,1.38,112,1.1,82,1.49,Yes,sure,hit,0.8277029991149902,NA
197,l29up!1,False,182,1,equal,ST1_low_4_a2,P = T2?,Same,1,2,low,112,0.94,70,1.55,112,1.15,No,sure,cr,1.0111048221588135,NA
198,l29up!1,False,183,1,equal,STb_2_a2,P = T2?,Same,0,2,None,70,1.72,70,1.6,70,1.68,Yes,quiteSure,hit,1.3282008171081543,NA
199,l29up!1,False,184,1,equal,ST2_high_5_a1,P = T2?,Same,2,1,high,96,1.24,132,0.92,132,1.0,Yes,sure,hit,1.1035048961639404,NA
200,l29up!1,False,185,1,equal,ST1_low_6_a2,P = T1?,Same,1,2,low,154,0.96,96,1.39,154,0.93,Yes,sure,hit,0.8756299018859863,NA
201,l29up!1,False,186,1,equal,ST2_high_1_a1,P = T1?,Same,2,1,high,82,1.57,112,1.01,112,1.13,No,sure,cr,1.7975170612335205,NA
202,l29up!1,False,187,1,equal,ST1_low_4_a2,P = T1?,Same,1,2,low,112,0.92,70,1.41,112,1.04,Yes,quiteSure,hit,1.2805213928222656,NA
203,l29up!1,False,188,1,equal,ST1_low_6_a2,P = T1?,Same,1,2,low,154,0.86,96,1.34,154,0.74,Yes,unsure,hit,2.403808116912842,NA
204,l29up!1,False,189,1,equal,ST2_high_5_a1,P = T1?,Same,2,1,high,96,1.37,132,0.81,132,1.03,No,quiteSure,cr,1.8188581466674805,NA
205,l29up!1,False,190,1,equal,ST1_high_2_a2,P = T2?,Same,1,2,high,112,0.96,82,1.45,112,1.07,No,sure,cr,1.0781421661376953,NA
206,l29up!1,False,191,1,equal,ST2_low_2_a2,P = T1?,Same,2,2,low,132,1.04,82,1.38,82,1.41,No,sure,cr,1.0977411270141602,NA
207,l29up!1,False,192,1,equal,ST1_high_4_a2,P = T2?,Same,1,2,high,96,1.16,70,1.42,96,1.25,Yes,sure,fa,1.1676490306854248,NA
208,l29up!1,False,193,1,equal,ST1_low_3_a2,P = T2?,Same,1,2,low,70,1.59,112,0.93,70,1.73,No,sure,cr,1.149590015411377,NA
209,l29up!1,False,194,1,equal,ST2_high_3_a1,P = T1?,Same,2,1,high,70,1.54,96,1.39,96,1.15,Yes,unsure,fa,2.070103168487549,NA
210,l29up!1,False,195,1,equal,ST1_low_3_a1,P = T1?,Same,1,1,low,70,1.82,112,0.94,70,1.75,Yes,quiteSure,hit,3.0096724033355713,NA
211,l29up!1,False,196,1,equal,ST2_low_1_a1,P = T1?,Same,2,1,low,82,1.51,132,1.04,132,1.0,No,sure,cr,1.3250629901885986,NA
212,l29up!1,False,197,1,equal,ST1_high_2_a2,P = T1?,Same,1,2,high,112,0.93,82,1.5,112,1.08,No,sure,miss,1.1888608932495117,NA
213,l29up!1,False,198,1,equal,ST1_low_4_a1,P = T1?,Same,1,1,low,112,0.97,70,1.71,112,0.94,Yes,quiteSure,hit,1.2821989059448242,NA
214,l29up!1,False,199,1,equal,ST2_high_3_a2,P = T2?,Same,2,2,high,70,1.55,96,1.38,96,1.14,Yes,sure,hit,1.460362195968628,NA
215,l29up!1,False,200,1,equal,ST1_low_3_a1,P = T1?,Same,1,1,low,70,1.42,112,0.95,70,1.7,Yes,sure,hit,0.9929258823394775,NA
216,l29up!1,False,201,1,equal,ST2_low_5_a1,P = T1?,Same,2,1,low,96,1.32,154,0.77,154,0.85,No,sure,cr,1.213066816329956,NA
217,l29up!1,False,202,1,equal,ST2_low_5_a2,P = T2?,Same,2,2,low,96,1.31,154,0.86,154,0.92,Yes,sure,hit,1.5492222309112549,NA
218,l29up!1,False,203,1,equal,ST2_high_5_a2,P = T1?,Same,2,2,high,96,1.21,132,0.84,132,0.92,Yes,quiteSure,fa,1.7503418922424316,NA
219,l29up!1,False,204,1,equal,ST2_low_4_a1,P = T1?,Same,2,1,low,112,1.18,70,1.77,70,1.4,No,sure,cr,1.2137541770935059,NA
220,l29up!1,False,205,1,equal,ST2_high_6_a2,P = T2?,Same,2,2,high,132,0.93,96,1.33,96,1.1,Yes,sure,hit,1.2099308967590332,NA
221,l29up!1,False,206,1,equal,ST1_high_6_a2,P = T2?,Same,1,2,high,132,0.86,96,1.13,132,0.84,No,quiteSure,cr,1.255753993988037,NA
222,l29up!1,False,207,1,equal,ST2_low_6_a2,P = T1?,Same,2,2,low,154,0.71,96,1.32,96,1.29,No,quiteSure,cr,0.9685261249542236,NA
223,l29up!1,False,208,1,equal,ST2_high_2_a2,P = T2?,Same,2,2,high,112,1.13,82,1.37,82,1.39,Yes,sure,hit,1.4118268489837646,NA
224,l29up!1,False,209,1,equal,ST2_high_4_a2,P = T1?,Same,2,2,high,96,1.25,70,1.55,70,1.48,Yes,quiteSure,fa,1.0584139823913574,NA
225,l29up!1,False,210,1,equal,STb_6_a1,P = T1?,Same,0,1,None,132,1.0,132,1.04,132,1.01,Yes,sure,hit,0.9833552837371826,NA
226,l29up!1,False,211,1,equal,ST1_high_2_a2,P = T1?,Same,1,2,high,112,1.15,82,1.48,112,1.13,Yes,sure,hit,1.053623914718628,NA
227,l29up!1,False,212,1,equal,ST1_high_5_a2,P = T1?,Same,1,2,high,96,1.1,132,0.89,96,1.29,Yes,quiteSure,hit,0.8768599033355713,NA
228,l29up!1,False,213,1,equal,ST2_low_4_a1,P = T1?,Same,2,1,low,112,1.22,70,1.43,70,1.45,No,sure,cr,1.262990951538086,NA
229,l29up!1,False,214,1,equal,ST1_low_6_a2,P = T2?,Same,1,2,low,154,0.95,96,1.32,154,0.79,No,sure,cr,1.1007511615753174,NA
230,l29up!1,False,215,1,equal,ST2_low_2_a1,P = T2?,Same,2,1,low,132,0.96,82,1.37,82,1.23,No,quiteSure,miss,1.7069189548492432,NA
231,l29up!1,False,216,1,equal,ST2_high_5_a2,P = T1?,Same,2,2,high,96,1.27,132,0.8,132,0.97,No,quiteSure,cr,1.1492640972137451,NA
232,l29up!1,False,217,1,equal,ST2_high_5_a2,P = T2?,Same,2,2,high,96,1.18,132,0.89,132,0.87,Yes,quiteSure,hit,1.6394751071929932,NA
233,l29up!1,False,218,1,equal,ST1_low_2_a1,P = T2?,Same,1,1,low,132,0.82,82,1.25,132,0.91,No,sure,cr,1.1483659744262695,NA
234,l29up!1,False,219,1,equal,ST1_low_6_a2,P = T2?,Same,1,2,low,154,0.88,96,1.38,154,0.94,No,sure,cr,1.0615549087524414,NA
235,l29up!1,False,220,1,equal,ST1_low_2_a2,P = T2?,Same,1,2,low,132,0.97,82,1.42,132,0.8,No,sure,cr,1.0327489376068115,NA
236,l29up!1,False,221,1,equal,ST2_high_4_a2,P = T2?,Same,2,2,high,96,1.12,70,1.74,70,1.41,Yes,sure,hit,1.3943753242492676,NA
237,l29up!1,False,222,1,equal,ST1_high_6_a2,P = T1?,Same,1,2,high,132,1.02,96,1.13,132,0.8,Yes,unsure,hit,1.526390790939331,NA
238,l29up!1,False,223,1,equal,ST2_low_3_a1,P = T2?,Same,2,1,low,70,1.65,112,1.14,112,1.08,Yes,quiteSure,hit,1.2388050556182861,NA
239,l29up!1,False,224,1,equal,ST1_high_1_a1,P = T2?,Same,1,1,high,82,1.25,112,0.93,82,1.58,Yes,unsure,fa,1.7299277782440186,NA
240,l29up!1,False,225,1,equal,ST2_high_1_a2,P = T1?,Same,2,2,high,82,1.59,112,1.02,112,1.0,No,unsure,cr,2.743741989135742,NA
241,l29up!1,False,226,1,equal,ST1_low_2_a2,P = T1?,Same,1,2,low,132,1.05,82,1.4,132,1.04,Yes,sure,hit,0.9229490756988525,NA
242,l29up!1,False,227,1,equal,ST1_high_6_a1,P = T2?,Same,1,1,high,132,1.0,96,1.35,132,0.95,No,unsure,cr,1.0789613723754883,NA
243,l29up!1,False,228,1,equal,ST2_high_3_a1,P = T2?,Same,2,1,high,70,1.73,96,1.26,96,1.26,Yes,sure,hit,1.2799639701843262,NA
244,l29up!1,False,229,1,equal,ST2_high_2_a2,P = T1?,Same,2,2,high,112,1.12,82,1.58,82,1.5,No,quiteSure,cr,2.4520859718322754,NA
245,l29up!1,False,230,1,equal,ST1_low_1_a1,P = T2?,Same,1,1,low,82,1.45,132,0.8,82,1.49,No,sure,cr,0.9901628494262695,NA
246,l29up!1,False,231,1,equal,ST2_low_2_a1,P = T2?,Same,2,1,low,132,0.92,82,1.54,82,1.61,Yes,quiteSure,hit,1.3469297885894775,NA
247,l29up!1,False,232,1,equal,ST2_high_1_a2,P = T2?,Same,2,2,high,82,1.37,112,1.16,112,0.98,Yes,quiteSure,hit,1.865994930267334,NA
248,l29up!1,False,233,1,equal,ST2_high_3_a2,P = T1?,Same,2,2,high,70,1.81,96,1.39,96,1.41,No,unsure,cr,1.4177980422973633,NA
249,l29up!1,False,234,1,equal,STb_5_a1,P = T2?,Same,0,1,None,112,1.06,112,1.13,112,1.12,Yes,quiteSure,hit,1.4172661304473877,NA
250,l29up!1,False,235,1,equal,ST1_high_5_a1,P = T2?,Same,1,1,high,96,1.19,132,0.93,96,1.31,No,quiteSure,cr,1.300412893295288,NA
251,l29up!1,False,236,1,equal,DT1_low_5_a1,P = T2?,Different,1,1,low,96,1.16,154,0.93,82,1.34,No,sure,cr,1.349740982055664,NA
252,l29up!1,False,237,1,equal,ST1_low_2_a2,P = T2?,Same,1,2,low,132,0.9,82,1.27,132,0.96,No,sure,cr,1.0114719867706299,NA
253,l29up!1,False,238,1,equal,ST2_low_6_a2,P = T2?,Same,2,2,low,154,0.87,96,1.33,96,1.39,Yes,quiteSure,hit,1.2390601634979248,NA
254,l29up!1,False,239,1,equal,ST2_low_4_a2,P = T2?,Same,2,2,low,112,0.94,70,1.82,70,1.75,Yes,sure,hit,1.143618106842041,NA
255,l29up!1,False,240,1,equal,ST2_low_3_a1,P = T1?,Same,2,1,low,70,1.75,112,0.94,112,0.99,No,sure,cr,1.3281378746032715,NA
256,l29up!1,False,241,1,equal,ST2_high_6_a2,P = T1?,Same,2,2,high,132,1.04,96,1.32,96,1.15,No,sure,cr,1.4167752265930176,NA
257,l29up!1,False,242,1,equal,ST2_low_1_a2,P = T1?,Same,2,2,low,82,1.58,132,0.8,132,1.02,No,sure,cr,1.1849980354309082,NA
258,l29up!1,False,243,1,equal,ST1_high_1_a2,P = T2?,Same,1,2,high,82,1.24,112,1.01,82,1.48,No,sure,cr,2.362471103668213,NA
259,l29up!1,False,244,1,equal,ST1_low_1_a1,P = T1?,Same,1,1,low,82,1.53,132,0.89,82,1.52,Yes,quiteSure,hit,2.539339065551758,NA
260,l29up!1,False,245,1,equal,ST2_high_1_a1,P = T1?,Same,2,1,high,82,1.24,112,1.23,112,0.94,Yes,quiteSure,fa,1.0585010051727295,NA
261,l29up!1,False,246,1,equal,ST1_low_1_a1,P = T2?,Same,1,1,low,82,1.45,132,0.98,82,1.27,Yes,quiteSure,fa,1.2820229530334473,NA
262,l29up!1,False,247,1,equal,ST2_low_1_a1,P = T1?,Same,2,1,low,82,1.34,132,0.98,132,0.84,No,sure,cr,1.1201889514923096,NA
263,l29up!1,False,248,1,equal,ST1_low_4_a2,P = T1?,Same,1,2,low,112,1.22,70,1.39,112,1.19,Yes,quiteSure,hit,0.9216079711914062,NA
264,l29up!1,False,249,1,equal,ST2_high_2_a1,P = T2?,Same,2,1,high,112,0.98,82,1.58,82,1.57,Yes,sure,hit,1.0597577095031738,NA
265,l29up!1,False,250,1,equal,ST2_high_1_a1,P = T1?,Same,2,1,high,82,1.3,112,1.04,112,1.01,No,sure,cr,1.6891350746154785,NA
266,l29up!1,False,251,1,equal,ST1_high_3_a1,P = T1?,Same,1,1,high,70,1.66,96,1.21,70,1.63,No,sure,miss,1.058655023574829,NA
267,l29up!1,False,252,1,equal,ST2_low_1_a1,P = T2?,Same,2,1,low,82,1.62,132,0.97,132,0.79,Yes,sure,hit,1.483065128326416,NA
268,l29up!1,False,253,1,equal,ST2_low_5_a2,P = T1?,Same,2,2,low,96,1.25,154,0.71,154,0.88,No,sure,cr,1.9590210914611816,NA
269,l29up!1,False,254,1,equal,ST2_high_1_a2,P = T1?,Same,2,2,high,82,1.36,112,1.0,112,1.19,Yes,unsure,fa,1.9770762920379639,NA
270,l29up!1,False,255,1,equal,ST2_low_3_a2,P = T2?,Same,2,2,low,70,1.42,112,0.96,112,1.11,Yes,sure,hit,1.2614600658416748,NA
271,l29up!1,False,256,1,equal,ST1_high_4_a1,P = T2?,Same,1,1,high,96,1.26,70,1.51,96,1.26,Yes,quiteSure,fa,1.0321390628814697,NA
272,l29up!1,False,257,1,equal,ST2_low_3_a2,P = T2?,Same,2,2,low,70,1.61,112,1.04,112,1.09,Yes,sure,hit,1.0543920993804932,NA
273,l29up!1,False,258,1,equal,ST1_high_5_a2,P = T2?,Same,1,2,high,96,1.07,132,0.98,96,1.26,No,quiteSure,cr,1.2138087749481201,NA
274,l29up!1,False,259,1,equal,ST2_low_3_a1,P = T1?,Same,2,1,low,70,1.43,112,1.16,112,0.98,No,quiteSure,cr,1.1887969970703125,NA
275,l29up!1,False,260,1,equal,ST2_high_3_a1,P = T2?,Same,2,1,high,70,1.73,96,1.2,96,1.32,Yes,quiteSure,hit,1.1221990585327148,NA
276,l29up!1,False,261,1,equal,ST1_high_3_a2,P = T1?,Same,1,2,high,70,1.78,96,1.2,70,1.72,No,unsure,miss,2.110405921936035,NA
277,l29up!1,False,262,1,equal,ST1_high_5_a2,P = T2?,Same,1,2,high,96,1.15,132,0.82,96,1.19,Yes,quiteSure,fa,2.673912286758423,NA
278,l29up!1,False,263,1,equal,ST2_low_1_a1,P = T1?,Same,2,1,low,82,1.6,132,0.9,132,0.95,No,sure,cr,1.1240081787109375,NA
279,l29up!1,False,264,1,equal,ST1_low_1_a2,P = T1?,Same,1,2,low,82,1.29,132,1.11,82,1.2,Yes,quiteSure,hit,1.1231579780578613,NA
280,l29up!1,False,265,1,equal,ST1_low_3_a2,P = T1?,Same,1,2,low,70,1.4,112,0.95,70,1.76,Yes,quiteSure,hit,1.0095069408416748,NA
281,l29up!1,False,266,1,equal,ST1_high_6_a1,P = T2?,Same,1,1,high,132,1.02,96,1.43,132,1.03,No,sure,cr,1.056913137435913,NA
282,l29up!1,False,267,1,equal,STb_8_a2,P = T1?,Same,0,2,None,180,0.88,180,0.89,180,0.86,Yes,sure,hit,1.187330961227417,NA
283,l29up!1,False,268,1,equal,ST1_high_6_a1,P = T1?,Same,1,1,high,132,0.84,96,1.34,132,0.79,Yes,sure,hit,1.055063009262085,NA
284,l29up!1,False,269,1,equal,ST1_high_3_a1,P = T2?,Same,1,1,high,70,1.56,96,1.33,70,1.49,No,quiteSure,cr,1.0149650573730469,NA
285,l29up!1,False,270,1,equal,ST2_low_5_a1,P = T1?,Same,2,1,low,96,1.11,154,0.79,154,0.87,No,sure,cr,1.0990700721740723,NA
286,l29up!1,False,271,1,equal,ST1_high_2_a1,P = T1?,Same,1,1,high,112,1.13,82,1.31,112,1.0,Yes,unsure,hit,4.837897300720215,NA
287,l29up!1,False,272,1,equal,ST2_low_6_a2,P = T1?,Same,2,2,low,154,0.87,96,1.2,96,1.23,No,quiteSure,cr,1.3502609729766846,NA
288,l29up!1,False,273,1,equal,ST2_high_2_a1,P = T2?,Same,2,1,high,112,1.09,82,1.49,82,1.57,Yes,quiteSure,hit,1.5745429992675781,NA
289,l29up!1,False,274,1,equal,ST1_high_1_a2,P = T1?,Same,1,2,high,82,1.55,112,1.01,82,1.56,Yes,quiteSure,hit,1.9799392223358154,NA
290,l29up!1,False,275,1,equal,ST1_high_3_a2,P = T1?,Same,1,2,high,70,1.49,96,1.26,70,1.52,Yes,sure,hit,0.7616219520568848,NA
291,l29up!1,False,276,1,equal,DT1_high_4_a2,P = T2?,Different,1,2,high,96,1.34,70,1.45,112,0.96,Yes,unsure,fa,4.204234838485718,NA
292,l29up!1,False,277,1,equal,ST2_low_6_a1,P = T2?,Same,2,1,low,154,0.82,96,1.22,96,1.25,Yes,sure,hit,0.9425148963928223,NA
293,l29up!1,False,278,1,equal,ST2_high_2_a1,P = T2?,Same,2,1,high,112,1.12,82,1.44,82,1.37,Yes,sure,hit,1.168421745300293,NA
294,l29up!1,False,279,1,equal,ST1_high_2_a2,P = T2?,Same,1,2,high,112,1.06,82,1.57,112,0.95,No,sure,cr,1.098858118057251,NA
295,l29up!1,False,280,1,equal,ST2_low_6_a1,P = T1?,Same,2,1,low,154,0.94,96,1.23,96,1.32,No,sure,cr,1.3486649990081787,NA
296,l29up!1,False,281,1,equal,ST2_low_4_a1,P = T1?,Same,2,1,low,112,1.2,70,1.46,70,1.67,No,sure,cr,1.305631160736084,NA
297,l29up!1,False,282,1,equal,ST1_low_2_a1,P = T1?,Same,1,1,low,132,1.04,82,1.4,132,0.85,Yes,sure,hit,0.924450159072876,NA
298,l29up!1,False,283,1,equal,ST1_high_1_a1,P = T1?,Same,1,1,high,82,1.35,112,1.2,82,1.27,Yes,unsure,hit,1.4618933200836182,NA
299,l29up!1,False,284,1,equal,DT2_low_1_a1,P = T1?,Different,2,1,low,82,1.33,132,0.89,154,0.93,No,sure,cr,1.209717035293579,NA
300,l29up!1,False,285,1,equal,ST1_low_1_a1,P = T1?,Same,1,1,low,82,1.28,132,1.04,82,1.31,Yes,quiteSure,hit,1.8453950881958008,NA
301,l29up!1,False,286,1,equal,ST2_low_2_a2,P = T2?,Same,2,2,low,132,0.95,82,1.28,82,1.61,Yes,quiteSure,hit,1.4609439373016357,NA
302,l29up!1,False,287,1,equal,DT1_high_4_a2,P = T1?,Different,1,2,high,96,1.23,70,1.59,112,1.17,Yes,unsure,hit,3.353071928024292,NA
303,l29up!1,False,288,1,equal,ST1_low_5_a1,P = T2?,Same,1,1,low,96,1.16,154,0.9,96,1.28,No,sure,cr,1.9122581481933594,NA
304,l29up!1,False,289,1,equal,ST1_low_2_a2,P = T1?,Same,1,2,low,132,0.92,82,1.57,132,0.9,Yes,quiteSure,hit,1.1712000370025635,NA
305,l29up!1,False,290,1,equal,ST2_high_4_a1,P = T2?,Same,2,1,high,96,1.38,70,1.57,70,1.83,Yes,sure,hit,1.1454310417175293,NA
306,l29up!1,False,291,1,equal,ST2_low_1_a2,P = T2?,Same,2,2,low,82,1.3,132,0.79,132,0.93,Yes,quiteSure,hit,1.0761611461639404,NA
307,l29up!1,False,292,1,equal,ST2_low_4_a2,P = T1?,Same,2,2,low,112,1.09,70,1.49,70,1.79,No,sure,cr,3.3958609104156494,NA
308,l29up!1,False,293,1,equal,ST1_high_3_a1,P = T1?,Same,1,1,high,70,1.52,96,1.16,70,1.44,Yes,quiteSure,hit,0.9425787925720215,NA
309,l29up!1,False,294,1,equal,STb_3_a1,P = T1?,Same,0,1,None,82,1.37,82,1.31,82,1.23,No,quiteSure,miss,1.5253369808197021,NA
310,l29up!1,False,295,1,equal,ST2_high_4_a1,P = T2?,Same,2,1,high,96,1.17,70,1.4,70,1.85,Yes,sure,hit,0.9677670001983643,NA
311,l29up!1,False,296,1,equal,ST1_high_5_a1,P = T1?,Same,1,1,high,96,1.14,132,0.91,96,1.29,No,unsure,miss,4.228210926055908,NA
312,l29up!1,False,297,1,equal,ST2_high_3_a2,P = T2?,Same,2,2,high,70,1.58,96,1.14,96,1.22,Yes,unsure,hit,1.0110416412353516,NA
313,l29up!1,False,298,1,equal,ST2_low_1_a2,P = T1?,Same,2,2,low,82,1.51,132,1.03,132,1.06,No,quiteSure,cr,1.6149680614471436,NA
314,l29up!1,False,299,1,equal,ST1_high_6_a1,P = T2?,Same,1,1,high,132,0.88,96,1.28,132,1.04,No,sure,cr,1.1469261646270752,NA
315,l29up!1,False,300,1,equal,ST1_high_1_a1,P = T2?,Same,1,1,high,82,1.31,112,1.07,82,1.24,No,quiteSure,cr,2.268773078918457,NA
316,l29up!1,False,301,1,equal,ST2_high_6_a1,P = T2?,Same,2,1,high,132,0.82,96,1.08,96,1.43,Yes,quiteSure,hit,1.4594230651855469,NA
317,l29up!1,False,302,1,equal,ST1_low_1_a2,P = T1?,Same,1,2,low,82,1.62,132,0.95,82,1.53,Yes,quiteSure,hit,0.9417741298675537,NA
318,l29up!1,False,303,1,equal,ST1_high_1_a2,P = T2?,Same,1,2,high,82,1.25,112,1.15,82,1.37,Yes,sure,fa,0.9687652587890625,NA
319,l29up!1,False,304,1,equal,ST2_low_1_a2,P = T2?,Same,2,2,low,82,1.59,132,0.81,132,0.79,Yes,sure,hit,1.1907339096069336,NA
320,l29up!1,False,305,1,equal,ST2_low_5_a1,P = T2?,Same,2,1,low,96,1.18,154,0.85,154,0.89,Yes,sure,hit,2.041857957839966,NA
321,l29up!1,False,306,1,equal,ST2_low_2_a2,P = T2?,Same,2,2,low,132,0.99,82,1.33,82,1.48,No,quiteSure,miss,4.3838417530059814,NA
322,l29up!1,False,307,1,equal,ST1_low_1_a1,P = T1?,Same,1,1,low,82,1.24,132,0.84,82,1.46,Yes,quiteSure,hit,0.9917879104614258,NA
323,l29up!1,False,308,1,equal,ST1_low_4_a2,P = T2?,Same,1,2,low,112,1.02,70,1.49,112,1.04,No,sure,cr,2.3616721630096436,NA
324,l29up!1,False,309,1,equal,ST1_low_6_a1,P = T2?,Same,1,1,low,154,0.92,96,1.29,154,0.81,No,sure,cr,1.2138638496398926,NA
325,l29up!1,False,310,1,equal,ST1_high_4_a2,P = T2?,Same,1,2,high,96,1.2,70,1.46,96,1.36,No,sure,cr,1.388145923614502,NA
326,l29up!1,False,311,1,equal,ST1_high_3_a1,P = T2?,Same,1,1,high,70,1.83,96,1.27,70,1.63,No,sure,cr,1.0768320560455322,NA
327,l29up!1,False,312,1,equal,ST2_low_6_a1,P = T2?,Same,2,1,low,154,0.85,96,1.09,96,1.26,Yes,unsure,hit,1.640744924545288,NA
328,l29up!1,False,313,1,equal,ST2_low_5_a1,P = T1?,Same,2,1,low,96,1.34,154,0.79,154,0.83,No,sure,cr,1.214350938796997,NA
329,l29up!1,False,314,1,equal,ST1_high_2_a1,P = T2?,Same,1,1,high,112,1.22,82,1.57,112,0.96,No,sure,cr,1.3506760597229004,NA
330,l29up!1,False,315,1,equal,ST2_high_5_a2,P = T2?,Same,2,2,high,96,1.08,132,0.9,132,1.05,Yes,quiteSure,hit,1.2807762622833252,NA
331,l29up!1,False,316,1,equal,ST1_low_4_a1,P = T2?,Same,1,1,low,112,0.94,70,1.38,112,1.12,No,unsure,cr,3.420628070831299,NA
332,l29up!1,False,317,1,equal,ST1_high_5_a1,P = T1?,Same,1,1,high,96,1.16,132,0.85,96,1.26,Yes,quiteSure,hit,0.9889628887176514,NA
333,l29up!1,False,318,1,equal,ST2_low_1_a2,P = T1?,Same,2,2,low,82,1.28,132,0.79,132,0.89,No,sure,cr,1.5975873470306396,NA
334,l29up!1,False,319,1,equal,ST1_low_2_a1,P = T2?,Same,1,1,low,132,0.84,82,1.51,132,0.82,No,sure,cr,1.0550737380981445,NA
335,l29up!1,False,320,1,equal,ST2_high_4_a2,P = T2?,Same,2,2,high,96,1.41,70,1.81,70,1.48,Yes,sure,hit,1.3256418704986572,1.0
