,pcode,practice,trial,block,questionType,condition,question,PTS,TargetPosition,AccessoryPosition,TNS,T1_hz,T1_amp,T2_hz,T2_amp,P_hz,P_amp,response_dicho,response_rating,response_sdt,rt,P_correct
0,#6o1h4m,True,1,2,unequal,ST1_low_2_a2,P != T2?,Same,1,2,low,132,1.1,82,1.29,132,0.98,Yes,sure,hit,5.510028123855591,NA
1,#6o1h4m,True,2,2,unequal,DT2_high_1_a1,P != T2?,Different,2,1,high,82,1.09,112,0.91,132,1.02,Yes,sure,fa,1.9383559226989746,NA
2,#6o1h4m,True,3,2,unequal,ST2_high_3_a2,P != T1?,Same,2,2,high,70,1.51,96,1.32,96,1.12,Yes,sure,hit,2.0472943782806396,NA
3,#6o1h4m,True,4,2,unequal,ST1_low_2_a1,P != T1?,Same,1,1,low,132,0.92,82,1.61,132,0.81,No,sure,cr,1.9054410457611084,NA
4,#6o1h4m,True,5,2,unequal,ST1_low_5_a1,P != T1?,Same,1,1,low,96,1.19,154,0.81,96,1.29,No,sure,cr,2.8289899826049805,NA
5,#6o1h4m,True,6,2,unequal,STb_1_a1,P != T2?,Same,0,1,None,60,1.79,60,1.73,60,1.84,No,sure,cr,7.076757907867432,NA
6,#6o1h4m,True,7,2,unequal,STb_3_a1,P != T2?,Same,0,1,None,82,1.55,82,1.5,82,1.58,No,sure,cr,1.234950304031372,NA
7,#6o1h4m,True,8,2,unequal,ST1_low_3_a2,P != T2?,Same,1,2,low,70,1.53,112,1.08,70,1.9,Yes,sure,hit,4.0091471672058105,NA
8,#6o1h4m,True,9,2,unequal,STb_3_a1,P != T1?,Same,0,1,None,82,1.53,82,1.26,82,1.48,No,sure,cr,4.483293056488037,NA
9,#6o1h4m,True,10,2,unequal,DT2_low_3_a2,P != T1?,Different,2,2,low,70,1.79,112,0.94,132,0.94,No,sure,miss,5.075975179672241,NA
10,#6o1h4m,True,11,2,unequal,ST2_high_6_a1,P != T2?,Same,2,1,high,132,0.93,96,1.06,96,1.24,No,sure,cr,3.70756196975708,NA
11,#6o1h4m,True,12,2,unequal,ST2_high_3_a2,P != T2?,Same,2,2,high,70,1.78,96,1.02,96,1.07,No,sure,cr,3.126948118209839,NA
12,#6o1h4m,True,13,2,unequal,STb_4_a1,P != T1?,Same,0,1,None,96,1.25,96,0.94,96,1.28,No,sure,cr,0.8789670467376709,NA
13,#6o1h4m,True,14,2,unequal,ST2_high_3_a1,P != T1?,Same,2,1,high,70,1.65,96,1.49,96,1.24,Yes,sure,hit,1.7675073146820068,NA
14,#6o1h4m,True,15,2,unequal,DT1_low_4_a1,P != T2?,Different,1,1,low,112,0.97,70,1.52,132,0.95,Yes,sure,hit,2.313619375228882,NA
15,#6o1h4m,True,16,2,unequal,DT2_high_5_a2,P != T1?,Different,2,2,high,96,1.36,132,1.05,154,0.74,Yes,sure,hit,2.870687961578369,0.75
16,#6o1h4m,False,1,2,unequal,ST1_high_3_a1,P != T1?,Same,1,1,high,70,1.76,96,1.41,70,1.55,No,sure,cr,2.3492729663848877,NA
17,#6o1h4m,False,2,2,unequal,ST2_high_3_a1,P != T1?,Same,2,1,high,70,1.42,96,1.41,96,1.16,Yes,unsure,hit,7.72943377494812,NA
18,#6o1h4m,False,3,2,unequal,ST1_high_5_a2,P != T1?,Same,1,2,high,96,1.11,132,1.04,96,1.39,No,quiteSure,cr,2.0905449390411377,NA
19,#6o1h4m,False,4,2,unequal,ST2_low_6_a1,P != T2?,Same,2,1,low,154,0.74,96,1.17,96,1.36,No,sure,cr,2.081865072250366,NA
20,#6o1h4m,False,5,2,unequal,ST1_high_2_a2,P != T1?,Same,1,2,high,112,0.95,82,1.6,112,1.05,No,sure,cr,2.18099308013916,NA
21,#6o1h4m,False,6,2,unequal,ST1_low_3_a1,P != T2?,Same,1,1,low,70,1.49,112,1.02,70,1.51,Yes,sure,hit,5.073180913925171,NA
22,#6o1h4m,False,7,2,unequal,ST1_low_6_a2,P != T2?,Same,1,2,low,154,0.86,96,1.35,154,0.96,Yes,sure,hit,5.115133047103882,NA
23,#6o1h4m,False,8,2,unequal,ST1_high_1_a1,P != T2?,Same,1,1,high,82,1.42,112,0.93,82,1.52,Yes,sure,hit,4.283934831619263,NA
24,#6o1h4m,False,9,2,unequal,ST2_high_5_a1,P != T1?,Same,2,1,high,96,1.38,132,0.8,132,0.92,Yes,sure,hit,1.3241899013519287,NA
25,#6o1h4m,False,10,2,unequal,DT2_high_4_a1,P != T1?,Different,2,1,high,96,1.26,70,1.74,60,1.82,Yes,quiteSure,hit,4.023714065551758,NA
26,#6o1h4m,False,11,2,unequal,ST2_low_4_a1,P != T2?,Same,2,1,low,112,0.96,70,1.39,70,1.7,No,sure,cr,2.4886438846588135,NA
27,#6o1h4m,False,12,2,unequal,ST1_low_5_a2,P != T1?,Same,1,2,low,96,1.32,154,0.75,96,1.41,No,sure,cr,3.2605669498443604,NA
28,#6o1h4m,False,13,2,unequal,ST1_low_2_a2,P != T1?,Same,1,2,low,132,0.83,82,1.37,132,0.98,No,sure,cr,2.058655023574829,NA
29,#6o1h4m,False,14,2,unequal,ST2_low_5_a1,P != T2?,Same,2,1,low,96,1.27,154,0.76,154,0.87,No,sure,cr,1.8104372024536133,NA
30,#6o1h4m,False,15,2,unequal,ST1_high_5_a1,P != T2?,Same,1,1,high,96,1.23,132,0.83,96,1.3,Yes,sure,hit,2.572444200515747,NA
31,#6o1h4m,False,16,2,unequal,ST1_high_4_a1,P != T1?,Same,1,1,high,96,1.43,70,1.82,96,1.41,No,sure,cr,1.6670477390289307,NA
32,#6o1h4m,False,17,2,unequal,STb_7_a2,P != T2?,Same,0,2,None,154,0.81,154,0.76,154,0.73,No,sure,cr,2.018454074859619,NA
33,#6o1h4m,False,18,2,unequal,ST1_low_5_a2,P != T1?,Same,1,2,low,96,1.14,154,0.86,96,1.38,No,sure,cr,1.5902001857757568,NA
34,#6o1h4m,False,19,2,unequal,ST1_high_6_a1,P != T2?,Same,1,1,high,132,0.79,96,1.36,132,1.02,Yes,sure,hit,2.1130340099334717,NA
35,#6o1h4m,False,20,2,unequal,ST2_low_3_a1,P != T1?,Same,2,1,low,70,1.63,112,1.18,112,0.94,Yes,sure,hit,1.318547248840332,NA
36,#6o1h4m,False,21,2,unequal,ST1_low_4_a1,P != T2?,Same,1,1,low,112,1.18,70,1.62,112,1.0,Yes,sure,hit,2.4206106662750244,NA
37,#6o1h4m,False,22,2,unequal,ST2_low_1_a2,P != T1?,Same,2,2,low,82,1.22,132,0.95,132,0.81,Yes,sure,hit,1.2941770553588867,NA
38,#6o1h4m,False,23,2,unequal,ST2_low_3_a2,P != T1?,Same,2,2,low,70,1.64,112,1.17,112,0.94,Yes,quiteSure,hit,1.5176138877868652,NA
39,#6o1h4m,False,24,2,unequal,ST1_high_4_a2,P != T2?,Same,1,2,high,96,1.18,70,1.48,96,1.38,Yes,sure,hit,1.5004160404205322,NA
40,#6o1h4m,False,25,2,unequal,ST2_high_5_a2,P != T2?,Same,2,2,high,96,1.2,132,0.87,132,0.83,No,sure,cr,1.2963519096374512,NA
41,#6o1h4m,False,26,2,unequal,ST2_high_5_a1,P != T1?,Same,2,1,high,96,1.13,132,1.01,132,0.93,Yes,sure,hit,1.3041720390319824,NA
42,#6o1h4m,False,27,2,unequal,ST2_high_6_a1,P != T1?,Same,2,1,high,132,0.88,96,1.15,96,1.32,Yes,sure,hit,3.168687105178833,NA
43,#6o1h4m,False,28,2,unequal,ST1_high_3_a2,P != T2?,Same,1,2,high,70,1.79,96,1.14,70,1.71,Yes,sure,hit,2.604024887084961,NA
44,#6o1h4m,False,29,2,unequal,ST2_high_1_a2,P != T2?,Same,2,2,high,82,1.36,112,0.97,112,1.1,No,sure,cr,1.4463038444519043,NA
45,#6o1h4m,False,30,2,unequal,ST1_low_4_a2,P != T1?,Same,1,2,low,112,1.21,70,1.44,112,1.22,No,sure,cr,1.513132095336914,NA
46,#6o1h4m,False,31,2,unequal,ST2_high_2_a1,P != T1?,Same,2,1,high,112,1.12,82,1.58,82,1.35,Yes,sure,hit,3.026556968688965,NA
47,#6o1h4m,False,32,2,unequal,ST2_low_1_a2,P != T2?,Same,2,2,low,82,1.59,132,0.92,132,0.83,No,sure,cr,2.7797441482543945,NA
48,#6o1h4m,False,33,2,unequal,ST1_low_3_a1,P != T1?,Same,1,1,low,70,1.6,112,1.08,70,1.83,No,quiteSure,cr,3.34513783454895,NA
49,#6o1h4m,False,34,2,unequal,ST2_high_3_a2,P != T2?,Same,2,2,high,70,1.56,96,1.24,96,1.18,No,sure,cr,2.4537460803985596,NA
50,#6o1h4m,False,35,2,unequal,STb_1_a1,P != T2?,Same,0,1,None,60,1.79,60,1.73,60,1.84,No,sure,cr,1.3985252380371094,NA
51,#6o1h4m,False,36,2,unequal,ST1_low_4_a1,P != T2?,Same,1,1,low,112,1.16,70,1.42,112,1.07,Yes,sure,hit,2.9159979820251465,NA
52,#6o1h4m,False,37,2,unequal,ST2_low_1_a1,P != T1?,Same,2,1,low,82,1.39,132,0.85,132,0.86,Yes,sure,hit,1.8115549087524414,NA
53,#6o1h4m,False,38,2,unequal,ST1_low_1_a2,P != T2?,Same,1,2,low,82,1.4,132,0.79,82,1.25,Yes,sure,hit,1.2685680389404297,NA
54,#6o1h4m,False,39,2,unequal,ST2_high_1_a1,P != T1?,Same,2,1,high,82,1.54,112,1.03,112,1.0,Yes,sure,hit,1.3821909427642822,NA
55,#6o1h4m,False,40,2,unequal,ST1_low_1_a2,P != T1?,Same,1,2,low,82,1.32,132,0.88,82,1.58,No,sure,cr,1.6753289699554443,NA
56,#6o1h4m,False,41,2,unequal,ST2_high_1_a1,P != T1?,Same,2,1,high,82,1.51,112,0.98,112,0.94,Yes,sure,hit,2.340114116668701,NA
57,#6o1h4m,False,42,2,unequal,ST2_high_3_a2,P != T2?,Same,2,2,high,70,1.78,96,1.02,96,1.07,No,sure,cr,1.3679981231689453,NA
58,#6o1h4m,False,43,2,unequal,ST2_high_1_a2,P != T2?,Same,2,2,high,82,1.25,112,0.93,112,0.92,No,sure,cr,1.1240098476409912,NA
59,#6o1h4m,False,44,2,unequal,ST2_high_6_a2,P != T2?,Same,2,2,high,132,0.91,96,1.41,96,1.36,No,sure,cr,4.409902811050415,NA
60,#6o1h4m,False,45,2,unequal,ST1_low_1_a1,P != T2?,Same,1,1,low,82,1.47,132,1.05,82,1.57,Yes,sure,hit,1.3153929710388184,NA
61,#6o1h4m,False,46,2,unequal,ST2_high_3_a1,P != T2?,Same,2,1,high,70,1.54,96,1.12,96,1.18,No,sure,cr,1.3151979446411133,NA
62,#6o1h4m,False,47,2,unequal,ST1_high_6_a2,P != T2?,Same,1,2,high,132,0.93,96,1.34,132,1.02,Yes,sure,hit,1.3314361572265625,NA
63,#6o1h4m,False,48,2,unequal,ST2_high_4_a2,P != T2?,Same,2,2,high,96,1.39,70,1.47,70,1.44,No,sure,cr,1.3110439777374268,NA
64,#6o1h4m,False,49,2,unequal,ST2_low_3_a1,P != T2?,Same,2,1,low,70,1.78,112,1.17,112,1.12,No,sure,cr,2.282853126525879,NA
65,#6o1h4m,False,50,2,unequal,ST2_low_6_a2,P != T1?,Same,2,2,low,154,0.81,96,1.22,96,1.36,Yes,sure,hit,6.0509960651397705,NA
66,#6o1h4m,False,51,2,unequal,ST1_low_2_a1,P != T2?,Same,1,1,low,132,0.92,82,1.62,132,0.99,Yes,sure,hit,4.054569959640503,NA
67,#6o1h4m,False,52,2,unequal,ST1_low_6_a1,P != T1?,Same,1,1,low,154,0.83,96,1.31,154,0.86,No,sure,cr,1.377497911453247,NA
68,#6o1h4m,False,53,2,unequal,ST2_high_4_a2,P != T1?,Same,2,2,high,96,1.3,70,1.83,70,1.82,Yes,sure,hit,1.6280910968780518,NA
69,#6o1h4m,False,54,2,unequal,ST1_high_3_a1,P != T2?,Same,1,1,high,70,1.41,96,1.12,70,1.68,Yes,quiteSure,hit,5.7694690227508545,NA
70,#6o1h4m,False,55,2,unequal,ST1_high_1_a1,P != T2?,Same,1,1,high,82,1.38,112,0.98,82,1.22,Yes,sure,hit,4.594332218170166,NA
71,#6o1h4m,False,56,2,unequal,ST2_low_2_a2,P != T2?,Same,2,2,low,132,1.03,82,1.61,82,1.3,No,sure,cr,1.3958680629730225,NA
72,#6o1h4m,False,57,2,unequal,DT2_high_6_a1,P != T1?,Different,2,1,high,132,1.05,96,1.18,82,1.63,Yes,sure,hit,3.0800719261169434,NA
73,#6o1h4m,False,58,2,unequal,ST1_low_3_a2,P != T2?,Same,1,2,low,70,1.46,112,1.14,70,1.68,Yes,sure,hit,1.3861701488494873,NA
74,#6o1h4m,False,59,2,unequal,ST1_low_2_a1,P != T1?,Same,1,1,low,132,0.92,82,1.61,132,0.81,No,sure,cr,1.7256059646606445,NA
75,#6o1h4m,False,60,2,unequal,ST1_low_5_a2,P != T2?,Same,1,2,low,96,1.06,154,0.76,96,1.19,Yes,sure,hit,1.4174659252166748,NA
76,#6o1h4m,False,61,2,unequal,ST1_low_3_a2,P != T1?,Same,1,2,low,70,1.61,112,1.17,70,1.47,No,sure,cr,2.0125269889831543,NA
77,#6o1h4m,False,62,2,unequal,ST1_low_5_a1,P != T2?,Same,1,1,low,96,1.16,154,0.87,96,1.26,Yes,sure,hit,1.3997230529785156,NA
78,#6o1h4m,False,63,2,unequal,ST2_high_6_a2,P != T2?,Same,2,2,high,132,0.87,96,1.37,96,1.25,No,sure,cr,1.39668607711792,NA
79,#6o1h4m,False,64,2,unequal,ST1_low_6_a1,P != T1?,Same,1,1,low,154,0.92,96,1.2,154,0.94,No,sure,cr,1.3866379261016846,NA
80,#6o1h4m,False,65,2,unequal,ST1_low_3_a2,P != T2?,Same,1,2,low,70,1.53,112,1.08,70,1.9,Yes,sure,hit,1.2373580932617188,NA
81,#6o1h4m,False,66,2,unequal,ST2_low_3_a1,P != T1?,Same,2,1,low,70,1.63,112,0.92,112,1.01,Yes,sure,hit,1.1346638202667236,NA
82,#6o1h4m,False,67,2,unequal,ST2_low_1_a2,P != T1?,Same,2,2,low,82,1.49,132,0.82,132,0.82,Yes,sure,hit,1.047332763671875,NA
83,#6o1h4m,False,68,2,unequal,ST2_high_3_a2,P != T1?,Same,2,2,high,70,1.76,96,1.41,96,1.19,Yes,sure,hit,1.8349950313568115,NA
84,#6o1h4m,False,69,2,unequal,ST2_high_5_a1,P != T2?,Same,2,1,high,96,1.14,132,1.06,132,0.79,No,sure,cr,1.3598120212554932,NA
85,#6o1h4m,False,70,2,unequal,ST2_high_2_a1,P != T1?,Same,2,1,high,112,1.2,82,1.43,82,1.51,Yes,sure,hit,1.2318429946899414,NA
86,#6o1h4m,False,71,2,unequal,DT2_high_4_a2,P != T1?,Different,2,2,high,96,1.16,70,1.85,60,1.88,No,quiteSure,miss,1.9443471431732178,NA
87,#6o1h4m,False,72,2,unequal,ST2_low_4_a1,P != T2?,Same,2,1,low,112,1.2,70,1.83,70,1.39,No,sure,cr,1.2374873161315918,NA
88,#6o1h4m,False,73,2,unequal,ST1_high_3_a1,P != T1?,Same,1,1,high,70,1.43,96,1.29,70,1.68,No,sure,cr,1.7860329151153564,NA
89,#6o1h4m,False,74,2,unequal,ST2_low_5_a1,P != T1?,Same,2,1,low,96,1.43,154,0.84,154,0.83,Yes,sure,hit,1.3159160614013672,NA
90,#6o1h4m,False,75,2,unequal,ST2_high_2_a1,P != T1?,Same,2,1,high,112,1.08,82,1.64,82,1.39,Yes,sure,hit,1.2865657806396484,NA
91,#6o1h4m,False,76,2,unequal,ST1_low_6_a1,P != T2?,Same,1,1,low,154,0.88,96,1.3,154,0.8,Yes,sure,hit,1.334911823272705,NA
92,#6o1h4m,False,77,2,unequal,ST1_high_4_a2,P != T1?,Same,1,2,high,96,1.18,70,1.4,96,1.09,No,sure,cr,1.157331943511963,NA
93,#6o1h4m,False,78,2,unequal,ST2_high_1_a1,P != T2?,Same,2,1,high,82,1.28,112,1.19,112,0.99,No,sure,cr,1.170172929763794,NA
94,#6o1h4m,False,79,2,unequal,ST2_high_1_a2,P != T1?,Same,2,2,high,82,1.29,112,1.03,112,1.01,Yes,sure,hit,1.0821938514709473,NA
95,#6o1h4m,False,80,2,unequal,ST2_low_3_a2,P != T2?,Same,2,2,low,70,1.5,112,0.99,112,1.11,No,sure,cr,1.345884084701538,NA
96,#6o1h4m,False,81,2,unequal,ST2_low_6_a1,P != T2?,Same,2,1,low,154,0.76,96,1.39,96,1.42,No,sure,cr,1.5136091709136963,NA
97,#6o1h4m,False,82,2,unequal,ST1_high_1_a2,P != T2?,Same,1,2,high,82,1.32,112,1.17,82,1.27,Yes,sure,hit,6.068110227584839,NA
98,#6o1h4m,False,83,2,unequal,ST1_high_4_a2,P != T2?,Same,1,2,high,96,1.23,70,1.77,96,1.35,Yes,sure,hit,1.6322550773620605,NA
99,#6o1h4m,False,84,2,unequal,ST1_high_5_a2,P != T2?,Same,1,2,high,96,1.07,132,1.05,96,1.21,Yes,sure,hit,1.2119569778442383,NA
100,#6o1h4m,False,85,2,unequal,ST2_high_2_a2,P != T2?,Same,2,2,high,112,0.98,82,1.54,82,1.26,No,sure,cr,1.6104938983917236,NA
101,#6o1h4m,False,86,2,unequal,ST2_low_5_a2,P != T1?,Same,2,2,low,96,1.11,154,0.96,154,0.73,Yes,sure,hit,2.064016103744507,NA
102,#6o1h4m,False,87,2,unequal,STb_8_a1,P != T2?,Same,0,1,None,180,0.79,180,0.94,180,0.72,No,quiteSure,cr,1.590688943862915,NA
103,#6o1h4m,False,88,2,unequal,ST2_low_6_a1,P != T1?,Same,2,1,low,154,0.83,96,1.34,96,1.33,Yes,sure,hit,4.447608947753906,NA
104,#6o1h4m,False,89,2,unequal,ST1_high_5_a1,P != T2?,Same,1,1,high,96,1.28,132,1.01,96,1.32,Yes,sure,hit,3.0778820514678955,NA
105,#6o1h4m,False,90,2,unequal,ST2_low_4_a1,P != T1?,Same,2,1,low,112,1.23,70,1.82,70,1.56,Yes,sure,hit,1.1076610088348389,NA
106,#6o1h4m,False,91,2,unequal,ST2_high_4_a1,P != T1?,Same,2,1,high,96,1.41,70,1.81,70,1.7,Yes,sure,hit,1.1190011501312256,NA
107,#6o1h4m,False,92,2,unequal,ST2_low_5_a2,P != T2?,Same,2,2,low,96,1.1,154,0.82,154,0.91,No,sure,cr,1.3221790790557861,NA
108,#6o1h4m,False,93,2,unequal,STb_3_a2,P != T2?,Same,0,2,None,82,1.42,82,1.63,82,1.36,No,sure,cr,0.7809832096099854,NA
109,#6o1h4m,False,94,2,unequal,ST2_low_4_a2,P != T1?,Same,2,2,low,112,1.12,70,1.62,70,1.5,Yes,sure,hit,1.0260698795318604,NA
110,#6o1h4m,False,95,2,unequal,ST2_high_1_a2,P != T2?,Same,2,2,high,82,1.34,112,0.93,112,1.12,No,sure,cr,1.4030201435089111,NA
111,#6o1h4m,False,96,2,unequal,ST1_high_3_a2,P != T1?,Same,1,2,high,70,1.61,96,1.12,70,1.39,No,sure,cr,1.8776352405548096,NA
112,#6o1h4m,False,97,2,unequal,ST2_high_5_a2,P != T2?,Same,2,2,high,96,1.4,132,1.0,132,0.82,No,sure,cr,3.3657710552215576,NA
113,#6o1h4m,False,98,2,unequal,ST1_low_1_a1,P != T1?,Same,1,1,low,82,1.38,132,0.99,82,1.61,No,sure,cr,2.935379981994629,NA
114,#6o1h4m,False,99,2,unequal,ST1_high_3_a1,P != T2?,Same,1,1,high,70,1.77,96,1.15,70,1.59,Yes,sure,hit,5.370550870895386,NA
115,#6o1h4m,False,100,2,unequal,ST1_high_6_a2,P != T1?,Same,1,2,high,132,1.01,96,1.2,132,0.79,No,sure,cr,3.5985798835754395,NA
116,#6o1h4m,False,101,2,unequal,ST1_low_3_a1,P != T2?,Same,1,1,low,70,1.41,112,1.18,70,1.81,Yes,sure,hit,1.316831111907959,NA
117,#6o1h4m,False,102,2,unequal,ST1_low_1_a1,P != T1?,Same,1,1,low,82,1.41,132,0.91,82,1.22,No,sure,cr,2.1478261947631836,NA
118,#6o1h4m,False,103,2,unequal,DT1_low_5_a1,P != T1?,Different,1,1,low,96,1.29,154,0.77,82,1.34,No,sure,cr,2.4721858501434326,NA
119,#6o1h4m,False,104,2,unequal,ST1_high_1_a2,P != T1?,Same,1,2,high,82,1.3,112,1.06,82,1.3,No,sure,cr,1.3261070251464844,NA
120,#6o1h4m,False,105,2,unequal,ST1_low_5_a1,P != T1?,Same,1,1,low,96,1.08,154,0.8,96,1.36,No,sure,cr,1.736739158630371,NA
121,#6o1h4m,False,106,2,unequal,ST2_high_6_a1,P != T1?,Same,2,1,high,132,0.95,96,1.07,96,1.4,Yes,sure,hit,1.1877360343933105,NA
122,#6o1h4m,False,107,2,unequal,ST2_high_2_a2,P != T2?,Same,2,2,high,112,1.09,82,1.24,82,1.39,No,sure,cr,1.3717882633209229,NA
123,#6o1h4m,False,108,2,unequal,ST1_high_1_a1,P != T1?,Same,1,1,high,82,1.36,112,1.23,82,1.44,No,sure,cr,1.2991139888763428,NA
124,#6o1h4m,False,109,2,unequal,ST2_high_5_a2,P != T1?,Same,2,2,high,96,1.31,132,0.89,132,0.9,Yes,sure,hit,1.1182971000671387,NA
125,#6o1h4m,False,110,2,unequal,ST2_low_3_a2,P != T1?,Same,2,2,low,70,1.7,112,1.17,112,1.04,Yes,sure,hit,1.9328787326812744,NA
126,#6o1h4m,False,111,2,unequal,ST1_low_5_a1,P != T1?,Same,1,1,low,96,1.19,154,0.81,96,1.29,No,sure,cr,1.374180793762207,NA
127,#6o1h4m,False,112,2,unequal,ST2_high_3_a1,P != T1?,Same,2,1,high,70,1.65,96,1.49,96,1.24,Yes,sure,hit,1.682600736618042,NA
128,#6o1h4m,False,113,2,unequal,ST1_low_6_a1,P != T2?,Same,1,1,low,154,0.92,96,1.13,154,0.89,Yes,sure,hit,1.091953992843628,NA
129,#6o1h4m,False,114,2,unequal,ST1_high_3_a2,P != T2?,Same,1,2,high,70,1.39,96,1.19,70,1.48,Yes,sure,hit,2.527233839035034,NA
130,#6o1h4m,False,115,2,unequal,ST1_low_4_a2,P != T2?,Same,1,2,low,112,0.98,70,1.6,112,1.2,Yes,sure,hit,1.061018943786621,NA
131,#6o1h4m,False,116,2,unequal,ST1_low_5_a1,P != T2?,Same,1,1,low,96,1.25,154,0.84,96,1.07,Yes,sure,hit,1.0812489986419678,NA
132,#6o1h4m,False,117,2,unequal,ST1_low_6_a1,P != T2?,Same,1,1,low,154,0.89,96,1.06,154,0.93,Yes,sure,hit,2.0869319438934326,NA
133,#6o1h4m,False,118,2,unequal,ST2_high_6_a1,P != T1?,Same,2,1,high,132,0.86,96,1.1,96,1.39,Yes,sure,hit,1.1502759456634521,NA
134,#6o1h4m,False,119,2,unequal,ST1_high_5_a2,P != T1?,Same,1,2,high,96,1.12,132,0.92,96,1.15,No,sure,cr,4.01056694984436,NA
135,#6o1h4m,False,120,2,unequal,ST1_high_4_a1,P != T2?,Same,1,1,high,96,1.26,70,1.8,96,1.41,Yes,sure,hit,3.025393009185791,NA
136,#6o1h4m,False,121,2,unequal,ST1_low_4_a1,P != T1?,Same,1,1,low,112,1.13,70,1.68,112,1.05,No,sure,cr,1.6590242385864258,NA
137,#6o1h4m,False,122,2,unequal,ST2_high_5_a2,P != T1?,Same,2,2,high,96,1.15,132,0.8,132,0.79,Yes,sure,hit,1.1409211158752441,NA
138,#6o1h4m,False,123,2,unequal,ST2_high_2_a1,P != T2?,Same,2,1,high,112,1.22,82,1.23,82,1.22,No,sure,cr,3.3441081047058105,NA
139,#6o1h4m,False,124,2,unequal,ST2_high_3_a1,P != T2?,Same,2,1,high,70,1.56,96,1.36,96,1.17,No,sure,cr,2.096027135848999,NA
140,#6o1h4m,False,125,2,unequal,ST1_low_2_a1,P != T2?,Same,1,1,low,132,0.87,82,1.23,132,0.98,Yes,sure,hit,2.01517391204834,NA
141,#6o1h4m,False,126,2,unequal,ST2_high_5_a1,P != T2?,Same,2,1,high,96,1.38,132,0.97,132,0.97,No,sure,cr,3.1780078411102295,NA
142,#6o1h4m,False,127,2,unequal,ST2_high_6_a2,P != T1?,Same,2,2,high,132,0.86,96,1.17,96,1.22,Yes,sure,hit,2.6466522216796875,NA
143,#6o1h4m,False,128,2,unequal,ST2_low_6_a2,P != T1?,Same,2,2,low,154,0.71,96,1.27,96,1.35,Yes,sure,hit,1.4399096965789795,NA
144,#6o1h4m,False,129,2,unequal,ST2_low_1_a1,P != T1?,Same,2,1,low,82,1.25,132,0.95,132,1.0,Yes,sure,hit,1.3002357482910156,NA
145,#6o1h4m,False,130,2,unequal,ST2_low_1_a2,P != T2?,Same,2,2,low,82,1.55,132,0.82,132,0.88,No,sure,cr,2.2948691844940186,NA
146,#6o1h4m,False,131,2,unequal,ST2_low_6_a1,P != T1?,Same,2,1,low,154,0.88,96,1.13,96,1.14,Yes,sure,hit,1.288661003112793,NA
147,#6o1h4m,False,132,2,unequal,ST2_low_5_a2,P != T2?,Same,2,2,low,96,1.06,154,0.83,154,0.84,No,sure,cr,1.164635181427002,NA
148,#6o1h4m,False,133,2,unequal,ST2_high_4_a2,P != T1?,Same,2,2,high,96,1.26,70,1.65,70,1.61,Yes,sure,hit,2.27129864692688,NA
149,#6o1h4m,False,134,2,unequal,ST1_high_2_a2,P != T2?,Same,1,2,high,112,0.94,82,1.47,112,1.03,No,quiteSure,miss,6.749199867248535,NA
150,#6o1h4m,False,135,2,unequal,ST1_low_1_a2,P != T1?,Same,1,2,low,82,1.63,132,0.92,82,1.46,No,sure,cr,1.3292241096496582,NA
151,#6o1h4m,False,136,2,unequal,ST2_low_5_a1,P != T1?,Same,2,1,low,96,1.28,154,0.85,154,0.75,Yes,sure,hit,1.2658510208129883,NA
152,#6o1h4m,False,137,2,unequal,ST1_high_2_a1,P != T2?,Same,1,1,high,112,0.97,82,1.48,112,1.14,Yes,sure,hit,1.2077629566192627,NA
153,#6o1h4m,False,138,2,unequal,ST2_high_1_a2,P != T1?,Same,2,2,high,82,1.27,112,1.02,112,1.15,Yes,sure,hit,1.2876839637756348,NA
154,#6o1h4m,False,139,2,unequal,ST2_high_4_a2,P != T2?,Same,2,2,high,96,1.42,70,1.61,70,1.5,No,sure,cr,1.1409721374511719,NA
155,#6o1h4m,False,140,2,unequal,ST2_high_4_a1,P != T2?,Same,2,1,high,96,1.14,70,1.44,70,1.68,No,sure,cr,1.248338222503662,NA
156,#6o1h4m,False,141,2,unequal,DT2_low_1_a1,P != T2?,Different,2,1,low,82,1.55,132,1.01,154,0.75,No,quiteSure,cr,1.8279609680175781,NA
157,#6o1h4m,False,142,2,unequal,ST2_high_6_a1,P != T2?,Same,2,1,high,132,0.93,96,1.06,96,1.24,No,sure,cr,3.4506828784942627,NA
158,#6o1h4m,False,143,2,unequal,ST1_high_6_a1,P != T2?,Same,1,1,high,132,1.01,96,1.28,132,0.89,Yes,sure,hit,2.2176408767700195,NA
159,#6o1h4m,False,144,2,unequal,ST2_low_6_a2,P != T2?,Same,2,2,low,154,0.95,96,1.19,96,1.2,No,sure,cr,1.3808817863464355,NA
160,#6o1h4m,False,145,2,unequal,ST1_high_1_a1,P != T1?,Same,1,1,high,82,1.31,112,0.93,82,1.33,No,sure,cr,1.6015760898590088,NA
161,#6o1h4m,False,146,2,unequal,ST2_low_4_a2,P != T1?,Same,2,2,low,112,0.93,70,1.75,70,1.38,Yes,sure,hit,1.369999885559082,NA
162,#6o1h4m,False,147,2,unequal,ST2_low_2_a1,P != T2?,Same,2,1,low,132,0.91,82,1.26,82,1.58,No,quiteSure,cr,2.4488699436187744,NA
163,#6o1h4m,False,148,2,unequal,ST1_low_2_a1,P != T2?,Same,1,1,low,132,0.85,82,1.35,132,1.06,Yes,sure,hit,2.3781120777130127,NA
164,#6o1h4m,False,149,2,unequal,ST1_low_3_a2,P != T1?,Same,1,2,low,70,1.82,112,1.14,70,1.75,No,sure,cr,1.2137370109558105,NA
165,#6o1h4m,False,150,2,unequal,ST1_low_2_a2,P != T1?,Same,1,2,low,132,0.85,82,1.58,132,1.05,No,sure,cr,1.4701330661773682,NA
166,#6o1h4m,False,151,2,unequal,ST2_high_5_a1,P != T1?,Same,2,1,high,96,1.16,132,1.03,132,0.96,Yes,sure,hit,1.2020411491394043,NA
167,#6o1h4m,False,152,2,unequal,ST2_low_2_a1,P != T1?,Same,2,1,low,132,0.93,82,1.41,82,1.36,Yes,sure,hit,2.1915969848632812,NA
168,#6o1h4m,False,153,2,unequal,DT2_high_1_a1,P != T2?,Different,2,1,high,82,1.09,112,0.91,132,1.02,Yes,unsure,fa,8.932531833648682,NA
169,#6o1h4m,False,154,2,unequal,ST1_low_3_a1,P != T1?,Same,1,1,low,70,1.7,112,1.08,70,1.51,No,sure,cr,1.5905108451843262,NA
170,#6o1h4m,False,155,2,unequal,STb_2_a2,P != T1?,Same,0,2,None,70,1.44,70,1.67,70,1.48,No,sure,cr,1.281095027923584,NA
171,#6o1h4m,False,156,2,unequal,ST1_low_4_a2,P != T1?,Same,1,2,low,112,0.93,70,1.53,112,0.92,No,sure,cr,1.328922986984253,NA
172,#6o1h4m,False,157,2,unequal,ST1_low_4_a1,P != T1?,Same,1,1,low,112,1.21,70,1.53,112,1.12,No,sure,cr,1.5079188346862793,NA
173,#6o1h4m,False,158,2,unequal,STb_4_a1,P != T1?,Same,0,1,None,96,1.25,96,0.94,96,1.28,No,sure,cr,0.5083849430084229,NA
174,#6o1h4m,False,159,2,unequal,DT2_high_4_a2,P != T2?,Different,2,2,high,96,1.25,70,1.44,60,2.03,Yes,quiteSure,fa,4.983633756637573,NA
175,#6o1h4m,False,160,2,unequal,ST1_low_6_a2,P != T2?,Same,1,2,low,154,0.87,96,1.14,154,0.95,Yes,sure,hit,1.423490047454834,NA
176,#6o1h4m,False,161,2,unequal,ST1_high_6_a1,P != T1?,Same,1,1,high,132,0.91,96,1.22,132,0.97,No,sure,cr,4.519747734069824,NA
177,#6o1h4m,False,162,2,unequal,ST2_high_5_a2,P != T2?,Same,2,2,high,96,1.23,132,0.91,132,1.05,No,sure,cr,1.3061912059783936,NA
178,#6o1h4m,False,163,2,unequal,ST1_high_5_a1,P != T1?,Same,1,1,high,96,1.09,132,0.8,96,1.38,No,sure,cr,1.8488249778747559,NA
179,#6o1h4m,False,164,2,unequal,ST1_low_6_a2,P != T1?,Same,1,2,low,154,0.88,96,1.15,154,0.78,No,sure,cr,2.492398977279663,NA
180,#6o1h4m,False,165,2,unequal,ST1_high_6_a1,P != T2?,Same,1,1,high,132,0.85,96,1.31,132,0.86,Yes,sure,hit,4.146979808807373,NA
181,#6o1h4m,False,166,2,unequal,ST1_low_5_a1,P != T2?,Same,1,1,low,96,1.1,154,0.73,96,1.34,Yes,sure,hit,1.6757512092590332,NA
182,#6o1h4m,False,167,2,unequal,ST2_low_3_a2,P != T2?,Same,2,2,low,70,1.42,112,1.04,112,1.22,No,sure,cr,1.2489981651306152,NA
183,#6o1h4m,False,168,2,unequal,ST2_high_2_a2,P != T1?,Same,2,2,high,112,0.94,82,1.26,82,1.22,Yes,sure,hit,1.2041869163513184,NA
184,#6o1h4m,False,169,2,unequal,ST1_high_2_a2,P != T1?,Same,1,2,high,112,1.08,82,1.55,112,1.13,No,sure,cr,1.5408039093017578,NA
185,#6o1h4m,False,170,2,unequal,ST2_high_2_a2,P != T2?,Same,2,2,high,112,1.18,82,1.55,82,1.3,No,sure,cr,2.5684421062469482,NA
186,#6o1h4m,False,171,2,unequal,ST1_high_3_a1,P != T2?,Same,1,1,high,70,1.52,96,1.14,70,1.38,Yes,sure,hit,3.781987190246582,NA
187,#6o1h4m,False,172,2,unequal,ST1_high_3_a2,P != T2?,Same,1,2,high,70,1.4,96,1.23,70,1.42,Yes,sure,hit,3.230018138885498,NA
188,#6o1h4m,False,173,2,unequal,ST1_high_2_a2,P != T2?,Same,1,2,high,112,1.09,82,1.39,112,1.04,Yes,sure,hit,3.2245728969573975,NA
189,#6o1h4m,False,174,2,unequal,ST2_low_6_a2,P != T1?,Same,2,2,low,154,0.83,96,1.11,96,1.07,Yes,sure,hit,1.0350582599639893,NA
190,#6o1h4m,False,175,2,unequal,DT2_high_5_a1,P != T1?,Different,2,1,high,96,1.41,132,1.02,154,0.77,Yes,sure,hit,3.5828778743743896,NA
191,#6o1h4m,False,176,2,unequal,ST1_low_2_a2,P != T2?,Same,1,2,low,132,0.8,82,1.27,132,0.94,Yes,sure,hit,2.5049593448638916,NA
192,#6o1h4m,False,177,2,unequal,ST1_low_1_a2,P != T2?,Same,1,2,low,82,1.32,132,0.89,82,1.44,Yes,sure,hit,2.544462203979492,NA
193,#6o1h4m,False,178,2,unequal,ST2_low_4_a2,P != T2?,Same,2,2,low,112,0.93,70,1.4,70,1.78,No,sure,cr,1.2914419174194336,NA
194,#6o1h4m,False,179,2,unequal,ST2_high_1_a1,P != T2?,Same,2,1,high,82,1.6,112,1.2,112,1.14,No,sure,cr,2.15213680267334,NA
195,#6o1h4m,False,180,2,unequal,ST2_low_1_a2,P != T1?,Same,2,2,low,82,1.54,132,1.03,132,0.95,Yes,sure,hit,1.444977045059204,NA
196,#6o1h4m,False,181,2,unequal,ST1_high_5_a1,P != T1?,Same,1,1,high,96,1.08,132,0.88,96,1.19,No,sure,cr,1.673619031906128,NA
197,#6o1h4m,False,182,2,unequal,ST1_low_4_a1,P != T1?,Same,1,1,low,112,1.2,70,1.72,112,1.22,No,sure,cr,1.4360020160675049,NA
198,#6o1h4m,False,183,2,unequal,ST2_low_5_a1,P != T1?,Same,2,1,low,96,1.11,154,0.72,154,0.91,Yes,sure,hit,1.8577790260314941,NA
199,#6o1h4m,False,184,2,unequal,ST2_low_4_a1,P != T2?,Same,2,1,low,112,1.18,70,1.58,70,1.8,No,sure,cr,0.9903130531311035,NA
200,#6o1h4m,False,185,2,unequal,ST1_high_4_a1,P != T1?,Same,1,1,high,96,1.1,70,1.71,96,1.12,No,sure,cr,1.339818000793457,NA
201,#6o1h4m,False,186,2,unequal,ST1_low_2_a1,P != T1?,Same,1,1,low,132,0.87,82,1.24,132,0.8,No,sure,cr,1.3498597145080566,NA
202,#6o1h4m,False,187,2,unequal,ST2_low_2_a2,P != T2?,Same,2,2,low,132,0.85,82,1.36,82,1.42,No,sure,cr,1.2116928100585938,NA
203,#6o1h4m,False,188,2,unequal,ST1_low_2_a2,P != T2?,Same,1,2,low,132,1.01,82,1.35,132,0.81,Yes,sure,hit,1.115182876586914,NA
204,#6o1h4m,False,189,2,unequal,ST2_low_3_a2,P != T1?,Same,2,2,low,70,1.45,112,1.23,112,0.92,Yes,sure,hit,1.1508080959320068,NA
205,#6o1h4m,False,190,2,unequal,ST1_high_6_a2,P != T1?,Same,1,2,high,132,1.02,96,1.36,132,0.91,No,sure,cr,2.924225091934204,NA
206,#6o1h4m,False,191,2,unequal,ST1_high_1_a2,P != T2?,Same,1,2,high,82,1.52,112,1.09,82,1.31,Yes,sure,hit,2.2138569355010986,NA
207,#6o1h4m,False,192,2,unequal,ST2_low_5_a1,P != T2?,Same,2,1,low,96,1.27,154,0.8,154,0.93,No,sure,cr,1.2566123008728027,NA
208,#6o1h4m,False,193,2,unequal,ST2_high_3_a1,P != T2?,Same,2,1,high,70,1.75,96,1.35,96,1.11,No,sure,cr,1.0154170989990234,NA
209,#6o1h4m,False,194,2,unequal,ST2_low_6_a1,P != T1?,Same,2,1,low,154,0.77,96,1.42,96,1.41,Yes,sure,hit,0.9617819786071777,NA
210,#6o1h4m,False,195,2,unequal,ST2_low_2_a2,P != T1?,Same,2,2,low,132,0.84,82,1.49,82,1.5,Yes,sure,hit,1.577359914779663,NA
211,#6o1h4m,False,196,2,unequal,ST2_high_3_a2,P != T1?,Same,2,2,high,70,1.51,96,1.32,96,1.12,Yes,sure,hit,1.109105110168457,NA
212,#6o1h4m,False,197,2,unequal,DT2_low_2_a1,P != T1?,Different,2,1,low,132,1.04,82,1.49,70,1.45,Yes,sure,hit,1.423807144165039,NA
213,#6o1h4m,False,198,2,unequal,ST2_low_4_a2,P != T1?,Same,2,2,low,112,1.23,70,1.47,70,1.56,Yes,sure,hit,1.1057052612304688,NA
214,#6o1h4m,False,199,2,unequal,ST2_low_5_a2,P != T1?,Same,2,2,low,96,1.23,154,0.94,154,0.73,Yes,sure,hit,1.2564010620117188,NA
215,#6o1h4m,False,200,2,unequal,ST2_low_1_a2,P != T2?,Same,2,2,low,82,1.31,132,0.81,132,0.95,No,sure,cr,2.338992118835449,NA
216,#6o1h4m,False,201,2,unequal,ST1_low_3_a1,P != T2?,Same,1,1,low,70,1.41,112,1.17,70,1.48,Yes,sure,hit,1.5567009449005127,NA
217,#6o1h4m,False,202,2,unequal,ST1_high_2_a1,P != T2?,Same,1,1,high,112,1.14,82,1.62,112,0.93,Yes,sure,hit,1.4600152969360352,NA
218,#6o1h4m,False,203,2,unequal,ST2_high_4_a2,P != T1?,Same,2,2,high,96,1.24,70,1.57,70,1.51,Yes,sure,hit,0.9146287441253662,NA
219,#6o1h4m,False,204,2,unequal,ST1_low_4_a2,P != T2?,Same,1,2,low,112,1.2,70,1.49,112,0.95,Yes,sure,hit,1.0373170375823975,NA
220,#6o1h4m,False,205,2,unequal,ST1_low_4_a2,P != T1?,Same,1,2,low,112,1.16,70,1.44,112,0.97,No,sure,cr,1.6568830013275146,NA
221,#6o1h4m,False,206,2,unequal,ST2_low_4_a1,P != T1?,Same,2,1,low,112,0.95,70,1.62,70,1.39,Yes,sure,hit,0.9645102024078369,NA
222,#6o1h4m,False,207,2,unequal,ST2_high_2_a2,P != T1?,Same,2,2,high,112,1.23,82,1.29,82,1.52,Yes,sure,hit,1.152235984802246,NA
223,#6o1h4m,False,208,2,unequal,ST1_low_2_a1,P != T1?,Same,1,1,low,132,1.01,82,1.28,132,0.87,No,sure,cr,1.5119280815124512,NA
224,#6o1h4m,False,209,2,unequal,ST2_low_5_a1,P != T2?,Same,2,1,low,96,1.22,154,0.95,154,0.85,No,sure,cr,1.8883180618286133,NA
225,#6o1h4m,False,210,2,unequal,ST1_low_5_a2,P != T2?,Same,1,2,low,96,1.12,154,0.78,96,1.28,Yes,sure,hit,3.1810169219970703,NA
226,#6o1h4m,False,211,2,unequal,ST2_low_6_a2,P != T2?,Same,2,2,low,154,0.73,96,1.39,96,1.41,No,sure,cr,3.585240125656128,NA
227,#6o1h4m,False,212,2,unequal,ST2_high_6_a2,P != T1?,Same,2,2,high,132,0.84,96,1.39,96,1.28,Yes,sure,hit,1.0851681232452393,NA
228,#6o1h4m,False,213,2,unequal,ST1_high_3_a2,P != T1?,Same,1,2,high,70,1.82,96,1.24,70,1.63,No,sure,cr,2.7519922256469727,NA
229,#6o1h4m,False,214,2,unequal,ST2_high_4_a1,P != T2?,Same,2,1,high,96,1.19,70,1.77,70,1.81,No,sure,cr,1.234266996383667,NA
230,#6o1h4m,False,215,2,unequal,ST1_low_6_a1,P != T1?,Same,1,1,low,154,0.78,96,1.35,154,0.84,No,sure,cr,2.6565470695495605,NA
231,#6o1h4m,False,216,2,unequal,ST1_low_1_a2,P != T1?,Same,1,2,low,82,1.61,132,0.89,82,1.49,No,sure,cr,2.231581926345825,NA
232,#6o1h4m,False,217,2,unequal,ST2_low_1_a1,P != T2?,Same,2,1,low,82,1.46,132,0.84,132,1.06,No,sure,cr,1.0396459102630615,NA
233,#6o1h4m,False,218,2,unequal,ST2_high_2_a2,P != T1?,Same,2,2,high,112,0.98,82,1.36,82,1.24,Yes,sure,hit,0.9472610950469971,NA
234,#6o1h4m,False,219,2,unequal,ST2_low_4_a1,P != T1?,Same,2,1,low,112,0.99,70,1.74,70,1.47,Yes,sure,hit,2.35430908203125,NA
235,#6o1h4m,False,220,2,unequal,ST2_high_4_a1,P != T1?,Same,2,1,high,96,1.37,70,1.39,70,1.83,Yes,sure,hit,1.517704963684082,NA
236,#6o1h4m,False,221,2,unequal,ST2_low_1_a1,P != T2?,Same,2,1,low,82,1.31,132,0.82,132,0.88,No,sure,cr,1.548994779586792,NA
237,#6o1h4m,False,222,2,unequal,ST2_high_3_a2,P != T1?,Same,2,2,high,70,1.42,96,1.14,96,1.18,Yes,sure,hit,1.2565281391143799,NA
238,#6o1h4m,False,223,2,unequal,ST2_high_6_a1,P != T2?,Same,2,1,high,132,1.05,96,1.33,96,1.11,No,sure,cr,1.150933027267456,NA
239,#6o1h4m,False,224,2,unequal,STb_2_a1,P != T2?,Same,0,1,None,70,1.61,70,1.44,70,1.67,No,sure,cr,0.6198079586029053,NA
240,#6o1h4m,False,225,2,unequal,ST2_low_6_a1,P != T2?,Same,2,1,low,154,0.74,96,1.1,96,1.25,No,sure,cr,1.5501701831817627,NA
241,#6o1h4m,False,226,2,unequal,ST1_high_5_a2,P != T1?,Same,1,2,high,96,1.41,132,0.98,96,1.27,No,sure,cr,1.7847161293029785,NA
242,#6o1h4m,False,227,2,unequal,DT2_high_5_a2,P != T2?,Different,2,2,high,96,1.08,132,0.91,154,0.91,No,unsure,cr,4.461266040802002,NA
243,#6o1h4m,False,228,2,unequal,ST2_high_6_a1,P != T2?,Same,2,1,high,132,0.85,96,1.23,96,1.35,No,sure,cr,1.8327281475067139,NA
244,#6o1h4m,False,229,2,unequal,ST2_high_5_a2,P != T1?,Same,2,2,high,96,1.23,132,0.92,132,0.93,Yes,sure,hit,1.323606014251709,NA
245,#6o1h4m,False,230,2,unequal,ST2_low_5_a2,P != T1?,Same,2,2,low,96,1.36,154,0.89,154,0.85,Yes,sure,hit,1.571845293045044,NA
246,#6o1h4m,False,231,2,unequal,ST1_low_1_a1,P != T2?,Same,1,1,low,82,1.5,132,0.83,82,1.41,Yes,sure,hit,1.1459410190582275,NA
247,#6o1h4m,False,232,2,unequal,DT1_low_1_a2,P != T2?,Different,1,2,low,82,1.4,132,1.02,70,1.43,Yes,sure,hit,2.3616230487823486,NA
248,#6o1h4m,False,233,2,unequal,STb_8_a2,P != T1?,Same,0,2,None,180,0.91,180,0.76,180,0.94,No,sure,cr,1.7306008338928223,NA
249,#6o1h4m,False,234,2,unequal,ST1_high_2_a1,P != T1?,Same,1,1,high,112,0.97,82,1.22,112,1.15,No,sure,cr,5.211845874786377,NA
250,#6o1h4m,False,235,2,unequal,ST2_low_2_a2,P != T1?,Same,2,2,low,132,0.92,82,1.38,82,1.54,Yes,sure,hit,1.104456901550293,NA
251,#6o1h4m,False,236,2,unequal,ST1_high_3_a1,P != T1?,Same,1,1,high,70,1.38,96,1.18,70,1.81,No,sure,cr,1.531574010848999,NA
252,#6o1h4m,False,237,2,unequal,ST1_high_2_a1,P != T2?,Same,1,1,high,112,1.13,82,1.5,112,1.09,Yes,sure,hit,1.6983668804168701,NA
253,#6o1h4m,False,238,2,unequal,STb_5_a2,P != T1?,Same,0,2,None,112,0.94,112,0.93,112,1.04,No,sure,cr,0.5744938850402832,NA
254,#6o1h4m,False,239,2,unequal,ST2_low_5_a2,P != T2?,Same,2,2,low,96,1.11,154,0.78,154,0.87,No,sure,cr,1.1864798069000244,NA
255,#6o1h4m,False,240,2,unequal,ST1_high_5_a2,P != T2?,Same,1,2,high,96,1.35,132,0.98,96,1.38,Yes,sure,hit,1.3726348876953125,NA
256,#6o1h4m,False,241,2,unequal,ST1_high_4_a2,P != T1?,Same,1,2,high,96,1.23,70,1.45,96,1.37,No,sure,cr,1.3680860996246338,NA
257,#6o1h4m,False,242,2,unequal,DT2_high_2_a2,P != T2?,Different,2,2,high,112,1.08,82,1.52,70,1.71,No,quiteSure,cr,4.125687122344971,NA
258,#6o1h4m,False,243,2,unequal,ST1_low_3_a1,P != T1?,Same,1,1,low,70,1.77,112,0.93,70,1.62,No,sure,cr,3.0184850692749023,NA
259,#6o1h4m,False,244,2,unequal,ST1_high_5_a1,P != T2?,Same,1,1,high,96,1.21,132,1.01,96,1.28,Yes,sure,hit,1.2375562191009521,NA
260,#6o1h4m,False,245,2,unequal,STb_8_a2,P != T2?,Same,0,2,None,180,0.77,180,0.86,180,0.76,No,sure,cr,0.9752650260925293,NA
261,#6o1h4m,False,246,2,unequal,ST2_high_4_a1,P != T1?,Same,2,1,high,96,1.18,70,1.38,70,1.83,Yes,sure,hit,0.9555649757385254,NA
262,#6o1h4m,False,247,2,unequal,ST2_low_4_a2,P != T2?,Same,2,2,low,112,0.92,70,1.8,70,1.59,No,sure,cr,1.9121408462524414,NA
263,#6o1h4m,False,248,2,unequal,ST1_high_1_a2,P != T2?,Same,1,2,high,82,1.22,112,1.0,82,1.56,Yes,sure,hit,2.1662681102752686,NA
264,#6o1h4m,False,249,2,unequal,ST1_low_5_a1,P != T1?,Same,1,1,low,96,1.18,154,0.85,96,1.37,No,sure,cr,1.3352928161621094,NA
265,#6o1h4m,False,250,2,unequal,DT1_low_4_a1,P != T1?,Different,1,1,low,112,1.05,70,1.53,132,0.81,Yes,sure,fa,1.759145975112915,NA
266,#6o1h4m,False,251,2,unequal,ST2_low_2_a2,P != T1?,Same,2,2,low,132,1.04,82,1.46,82,1.6,Yes,sure,hit,1.071451187133789,NA
267,#6o1h4m,False,252,2,unequal,STb_2_a1,P != T1?,Same,0,1,None,70,1.61,70,1.39,70,1.44,No,sure,cr,1.3607230186462402,NA
268,#6o1h4m,False,253,2,unequal,ST2_low_3_a1,P != T2?,Same,2,1,low,70,1.46,112,0.99,112,1.15,No,sure,cr,1.9930102825164795,NA
269,#6o1h4m,False,254,2,unequal,ST1_high_6_a2,P != T1?,Same,1,2,high,132,0.92,96,1.23,132,0.83,No,sure,cr,1.2751600742340088,NA
270,#6o1h4m,False,255,2,unequal,ST2_low_3_a1,P != T1?,Same,2,1,low,70,1.44,112,0.95,112,1.01,Yes,sure,hit,1.2996039390563965,NA
271,#6o1h4m,False,256,2,unequal,ST2_high_5_a1,P != T2?,Same,2,1,high,96,1.16,132,0.88,132,0.84,No,sure,cr,0.9783589839935303,NA
272,#6o1h4m,False,257,2,unequal,ST1_low_2_a2,P != T1?,Same,1,2,low,132,1.02,82,1.43,132,0.9,No,sure,cr,1.3481600284576416,NA
273,#6o1h4m,False,258,2,unequal,ST1_high_5_a1,P != T1?,Same,1,1,high,96,1.11,132,0.79,96,1.39,No,sure,cr,2.338010787963867,NA
274,#6o1h4m,False,259,2,unequal,DT2_high_3_a1,P != T2?,Different,2,1,high,70,1.41,96,1.23,112,1.11,No,unsure,cr,7.667468070983887,NA
275,#6o1h4m,False,260,2,unequal,ST2_high_1_a2,P != T1?,Same,2,2,high,82,1.43,112,1.14,112,1.23,Yes,sure,hit,1.8656580448150635,NA
276,#6o1h4m,False,261,2,unequal,ST1_high_3_a2,P != T1?,Same,1,2,high,70,1.63,96,1.32,70,1.53,No,sure,cr,1.2793190479278564,NA
277,#6o1h4m,False,262,2,unequal,ST2_high_2_a1,P != T2?,Same,2,1,high,112,1.14,82,1.25,82,1.33,No,sure,cr,3.479790210723877,NA
278,#6o1h4m,False,263,2,unequal,ST2_high_2_a1,P != T2?,Same,2,1,high,112,0.94,82,1.25,82,1.38,No,sure,cr,1.4570729732513428,NA
279,#6o1h4m,False,264,2,unequal,ST2_low_1_a1,P != T1?,Same,2,1,low,82,1.61,132,0.9,132,0.95,Yes,sure,hit,1.7702741622924805,NA
280,#6o1h4m,False,265,2,unequal,ST1_high_4_a2,P != T2?,Same,1,2,high,96,1.4,70,1.7,96,1.24,Yes,sure,hit,3.74776029586792,NA
281,#6o1h4m,False,266,2,unequal,ST1_high_6_a2,P != T2?,Same,1,2,high,132,0.88,96,1.19,132,0.88,Yes,sure,hit,2.390275239944458,NA
282,#6o1h4m,False,267,2,unequal,ST2_low_4_a2,P != T2?,Same,2,2,low,112,0.94,70,1.64,70,1.63,No,sure,cr,1.0592141151428223,NA
283,#6o1h4m,False,268,2,unequal,ST1_low_6_a2,P != T1?,Same,1,2,low,154,0.87,96,1.29,154,0.94,No,sure,cr,1.4505631923675537,NA
284,#6o1h4m,False,269,2,unequal,ST1_low_5_a2,P != T1?,Same,1,2,low,96,1.07,154,0.92,96,1.35,No,sure,cr,1.7757949829101562,NA
285,#6o1h4m,False,270,2,unequal,ST1_low_4_a2,P != T2?,Same,1,2,low,112,1.02,70,1.72,112,1.08,Yes,sure,hit,2.7468671798706055,NA
286,#6o1h4m,False,271,2,unequal,ST1_high_4_a1,P != T1?,Same,1,1,high,96,1.22,70,1.51,96,1.25,No,sure,cr,1.4580848217010498,NA
287,#6o1h4m,False,272,2,unequal,ST2_low_2_a2,P != T2?,Same,2,2,low,132,0.85,82,1.45,82,1.54,No,sure,cr,1.0384190082550049,NA
288,#6o1h4m,False,273,2,unequal,ST1_high_2_a2,P != T2?,Same,1,2,high,112,1.12,82,1.41,112,0.92,Yes,sure,hit,1.5097830295562744,NA
289,#6o1h4m,False,274,2,unequal,ST2_high_3_a2,P != T2?,Same,2,2,high,70,1.72,96,1.23,96,1.2,No,sure,cr,1.013951063156128,NA
290,#6o1h4m,False,275,2,unequal,STb_1_a1,P != T1?,Same,0,1,None,60,1.89,60,1.57,60,1.65,No,sure,cr,0.46381211280822754,NA
291,#6o1h4m,False,276,2,unequal,ST2_low_2_a1,P != T2?,Same,2,1,low,132,0.98,82,1.62,82,1.46,No,sure,cr,1.3041410446166992,NA
292,#6o1h4m,False,277,2,unequal,ST2_low_2_a1,P != T1?,Same,2,1,low,132,0.8,82,1.59,82,1.35,Yes,sure,hit,1.7014009952545166,NA
293,#6o1h4m,False,278,2,unequal,ST1_high_6_a2,P != T2?,Same,1,2,high,132,0.89,96,1.06,132,0.97,Yes,quiteSure,hit,2.8688721656799316,NA
294,#6o1h4m,False,279,2,unequal,ST1_low_6_a2,P != T1?,Same,1,2,low,154,0.84,96,1.21,154,0.85,No,sure,cr,1.5194299221038818,NA
295,#6o1h4m,False,280,2,unequal,ST2_high_1_a1,P != T1?,Same,2,1,high,82,1.25,112,1.11,112,1.16,Yes,sure,hit,1.1741089820861816,NA
296,#6o1h4m,False,281,2,unequal,ST2_high_6_a2,P != T1?,Same,2,2,high,132,0.88,96,1.35,96,1.07,Yes,sure,hit,1.7246031761169434,NA
297,#6o1h4m,False,282,2,unequal,ST2_low_3_a2,P != T2?,Same,2,2,low,70,1.47,112,1.15,112,1.23,No,sure,cr,2.0485098361968994,NA
298,#6o1h4m,False,283,2,unequal,ST2_low_3_a1,P != T2?,Same,2,1,low,70,1.5,112,1.1,112,1.01,No,sure,cr,1.1813600063323975,NA
299,#6o1h4m,False,284,2,unequal,ST1_high_2_a2,P != T1?,Same,1,2,high,112,1.04,82,1.39,112,1.22,No,sure,cr,2.728516101837158,NA
300,#6o1h4m,False,285,2,unequal,ST1_high_6_a1,P != T1?,Same,1,1,high,132,0.92,96,1.14,132,1.04,No,sure,cr,2.644869089126587,NA
301,#6o1h4m,False,286,2,unequal,STb_5_a2,P != T2?,Same,0,2,None,112,1.0,112,1.05,112,0.93,No,sure,cr,1.0782802104949951,NA
302,#6o1h4m,False,287,2,unequal,STb_5_a1,P != T2?,Same,0,1,None,112,0.93,112,0.96,112,0.91,No,sure,cr,0.5429577827453613,NA
303,#6o1h4m,False,288,2,unequal,ST2_high_3_a1,P != T1?,Same,2,1,high,70,1.44,96,1.24,96,1.2,Yes,sure,hit,2.053218126296997,NA
304,#6o1h4m,False,289,2,unequal,ST1_high_1_a2,P != T1?,Same,1,2,high,82,1.4,112,1.07,82,1.6,No,sure,cr,4.251567125320435,NA
305,#6o1h4m,False,290,2,unequal,ST1_low_4_a1,P != T2?,Same,1,1,low,112,1.06,70,1.73,112,1.22,Yes,sure,hit,1.308638095855713,NA
306,#6o1h4m,False,291,2,unequal,ST2_low_6_a2,P != T2?,Same,2,2,low,154,0.72,96,1.17,96,1.31,No,sure,cr,3.0570268630981445,NA
307,#6o1h4m,False,292,2,unequal,ST1_low_1_a1,P != T2?,Same,1,1,low,82,1.4,132,1.01,82,1.36,Yes,sure,hit,1.2632310390472412,NA
308,#6o1h4m,False,293,2,unequal,ST1_low_6_a2,P != T2?,Same,1,2,low,154,0.91,96,1.07,154,0.78,Yes,sure,hit,2.470870018005371,NA
309,#6o1h4m,False,294,2,unequal,ST1_high_2_a1,P != T1?,Same,1,1,high,112,1.09,82,1.38,112,1.01,No,sure,cr,1.7461352348327637,NA
310,#6o1h4m,False,295,2,unequal,ST2_high_6_a2,P != T2?,Same,2,2,high,132,1.0,96,1.13,96,1.09,No,sure,cr,1.1994450092315674,NA
311,#6o1h4m,False,296,2,unequal,ST1_high_1_a2,P != T1?,Same,1,2,high,82,1.37,112,1.19,82,1.22,No,sure,cr,3.2578392028808594,NA
312,#6o1h4m,False,297,2,unequal,DT1_high_6_a1,P != T1?,Different,1,1,high,132,0.85,96,1.34,154,0.95,No,unsure,cr,6.966291904449463,NA
313,#6o1h4m,False,298,2,unequal,ST1_high_1_a1,P != T1?,Same,1,1,high,82,1.35,112,1.1,82,1.3,No,sure,cr,1.3942692279815674,NA
314,#6o1h4m,False,299,2,unequal,STb_7_a1,P != T1?,Same,0,1,None,154,0.93,154,0.84,154,0.9,No,sure,cr,0.3196249008178711,NA
315,#6o1h4m,False,300,2,unequal,ST1_high_4_a1,P != T2?,Same,1,1,high,96,1.3,70,1.66,96,1.4,Yes,sure,hit,1.3372039794921875,NA
316,#6o1h4m,False,301,2,unequal,ST2_low_2_a1,P != T1?,Same,2,1,low,132,1.03,82,1.45,82,1.37,Yes,sure,hit,0.981032133102417,NA
317,#6o1h4m,False,302,2,unequal,ST1_high_2_a1,P != T1?,Same,1,1,high,112,1.09,82,1.4,112,1.05,No,sure,cr,1.7006158828735352,NA
318,#6o1h4m,False,303,2,unequal,ST1_high_1_a1,P != T2?,Same,1,1,high,82,1.6,112,1.15,82,1.27,Yes,sure,hit,1.0910820960998535,NA
319,#6o1h4m,False,304,2,unequal,ST1_low_3_a2,P != T1?,Same,1,2,low,70,1.53,112,1.05,70,1.46,No,sure,cr,1.7442209720611572,NA
320,#6o1h4m,False,305,2,unequal,ST1_high_5_a2,P != T2?,Same,1,2,high,96,1.21,132,1.06,96,1.31,Yes,sure,hit,1.9283719062805176,NA
321,#6o1h4m,False,306,2,unequal,ST1_low_2_a2,P != T2?,Same,1,2,low,132,1.1,82,1.29,132,0.98,Yes,sure,hit,1.1097211837768555,NA
322,#6o1h4m,False,307,2,unequal,ST1_low_1_a1,P != T1?,Same,1,1,low,82,1.52,132,0.8,82,1.49,No,sure,cr,1.2503068447113037,NA
323,#6o1h4m,False,308,2,unequal,ST2_high_1_a1,P != T2?,Same,2,1,high,82,1.28,112,1.0,112,1.19,No,sure,cr,1.1810531616210938,NA
324,#6o1h4m,False,309,2,unequal,ST2_low_2_a1,P != T2?,Same,2,1,low,132,0.79,82,1.37,82,1.62,No,sure,cr,2.7131919860839844,NA
325,#6o1h4m,False,310,2,unequal,STb_7_a2,P != T1?,Same,0,2,None,154,0.89,154,0.8,154,0.88,No,sure,cr,0.20708012580871582,NA
326,#6o1h4m,False,311,2,unequal,ST1_high_4_a2,P != T1?,Same,1,2,high,96,1.09,70,1.56,96,1.21,No,sure,cr,1.3840179443359375,NA
327,#6o1h4m,False,312,2,unequal,ST1_high_4_a1,P != T2?,Same,1,1,high,96,1.16,70,1.77,96,1.07,Yes,sure,hit,3.971095085144043,NA
328,#6o1h4m,False,313,2,unequal,DT1_low_3_a1,P != T2?,Different,1,1,low,70,1.51,112,1.1,60,1.56,No,unsure,miss,4.2850587368011475,NA
329,#6o1h4m,False,314,2,unequal,ST2_high_4_a1,P != T2?,Same,2,1,high,96,1.38,70,1.75,70,1.52,No,quiteSure,cr,1.3627688884735107,NA
330,#6o1h4m,False,315,2,unequal,ST2_high_4_a2,P != T2?,Same,2,2,high,96,1.18,70,1.76,70,1.43,No,sure,cr,1.340343713760376,NA
331,#6o1h4m,False,316,2,unequal,ST1_low_5_a2,P != T2?,Same,1,2,low,96,1.15,154,0.74,96,1.26,Yes,sure,hit,1.681015968322754,NA
332,#6o1h4m,False,317,2,unequal,ST2_low_1_a1,P != T2?,Same,2,1,low,82,1.56,132,0.99,132,0.79,No,sure,cr,1.2646620273590088,NA
333,#6o1h4m,False,318,2,unequal,ST1_low_3_a2,P != T2?,Same,1,2,low,70,1.52,112,1.12,70,1.63,Yes,sure,hit,4.214243650436401,NA
334,#6o1h4m,False,319,2,unequal,ST1_low_1_a2,P != T2?,Same,1,2,low,82,1.25,132,0.9,82,1.29,Yes,sure,hit,1.7819771766662598,NA
335,#6o1h4m,False,320,2,unequal,ST1_high_6_a1,P != T1?,Same,1,1,high,132,0.82,96,1.29,132,0.88,No,sure,cr,2.4686777591705322,0.75
