,pcode,practice,trial,block,questionType,condition,question,PTS,TargetPosition,AccessoryPosition,TNS,T1_hz,T1_amp,T2_hz,T2_amp,P_hz,P_amp,response_dicho,response_rating,response_sdt,rt,P_correct
0,t3q4!7s,True,1,2,unequal,DT1_high_3_a2,P != T2?,Different,1,2,high,70,1.35,96,1.34,60,1.71,Yes,quiteSure,hit,5.280929088592529,NA
1,t3q4!7s,True,2,2,unequal,ST2_high_3_a2,P != T1?,Same,2,2,high,70,1.61,96,1.46,96,1.26,No,quiteSure,miss,4.0863730907440186,NA
2,t3q4!7s,True,3,2,unequal,STb_7_a2,P != T2?,Same,0,2,None,154,0.83,154,0.75,154,0.9,No,quiteSure,cr,3.1984198093414307,NA
3,t3q4!7s,True,4,2,unequal,DT1_high_5_a1,P != T1?,Different,1,1,high,96,1.11,132,0.79,82,1.5,No,quiteSure,cr,9.129523992538452,NA
4,t3q4!7s,True,5,2,unequal,ST1_high_3_a1,P != T1?,Same,1,1,high,70,1.62,96,1.21,70,1.57,No,quiteSure,cr,2.0051920413970947,NA
5,t3q4!7s,True,6,2,unequal,ST1_low_5_a2,P != T2?,Same,1,2,low,96,1.37,154,0.73,96,1.23,Yes,quiteSure,hit,2.56331205368042,NA
6,t3q4!7s,True,7,2,unequal,ST1_low_4_a1,P != T2?,Same,1,1,low,112,1.0,70,1.37,112,0.94,Yes,quiteSure,hit,3.0080461502075195,NA
7,t3q4!7s,True,8,2,unequal,STb_8_a2,P != T1?,Same,0,2,None,180,0.9,180,0.71,180,0.82,No,quiteSure,cr,1.9817171096801758,NA
8,t3q4!7s,True,9,2,unequal,ST2_high_6_a2,P != T1?,Same,2,2,high,132,0.96,96,1.39,96,1.0,No,quiteSure,miss,2.5066800117492676,NA
9,t3q4!7s,True,10,2,unequal,ST2_high_3_a2,P != T2?,Same,2,2,high,70,1.68,96,1.23,96,1.04,No,quiteSure,cr,2.714237928390503,NA
10,t3q4!7s,True,11,2,unequal,ST1_high_5_a1,P != T1?,Same,1,1,high,96,1.3,132,1.07,96,1.15,No,quiteSure,cr,2.339000940322876,NA
11,t3q4!7s,True,12,2,unequal,DT2_high_5_a2,P != T2?,Different,2,2,high,96,1.34,132,0.82,154,0.96,Yes,quiteSure,fa,2.027778148651123,NA
12,t3q4!7s,True,13,2,unequal,STb_5_a1,P != T2?,Same,0,1,None,112,1.24,112,1.0,112,0.97,No,quiteSure,cr,7.064467191696167,NA
13,t3q4!7s,True,14,2,unequal,STb_5_a1,P != T1?,Same,0,1,None,112,1.12,112,1.18,112,1.21,No,quiteSure,cr,1.3621530532836914,NA
14,t3q4!7s,True,15,2,unequal,ST2_low_5_a1,P != T2?,Same,2,1,low,96,1.21,154,0.67,154,1.03,No,quiteSure,cr,3.0558688640594482,NA
15,t3q4!7s,True,16,2,unequal,DT2_low_4_a2,P != T1?,Different,2,2,low,112,0.98,70,1.85,60,2.0,Yes,quiteSure,hit,1.5061588287353516,0.625
16,t3q4!7s,False,1,2,unequal,ST1_high_5_a2,P != T1?,Same,1,2,high,96,1.1,132,0.94,96,1.37,No,quiteSure,cr,3.0359771251678467,NA
17,t3q4!7s,False,2,2,unequal,ST1_low_5_a1,P != T2?,Same,1,1,low,96,1.34,154,0.94,96,1.33,Yes,quiteSure,hit,2.562872886657715,NA
18,t3q4!7s,False,3,2,unequal,ST1_high_6_a2,P != T1?,Same,1,2,high,132,0.9,96,1.28,132,0.93,No,quiteSure,cr,1.4600248336791992,NA
19,t3q4!7s,False,4,2,unequal,ST2_high_1_a2,P != T2?,Same,2,2,high,82,1.55,112,1.16,112,1.18,No,quiteSure,cr,1.3559198379516602,NA
20,t3q4!7s,False,5,2,unequal,ST2_low_1_a2,P != T1?,Same,2,2,low,82,1.31,132,1.06,132,0.93,Yes,quiteSure,hit,2.4053280353546143,NA
21,t3q4!7s,False,6,2,unequal,ST1_high_3_a2,P != T1?,Same,1,2,high,70,1.49,96,1.08,70,1.75,No,quiteSure,cr,1.249959945678711,NA
22,t3q4!7s,False,7,2,unequal,ST1_low_2_a2,P != T2?,Same,1,2,low,132,0.98,82,1.47,132,0.81,Yes,unsure,hit,1.8491969108581543,NA
23,t3q4!7s,False,8,2,unequal,ST1_high_6_a2,P != T2?,Same,1,2,high,132,0.93,96,1.14,132,1.04,No,unsure,miss,1.6954002380371094,NA
24,t3q4!7s,False,9,2,unequal,STb_7_a2,P != T1?,Same,0,2,None,154,0.83,154,0.76,154,0.78,No,sure,cr,1.2712790966033936,NA
25,t3q4!7s,False,10,2,unequal,ST1_low_5_a2,P != T2?,Same,1,2,low,96,1.33,154,0.73,96,1.17,No,quiteSure,miss,1.7850852012634277,NA
26,t3q4!7s,False,11,2,unequal,ST1_low_1_a1,P != T1?,Same,1,1,low,82,1.39,132,1.0,82,1.63,No,quiteSure,cr,1.8087728023529053,NA
27,t3q4!7s,False,12,2,unequal,ST2_high_5_a2,P != T1?,Same,2,2,high,96,1.23,132,0.94,132,1.06,No,unsure,miss,1.7001032829284668,NA
28,t3q4!7s,False,13,2,unequal,ST1_high_5_a2,P != T1?,Same,1,2,high,96,1.38,132,0.86,96,1.41,Yes,unsure,fa,2.492868661880493,NA
29,t3q4!7s,False,14,2,unequal,ST2_high_6_a1,P != T2?,Same,2,1,high,132,0.82,96,1.41,96,1.14,No,unsure,cr,2.4034202098846436,NA
30,t3q4!7s,False,15,2,unequal,ST1_low_6_a1,P != T1?,Same,1,1,low,154,0.84,96,1.36,154,0.96,No,quiteSure,cr,3.99324631690979,NA
31,t3q4!7s,False,16,2,unequal,STb_6_a1,P != T1?,Same,0,1,None,132,1.06,132,0.94,132,0.95,No,unsure,cr,2.2415847778320312,NA
32,t3q4!7s,False,17,2,unequal,ST2_high_4_a2,P != T1?,Same,2,2,high,96,1.26,70,1.39,70,1.41,No,unsure,miss,6.52889084815979,NA
33,t3q4!7s,False,18,2,unequal,ST1_high_3_a1,P != T2?,Same,1,1,high,70,1.79,96,1.35,70,1.71,No,unsure,miss,1.5112900733947754,NA
34,t3q4!7s,False,19,2,unequal,ST2_low_5_a2,P != T2?,Same,2,2,low,96,1.19,154,0.95,154,0.88,No,quiteSure,cr,1.286106824874878,NA
35,t3q4!7s,False,20,2,unequal,ST1_high_3_a1,P != T1?,Same,1,1,high,70,1.62,96,1.21,70,1.57,No,quiteSure,cr,1.5830590724945068,NA
36,t3q4!7s,False,21,2,unequal,ST2_low_2_a2,P != T1?,Same,2,2,low,132,0.96,82,1.37,82,1.55,No,unsure,miss,2.9065871238708496,NA
37,t3q4!7s,False,22,2,unequal,ST1_high_5_a2,P != T2?,Same,1,2,high,96,1.41,132,0.96,96,1.25,No,quiteSure,miss,1.1300983428955078,NA
38,t3q4!7s,False,23,2,unequal,ST1_low_3_a1,P != T1?,Same,1,1,low,70,1.77,112,1.07,70,1.72,No,quiteSure,cr,5.132098913192749,NA
39,t3q4!7s,False,24,2,unequal,DT2_low_3_a2,P != T1?,Different,2,2,low,70,1.52,112,1.02,132,0.86,Yes,quiteSure,hit,1.8377151489257812,NA
40,t3q4!7s,False,25,2,unequal,ST1_low_6_a2,P != T1?,Same,1,2,low,154,0.71,96,1.06,154,0.79,No,quiteSure,cr,1.2887458801269531,NA
41,t3q4!7s,False,26,2,unequal,ST2_low_4_a2,P != T2?,Same,2,2,low,112,0.94,70,1.62,70,1.65,No,quiteSure,cr,1.1143286228179932,NA
42,t3q4!7s,False,27,2,unequal,ST1_high_4_a2,P != T1?,Same,1,2,high,96,1.12,70,1.38,96,1.33,Yes,unsure,fa,2.1015689373016357,NA
43,t3q4!7s,False,28,2,unequal,DT1_low_5_a1,P != T2?,Different,1,1,low,96,1.34,154,0.87,82,1.4,Yes,unsure,hit,2.31563401222229,NA
44,t3q4!7s,False,29,2,unequal,STb_8_a1,P != T2?,Same,0,1,None,180,0.71,180,0.77,180,0.92,No,quiteSure,cr,2.9664361476898193,NA
45,t3q4!7s,False,30,2,unequal,ST2_low_2_a2,P != T2?,Same,2,2,low,132,1.04,82,1.52,82,1.48,No,quiteSure,cr,1.3670108318328857,NA
46,t3q4!7s,False,31,2,unequal,ST2_low_6_a1,P != T1?,Same,2,1,low,154,0.74,96,1.31,96,1.37,No,quiteSure,miss,1.1619510650634766,NA
47,t3q4!7s,False,32,2,unequal,ST1_low_6_a1,P != T2?,Same,1,1,low,154,0.79,96,1.26,154,0.88,No,unsure,miss,2.2699549198150635,NA
48,t3q4!7s,False,33,2,unequal,ST2_high_2_a1,P != T2?,Same,2,1,high,112,1.14,82,1.38,82,1.44,No,quiteSure,cr,1.9715821743011475,NA
49,t3q4!7s,False,34,2,unequal,ST1_high_6_a1,P != T1?,Same,1,1,high,132,0.79,96,1.25,132,1.05,Yes,quiteSure,fa,3.8588459491729736,NA
50,t3q4!7s,False,35,2,unequal,ST2_high_5_a2,P != T2?,Same,2,2,high,96,1.37,132,0.82,132,0.84,No,quiteSure,cr,1.334237813949585,NA
51,t3q4!7s,False,36,2,unequal,ST1_low_3_a2,P != T1?,Same,1,2,low,70,1.68,112,1.19,70,1.78,No,quiteSure,cr,1.3470768928527832,NA
52,t3q4!7s,False,37,2,unequal,ST1_high_6_a2,P != T2?,Same,1,2,high,132,0.89,96,1.17,132,0.88,Yes,unsure,hit,3.983175039291382,NA
53,t3q4!7s,False,38,2,unequal,DT2_high_5_a2,P != T1?,Different,2,2,high,96,1.08,132,0.98,154,0.8,Yes,quiteSure,hit,1.8488647937774658,NA
54,t3q4!7s,False,39,2,unequal,ST2_high_1_a1,P != T2?,Same,2,1,high,82,1.45,112,0.93,112,0.92,No,quiteSure,cr,1.1183738708496094,NA
55,t3q4!7s,False,40,2,unequal,ST1_low_3_a1,P != T1?,Same,1,1,low,70,1.83,112,1.15,70,1.58,No,quiteSure,cr,1.2221598625183105,NA
56,t3q4!7s,False,41,2,unequal,ST1_high_4_a2,P != T1?,Same,1,2,high,96,1.27,70,1.37,96,1.31,No,unsure,cr,2.9883880615234375,NA
57,t3q4!7s,False,42,2,unequal,ST2_low_6_a1,P != T1?,Same,2,1,low,154,0.95,96,1.36,96,1.2,No,quiteSure,miss,1.1079978942871094,NA
58,t3q4!7s,False,43,2,unequal,STb_2_a1,P != T1?,Same,0,1,None,70,1.54,70,1.72,70,1.4,No,quiteSure,cr,1.1366641521453857,NA
59,t3q4!7s,False,44,2,unequal,ST1_low_6_a2,P != T1?,Same,1,2,low,154,0.88,96,1.26,154,0.72,No,quiteSure,cr,1.0193641185760498,NA
60,t3q4!7s,False,45,2,unequal,ST2_low_5_a2,P != T1?,Same,2,2,low,96,1.17,154,0.88,154,0.81,Yes,unsure,hit,1.2041258811950684,NA
61,t3q4!7s,False,46,2,unequal,ST1_low_4_a2,P != T1?,Same,1,2,low,112,1.23,70,1.37,112,1.14,No,quiteSure,cr,1.1371467113494873,NA
62,t3q4!7s,False,47,2,unequal,ST1_high_3_a1,P != T1?,Same,1,1,high,70,1.52,96,1.41,70,1.62,No,quiteSure,cr,1.1967628002166748,NA
63,t3q4!7s,False,48,2,unequal,ST1_high_3_a2,P != T2?,Same,1,2,high,70,1.45,96,1.18,70,1.78,Yes,unsure,hit,1.7470929622650146,NA
64,t3q4!7s,False,49,2,unequal,ST1_low_5_a2,P != T1?,Same,1,2,low,96,1.18,154,0.94,96,1.37,No,quiteSure,cr,1.881737232208252,NA
65,t3q4!7s,False,50,2,unequal,ST2_low_1_a2,P != T1?,Same,2,2,low,82,1.22,132,0.84,132,0.85,Yes,unsure,hit,1.563453197479248,NA
66,t3q4!7s,False,51,2,unequal,ST2_high_2_a1,P != T2?,Same,2,1,high,112,1.17,82,1.26,82,1.33,No,quiteSure,cr,0.39789509773254395,NA
67,t3q4!7s,False,52,2,unequal,ST2_high_6_a1,P != T2?,Same,2,1,high,132,0.85,96,1.2,96,1.11,No,quiteSure,cr,2.0670011043548584,NA
68,t3q4!7s,False,53,2,unequal,ST2_low_3_a2,P != T2?,Same,2,2,low,70,1.44,112,1.03,112,1.21,No,unsure,cr,1.250208854675293,NA
69,t3q4!7s,False,54,2,unequal,ST1_low_4_a1,P != T2?,Same,1,1,low,112,1.0,70,1.37,112,0.94,Yes,unsure,hit,1.7091529369354248,NA
70,t3q4!7s,False,55,2,unequal,ST1_low_4_a1,P != T1?,Same,1,1,low,112,1.12,70,1.38,112,1.04,No,quiteSure,cr,1.2516250610351562,NA
71,t3q4!7s,False,56,2,unequal,ST1_high_1_a2,P != T1?,Same,1,2,high,82,1.24,112,0.99,82,1.63,No,quiteSure,cr,1.6447839736938477,NA
72,t3q4!7s,False,57,2,unequal,ST2_low_5_a2,P != T2?,Same,2,2,low,96,1.08,154,0.8,154,0.87,No,quiteSure,cr,1.1722502708435059,NA
73,t3q4!7s,False,58,2,unequal,ST2_high_5_a1,P != T2?,Same,2,1,high,96,1.36,132,0.86,132,1.0,No,quiteSure,cr,2.054348945617676,NA
74,t3q4!7s,False,59,2,unequal,ST2_high_1_a1,P != T1?,Same,2,1,high,82,1.53,112,1.04,112,1.19,No,quiteSure,miss,1.125119924545288,NA
75,t3q4!7s,False,60,2,unequal,ST1_high_4_a1,P != T1?,Same,1,1,high,96,1.2,70,1.76,96,1.41,Yes,unsure,fa,5.3622519969940186,NA
76,t3q4!7s,False,61,2,unequal,ST1_high_6_a1,P != T2?,Same,1,1,high,132,1.01,96,1.24,132,1.04,No,quiteSure,miss,0.46700215339660645,NA
77,t3q4!7s,False,62,2,unequal,ST2_low_3_a2,P != T2?,Same,2,2,low,70,1.69,112,1.02,112,1.01,No,quiteSure,cr,1.3908207416534424,NA
78,t3q4!7s,False,63,2,unequal,ST1_high_2_a2,P != T2?,Same,1,2,high,112,1.24,82,1.42,112,1.18,No,quiteSure,miss,1.0826082229614258,NA
79,t3q4!7s,False,64,2,unequal,ST2_low_3_a1,P != T2?,Same,2,1,low,70,1.38,112,1.18,112,1.17,No,quiteSure,cr,1.1287529468536377,NA
80,t3q4!7s,False,65,2,unequal,ST2_low_4_a1,P != T1?,Same,2,1,low,112,1.11,70,1.49,70,1.46,Yes,quiteSure,hit,1.621574878692627,NA
81,t3q4!7s,False,66,2,unequal,ST2_low_4_a1,P != T1?,Same,2,1,low,112,1.12,70,1.78,70,1.47,No,unsure,miss,5.89162802696228,NA
82,t3q4!7s,False,67,2,unequal,ST2_low_5_a2,P != T1?,Same,2,2,low,96,1.24,154,0.86,154,0.8,Yes,quiteSure,hit,1.2324678897857666,NA
83,t3q4!7s,False,68,2,unequal,ST2_high_1_a1,P != T1?,Same,2,1,high,82,1.58,112,1.22,112,1.19,No,quiteSure,miss,1.724362850189209,NA
84,t3q4!7s,False,69,2,unequal,ST1_low_4_a2,P != T2?,Same,1,2,low,112,1.04,70,1.52,112,1.04,No,quiteSure,miss,1.6938507556915283,NA
85,t3q4!7s,False,70,2,unequal,ST2_low_3_a1,P != T1?,Same,2,1,low,70,1.62,112,0.97,112,0.92,No,unsure,miss,2.6533777713775635,NA
86,t3q4!7s,False,71,2,unequal,ST1_high_3_a1,P != T2?,Same,1,1,high,70,1.37,96,1.22,70,1.43,No,unsure,miss,3.765346050262451,NA
87,t3q4!7s,False,72,2,unequal,STb_1_a1,P != T2?,Same,0,1,None,60,1.53,60,1.76,60,1.73,No,quiteSure,cr,1.297536849975586,NA
88,t3q4!7s,False,73,2,unequal,ST1_low_3_a2,P != T2?,Same,1,2,low,70,1.66,112,1.22,70,1.54,No,unsure,miss,15.747467041015625,NA
89,t3q4!7s,False,74,2,unequal,ST2_high_5_a2,P != T1?,Same,2,2,high,96,1.08,132,1.03,132,0.92,Yes,quiteSure,hit,1.380462884902954,NA
90,t3q4!7s,False,75,2,unequal,ST1_high_4_a1,P != T1?,Same,1,1,high,96,1.25,70,1.39,96,1.11,No,sure,cr,2.123516082763672,NA
91,t3q4!7s,False,76,2,unequal,ST2_low_2_a1,P != T1?,Same,2,1,low,132,0.9,82,1.34,82,1.56,No,unsure,miss,1.3345789909362793,NA
92,t3q4!7s,False,77,2,unequal,ST2_low_1_a1,P != T1?,Same,2,1,low,82,1.52,132,0.92,132,0.84,Yes,unsure,hit,1.3463859558105469,NA
93,t3q4!7s,False,78,2,unequal,ST1_high_5_a1,P != T2?,Same,1,1,high,96,1.43,132,0.95,96,1.36,No,quiteSure,miss,1.0873959064483643,NA
94,t3q4!7s,False,79,2,unequal,ST1_high_5_a1,P != T1?,Same,1,1,high,96,1.3,132,1.07,96,1.15,Yes,unsure,fa,5.812337875366211,NA
95,t3q4!7s,False,80,2,unequal,ST1_low_2_a2,P != T2?,Same,1,2,low,132,0.91,82,1.63,132,0.9,Yes,unsure,hit,1.2634587287902832,NA
96,t3q4!7s,False,81,2,unequal,ST1_low_5_a1,P != T2?,Same,1,1,low,96,1.1,154,0.84,96,1.33,Yes,unsure,hit,5.163179874420166,NA
97,t3q4!7s,False,82,2,unequal,ST2_low_4_a2,P != T2?,Same,2,2,low,112,1.19,70,1.79,70,1.76,No,quiteSure,cr,1.2871150970458984,NA
98,t3q4!7s,False,83,2,unequal,ST2_low_6_a2,P != T1?,Same,2,2,low,154,0.84,96,1.11,96,1.25,No,quiteSure,miss,1.790153980255127,NA
99,t3q4!7s,False,84,2,unequal,ST1_low_1_a2,P != T2?,Same,1,2,low,82,1.5,132,0.91,82,1.35,No,unsure,miss,2.8749451637268066,NA
100,t3q4!7s,False,85,2,unequal,ST1_low_5_a2,P != T2?,Same,1,2,low,96,1.37,154,0.73,96,1.23,No,quiteSure,miss,1.1968777179718018,NA
101,t3q4!7s,False,86,2,unequal,ST1_high_2_a1,P != T2?,Same,1,1,high,112,0.93,82,1.42,112,1.07,No,quiteSure,miss,2.2257490158081055,NA
102,t3q4!7s,False,87,2,unequal,ST1_high_5_a2,P != T1?,Same,1,2,high,96,1.31,132,0.85,96,1.34,No,quiteSure,cr,1.562225103378296,NA
103,t3q4!7s,False,88,2,unequal,ST2_low_4_a1,P != T2?,Same,2,1,low,112,1.19,70,1.57,70,1.64,No,unsure,cr,5.9369330406188965,NA
104,t3q4!7s,False,89,2,unequal,ST1_high_4_a2,P != T2?,Same,1,2,high,96,1.38,70,1.38,96,1.13,No,quiteSure,miss,1.6012170314788818,NA
105,t3q4!7s,False,90,2,unequal,ST1_high_4_a2,P != T1?,Same,1,2,high,96,1.16,70,1.58,96,1.22,No,quiteSure,cr,0.8929708003997803,NA
106,t3q4!7s,False,91,2,unequal,ST1_low_4_a2,P != T2?,Same,1,2,low,112,0.92,70,1.78,112,1.04,No,quiteSure,miss,2.3697690963745117,NA
107,t3q4!7s,False,92,2,unequal,ST2_low_1_a1,P != T2?,Same,2,1,low,82,1.51,132,0.84,132,1.02,Yes,unsure,fa,1.4935710430145264,NA
108,t3q4!7s,False,93,2,unequal,ST2_high_5_a1,P != T1?,Same,2,1,high,96,1.09,132,1.01,132,0.83,Yes,quiteSure,hit,1.4585950374603271,NA
109,t3q4!7s,False,94,2,unequal,ST2_low_2_a2,P != T1?,Same,2,2,low,132,0.8,82,1.27,82,1.6,No,quiteSure,miss,2.202747106552124,NA
110,t3q4!7s,False,95,2,unequal,ST1_high_1_a1,P != T2?,Same,1,1,high,82,1.43,112,0.96,82,1.56,No,quiteSure,miss,2.909569025039673,NA
111,t3q4!7s,False,96,2,unequal,ST1_low_2_a2,P != T2?,Same,1,2,low,132,0.86,82,1.3,132,0.98,Yes,quiteSure,hit,1.5904920101165771,NA
112,t3q4!7s,False,97,2,unequal,ST2_high_2_a2,P != T1?,Same,2,2,high,112,0.97,82,1.59,82,1.5,No,quiteSure,miss,2.4852497577667236,NA
113,t3q4!7s,False,98,2,unequal,ST1_low_3_a2,P != T2?,Same,1,2,low,70,1.67,112,0.95,70,1.47,Yes,quiteSure,hit,1.55039381980896,NA
114,t3q4!7s,False,99,2,unequal,ST2_low_3_a2,P != T2?,Same,2,2,low,70,1.54,112,1.01,112,1.22,No,quiteSure,cr,1.4602158069610596,NA
115,t3q4!7s,False,100,2,unequal,ST1_low_1_a2,P != T2?,Same,1,2,low,82,1.41,132,0.82,82,1.5,No,quiteSure,miss,1.8706958293914795,NA
116,t3q4!7s,False,101,2,unequal,ST2_high_3_a2,P != T2?,Same,2,2,high,70,1.64,96,1.09,96,1.42,No,quiteSure,cr,0.70747971534729,NA
117,t3q4!7s,False,102,2,unequal,ST1_low_1_a1,P != T2?,Same,1,1,low,82,1.26,132,0.93,82,1.56,Yes,unsure,hit,2.416943073272705,NA
118,t3q4!7s,False,103,2,unequal,ST1_high_3_a2,P != T1?,Same,1,2,high,70,1.56,96,1.27,70,1.52,No,quiteSure,cr,1.8479349613189697,NA
119,t3q4!7s,False,104,2,unequal,ST1_low_3_a2,P != T2?,Same,1,2,low,70,1.42,112,1.18,70,1.38,No,quiteSure,miss,2.4688639640808105,NA
120,t3q4!7s,False,105,2,unequal,ST2_low_6_a2,P != T2?,Same,2,2,low,154,0.8,96,1.24,96,1.36,No,quiteSure,cr,1.64933180809021,NA
121,t3q4!7s,False,106,2,unequal,ST1_high_2_a1,P != T1?,Same,1,1,high,112,1.13,82,1.49,112,1.0,No,quiteSure,cr,1.1667568683624268,NA
122,t3q4!7s,False,107,2,unequal,ST2_high_1_a2,P != T1?,Same,2,2,high,82,1.41,112,1.05,112,0.95,No,quiteSure,miss,1.9313819408416748,NA
123,t3q4!7s,False,108,2,unequal,ST2_high_3_a2,P != T1?,Same,2,2,high,70,1.61,96,1.46,96,1.26,No,quiteSure,miss,1.7773780822753906,NA
124,t3q4!7s,False,109,2,unequal,ST2_high_3_a1,P != T2?,Same,2,1,high,70,1.46,96,1.39,96,1.13,No,quiteSure,cr,1.784843921661377,NA
125,t3q4!7s,False,110,2,unequal,ST2_high_3_a1,P != T1?,Same,2,1,high,70,1.5,96,1.32,96,1.23,Yes,quiteSure,hit,4.317117929458618,NA
126,t3q4!7s,False,111,2,unequal,ST1_low_1_a1,P != T1?,Same,1,1,low,82,1.59,132,0.97,82,1.39,No,quiteSure,cr,1.9699387550354004,NA
127,t3q4!7s,False,112,2,unequal,ST2_high_4_a1,P != T2?,Same,2,1,high,96,1.31,70,1.46,70,1.54,No,quiteSure,cr,1.1375508308410645,NA
128,t3q4!7s,False,113,2,unequal,ST1_low_5_a1,P != T1?,Same,1,1,low,96,1.16,154,0.78,96,1.14,No,quiteSure,cr,1.6027719974517822,NA
129,t3q4!7s,False,114,2,unequal,ST1_low_4_a1,P != T1?,Same,1,1,low,112,0.96,70,1.55,112,1.08,No,quiteSure,cr,0.9999558925628662,NA
130,t3q4!7s,False,115,2,unequal,ST2_high_4_a2,P != T1?,Same,2,2,high,96,1.17,70,1.56,70,1.85,Yes,unsure,hit,1.413006067276001,NA
131,t3q4!7s,False,116,2,unequal,ST2_low_4_a2,P != T1?,Same,2,2,low,112,1.21,70,1.49,70,1.79,Yes,unsure,hit,1.6228067874908447,NA
132,t3q4!7s,False,117,2,unequal,ST1_low_2_a1,P != T2?,Same,1,1,low,132,0.97,82,1.54,132,0.91,Yes,unsure,hit,1.545893907546997,NA
133,t3q4!7s,False,118,2,unequal,ST1_high_2_a1,P != T1?,Same,1,1,high,112,1.01,82,1.53,112,1.01,No,quiteSure,cr,1.040349006652832,NA
134,t3q4!7s,False,119,2,unequal,ST1_low_5_a2,P != T2?,Same,1,2,low,96,1.36,154,0.92,96,1.17,No,quiteSure,miss,2.990849018096924,NA
135,t3q4!7s,False,120,2,unequal,STb_6_a2,P != T2?,Same,0,2,None,132,1.02,132,0.85,132,1.02,No,quiteSure,cr,0.7876920700073242,NA
136,t3q4!7s,False,121,2,unequal,ST1_high_3_a2,P != T1?,Same,1,2,high,70,1.69,96,1.31,70,1.52,No,quiteSure,cr,1.6871521472930908,NA
137,t3q4!7s,False,122,2,unequal,ST2_high_5_a1,P != T1?,Same,2,1,high,96,1.21,132,1.02,132,0.84,Yes,unsure,hit,1.9435482025146484,NA
138,t3q4!7s,False,123,2,unequal,ST1_low_3_a2,P != T1?,Same,1,2,low,70,1.41,112,1.06,70,1.64,No,quiteSure,cr,1.1384382247924805,NA
139,t3q4!7s,False,124,2,unequal,ST2_high_5_a2,P != T1?,Same,2,2,high,96,1.16,132,0.98,132,0.98,Yes,unsure,hit,1.7299787998199463,NA
140,t3q4!7s,False,125,2,unequal,ST2_high_2_a2,P != T1?,Same,2,2,high,112,0.98,82,1.39,82,1.49,No,quiteSure,miss,0.7846598625183105,NA
141,t3q4!7s,False,126,2,unequal,STb_3_a2,P != T1?,Same,0,2,None,82,1.62,82,1.52,82,1.41,No,quiteSure,cr,0.6021099090576172,NA
142,t3q4!7s,False,127,2,unequal,ST2_high_4_a1,P != T1?,Same,2,1,high,96,1.15,70,1.56,70,1.37,No,quiteSure,miss,0.7847590446472168,NA
143,t3q4!7s,False,128,2,unequal,ST1_high_2_a1,P != T1?,Same,1,1,high,112,1.06,82,1.62,112,1.13,No,unsure,cr,2.493220090866089,NA
144,t3q4!7s,False,129,2,unequal,DT1_high_1_a1,P != T2?,Different,1,1,high,82,1.57,112,1.1,70,1.58,Yes,unsure,hit,1.3779408931732178,NA
145,t3q4!7s,False,130,2,unequal,ST2_high_4_a2,P != T1?,Same,2,2,high,96,1.37,70,1.41,70,1.42,No,quiteSure,miss,0.9732749462127686,NA
146,t3q4!7s,False,131,2,unequal,ST1_low_4_a2,P != T1?,Same,1,2,low,112,0.99,70,1.52,112,1.21,Yes,unsure,fa,2.0604770183563232,NA
147,t3q4!7s,False,132,2,unequal,ST2_high_5_a1,P != T2?,Same,2,1,high,96,1.38,132,1.03,132,0.93,No,quiteSure,cr,2.179608106613159,NA
148,t3q4!7s,False,133,2,unequal,ST1_low_6_a2,P != T2?,Same,1,2,low,154,0.9,96,1.28,154,0.84,No,unsure,miss,2.069525957107544,NA
149,t3q4!7s,False,134,2,unequal,ST2_high_6_a1,P != T1?,Same,2,1,high,132,0.84,96,1.36,96,1.13,No,unsure,miss,1.4317288398742676,NA
150,t3q4!7s,False,135,2,unequal,ST2_low_4_a1,P != T2?,Same,2,1,low,112,1.11,70,1.71,70,1.46,No,quiteSure,cr,1.2597110271453857,NA
151,t3q4!7s,False,136,2,unequal,ST2_high_4_a2,P != T2?,Same,2,2,high,96,1.21,70,1.76,70,1.48,No,unsure,cr,1.2234699726104736,NA
152,t3q4!7s,False,137,2,unequal,ST2_low_1_a1,P != T2?,Same,2,1,low,82,1.37,132,1.04,132,1.06,No,quiteSure,cr,1.409977674484253,NA
153,t3q4!7s,False,138,2,unequal,ST2_low_6_a1,P != T2?,Same,2,1,low,154,0.93,96,1.2,96,1.17,No,quiteSure,cr,2.6927952766418457,NA
154,t3q4!7s,False,139,2,unequal,STb_4_a2,P != T2?,Same,0,2,None,96,1.25,96,1.12,96,1.18,No,quiteSure,cr,1.0157759189605713,NA
155,t3q4!7s,False,140,2,unequal,ST2_low_6_a1,P != T2?,Same,2,1,low,154,0.86,96,1.24,96,1.17,No,unsure,cr,1.5717780590057373,NA
156,t3q4!7s,False,141,2,unequal,ST1_high_5_a1,P != T2?,Same,1,1,high,96,1.2,132,0.96,96,1.16,No,unsure,miss,1.4547016620635986,NA
157,t3q4!7s,False,142,2,unequal,ST2_low_6_a1,P != T1?,Same,2,1,low,154,0.95,96,1.42,96,1.36,Yes,unsure,hit,1.4579508304595947,NA
158,t3q4!7s,False,143,2,unequal,ST2_high_4_a1,P != T1?,Same,2,1,high,96,1.14,70,1.73,70,1.58,No,unsure,miss,4.368917942047119,NA
159,t3q4!7s,False,144,2,unequal,STb_2_a2,P != T2?,Same,0,2,None,70,1.51,70,1.72,70,1.65,No,quiteSure,cr,0.4781370162963867,NA
160,t3q4!7s,False,145,2,unequal,ST2_high_4_a1,P != T1?,Same,2,1,high,96,1.19,70,1.43,70,1.55,Yes,quiteSure,hit,1.8384342193603516,NA
161,t3q4!7s,False,146,2,unequal,ST1_high_6_a1,P != T2?,Same,1,1,high,132,0.92,96,1.22,132,0.79,No,quiteSure,miss,0.6672992706298828,NA
162,t3q4!7s,False,147,2,unequal,STb_5_a2,P != T1?,Same,0,2,None,112,0.92,112,0.98,112,0.99,No,unsure,cr,6.2587058544158936,NA
163,t3q4!7s,False,148,2,unequal,ST1_low_2_a2,P != T1?,Same,1,2,low,132,0.91,82,1.45,132,0.86,No,quiteSure,cr,1.297330379486084,NA
164,t3q4!7s,False,149,2,unequal,ST1_high_4_a1,P != T1?,Same,1,1,high,96,1.2,70,1.75,96,1.31,No,quiteSure,cr,1.1181230545043945,NA
165,t3q4!7s,False,150,2,unequal,ST2_high_4_a2,P != T2?,Same,2,2,high,96,1.32,70,1.58,70,1.52,No,quiteSure,cr,1.7517859935760498,NA
166,t3q4!7s,False,151,2,unequal,ST1_low_3_a1,P != T1?,Same,1,1,low,70,1.44,112,1.19,70,1.53,No,quiteSure,cr,3.4740591049194336,NA
167,t3q4!7s,False,152,2,unequal,ST1_high_3_a2,P != T2?,Same,1,2,high,70,1.82,96,1.39,70,1.73,Yes,unsure,hit,1.649233341217041,NA
168,t3q4!7s,False,153,2,unequal,ST2_high_2_a1,P != T2?,Same,2,1,high,112,1.01,82,1.32,82,1.54,No,quiteSure,cr,1.3974640369415283,NA
169,t3q4!7s,False,154,2,unequal,ST2_low_6_a2,P != T2?,Same,2,2,low,154,0.72,96,1.28,96,1.27,No,quiteSure,cr,1.1891918182373047,NA
170,t3q4!7s,False,155,2,unequal,ST1_low_6_a2,P != T2?,Same,1,2,low,154,0.95,96,1.06,154,0.88,Yes,quiteSure,hit,1.2936699390411377,NA
171,t3q4!7s,False,156,2,unequal,ST2_high_1_a2,P != T2?,Same,2,2,high,82,1.58,112,1.2,112,0.96,No,quiteSure,cr,1.2907819747924805,NA
172,t3q4!7s,False,157,2,unequal,ST2_high_6_a1,P != T1?,Same,2,1,high,132,0.81,96,1.09,96,1.21,No,unsure,miss,2.305432081222534,NA
173,t3q4!7s,False,158,2,unequal,DT1_high_4_a1,P != T1?,Different,1,1,high,96,1.41,70,1.75,112,1.03,No,quiteSure,cr,1.1214051246643066,NA
174,t3q4!7s,False,159,2,unequal,ST1_low_1_a1,P != T1?,Same,1,1,low,82,1.4,132,0.91,82,1.46,No,quiteSure,cr,1.0628609657287598,NA
175,t3q4!7s,False,160,2,unequal,ST1_high_3_a1,P != T1?,Same,1,1,high,70,1.72,96,1.25,70,1.7,No,quiteSure,cr,1.2231471538543701,NA
176,t3q4!7s,False,161,2,unequal,ST1_low_6_a1,P != T2?,Same,1,1,low,154,0.79,96,1.27,154,0.88,Yes,unsure,hit,1.7523388862609863,NA
177,t3q4!7s,False,162,2,unequal,ST2_low_1_a2,P != T1?,Same,2,2,low,82,1.27,132,0.97,132,0.85,No,unsure,miss,3.330860137939453,NA
178,t3q4!7s,False,163,2,unequal,ST2_high_3_a2,P != T1?,Same,2,2,high,70,1.59,96,1.24,96,1.12,No,unsure,miss,1.4290921688079834,NA
179,t3q4!7s,False,164,2,unequal,ST2_low_4_a2,P != T1?,Same,2,2,low,112,1.02,70,1.48,70,1.48,Yes,unsure,hit,1.4770300388336182,NA
180,t3q4!7s,False,165,2,unequal,ST1_high_1_a1,P != T2?,Same,1,1,high,82,1.3,112,1.05,82,1.26,No,quiteSure,miss,1.221839189529419,NA
181,t3q4!7s,False,166,2,unequal,ST2_low_6_a2,P != T2?,Same,2,2,low,154,0.8,96,1.34,96,1.43,No,quiteSure,cr,1.1073508262634277,NA
182,t3q4!7s,False,167,2,unequal,ST2_high_6_a2,P != T1?,Same,2,2,high,132,0.84,96,1.29,96,1.17,No,quiteSure,miss,2.3407270908355713,NA
183,t3q4!7s,False,168,2,unequal,ST2_high_5_a1,P != T2?,Same,2,1,high,96,1.33,132,0.91,132,0.95,No,quiteSure,cr,1.1071851253509521,NA
184,t3q4!7s,False,169,2,unequal,ST2_low_5_a1,P != T2?,Same,2,1,low,96,1.15,154,0.83,154,0.79,No,quiteSure,cr,1.6205389499664307,NA
185,t3q4!7s,False,170,2,unequal,DT1_low_3_a2,P != T2?,Different,1,2,low,70,1.46,112,1.08,60,1.97,No,unsure,miss,1.5389320850372314,NA
186,t3q4!7s,False,171,2,unequal,ST1_high_2_a2,P != T2?,Same,1,2,high,112,1.13,82,1.35,112,1.16,No,unsure,miss,5.9028730392456055,NA
187,t3q4!7s,False,172,2,unequal,ST1_high_5_a1,P != T2?,Same,1,1,high,96,1.2,132,1.04,96,1.3,Yes,quiteSure,hit,1.3170101642608643,NA
188,t3q4!7s,False,173,2,unequal,DT1_high_2_a2,P != T1?,Different,1,2,high,112,0.94,82,1.48,132,0.92,No,quiteSure,cr,2.116947889328003,NA
189,t3q4!7s,False,174,2,unequal,ST1_low_4_a1,P != T1?,Same,1,1,low,112,1.22,70,1.56,112,1.04,No,quiteSure,cr,1.245513916015625,NA
190,t3q4!7s,False,175,2,unequal,ST1_high_5_a1,P != T1?,Same,1,1,high,96,1.12,132,0.92,96,1.36,No,unsure,cr,3.493483066558838,NA
191,t3q4!7s,False,176,2,unequal,ST1_low_4_a1,P != T2?,Same,1,1,low,112,1.0,70,1.63,112,0.95,Yes,quiteSure,hit,1.4963440895080566,NA
192,t3q4!7s,False,177,2,unequal,ST1_high_5_a2,P != T2?,Same,1,2,high,96,1.09,132,0.9,96,1.13,No,quiteSure,miss,2.9555540084838867,NA
193,t3q4!7s,False,178,2,unequal,ST2_low_2_a2,P != T2?,Same,2,2,low,132,0.95,82,1.43,82,1.61,No,quiteSure,cr,1.0491938591003418,NA
194,t3q4!7s,False,179,2,unequal,ST2_low_5_a2,P != T1?,Same,2,2,low,96,1.1,154,0.8,154,0.84,Yes,unsure,hit,1.7602648735046387,NA
195,t3q4!7s,False,180,2,unequal,ST2_low_3_a1,P != T1?,Same,2,1,low,70,1.61,112,0.92,112,1.03,Yes,unsure,hit,3.455848217010498,NA
196,t3q4!7s,False,181,2,unequal,ST2_high_3_a1,P != T1?,Same,2,1,high,70,1.53,96,1.41,96,1.23,Yes,unsure,hit,1.1581788063049316,NA
197,t3q4!7s,False,182,2,unequal,STb_7_a2,P != T2?,Same,0,2,None,154,0.83,154,0.75,154,0.9,No,quiteSure,cr,0.4402000904083252,NA
198,t3q4!7s,False,183,2,unequal,ST2_low_3_a2,P != T1?,Same,2,2,low,70,1.64,112,0.99,112,1.04,Yes,unsure,hit,1.599391222000122,NA
199,t3q4!7s,False,184,2,unequal,ST1_high_2_a1,P != T2?,Same,1,1,high,112,1.19,82,1.29,112,0.96,No,unsure,miss,1.6760129928588867,NA
200,t3q4!7s,False,185,2,unequal,ST1_low_1_a1,P != T2?,Same,1,1,low,82,1.49,132,1.0,82,1.49,Yes,unsure,hit,1.090705156326294,NA
201,t3q4!7s,False,186,2,unequal,ST1_high_6_a1,P != T2?,Same,1,1,high,132,0.82,96,1.42,132,1.06,No,unsure,miss,2.2653889656066895,NA
202,t3q4!7s,False,187,2,unequal,ST1_low_1_a2,P != T1?,Same,1,2,low,82,1.39,132,1.01,82,1.28,No,quiteSure,cr,1.101288080215454,NA
203,t3q4!7s,False,188,2,unequal,ST1_high_4_a2,P != T2?,Same,1,2,high,96,1.29,70,1.61,96,1.07,No,quiteSure,miss,1.9786739349365234,NA
204,t3q4!7s,False,189,2,unequal,ST2_low_3_a1,P != T2?,Same,2,1,low,70,1.53,112,1.04,112,1.22,No,quiteSure,cr,1.461893081665039,NA
205,t3q4!7s,False,190,2,unequal,ST2_high_6_a2,P != T1?,Same,2,2,high,132,0.95,96,1.43,96,1.32,No,quiteSure,miss,1.9689128398895264,NA
206,t3q4!7s,False,191,2,unequal,STb_2_a1,P != T2?,Same,0,1,None,70,1.45,70,1.55,70,1.73,No,quiteSure,cr,0.8799560070037842,NA
207,t3q4!7s,False,192,2,unequal,STb_4_a1,P != T1?,Same,0,1,None,96,1.18,96,1.13,96,1.32,No,quiteSure,cr,1.5923218727111816,NA
208,t3q4!7s,False,193,2,unequal,ST1_low_2_a2,P != T1?,Same,1,2,low,132,0.86,82,1.61,132,1.03,No,quiteSure,cr,0.9969558715820312,NA
209,t3q4!7s,False,194,2,unequal,ST2_low_1_a1,P != T1?,Same,2,1,low,82,1.45,132,0.94,132,0.92,Yes,unsure,hit,1.4410717487335205,NA
210,t3q4!7s,False,195,2,unequal,STb_3_a1,P != T1?,Same,0,1,None,82,1.28,82,1.58,82,1.41,No,quiteSure,cr,0.467210054397583,NA
211,t3q4!7s,False,196,2,unequal,ST1_high_3_a2,P != T2?,Same,1,2,high,70,1.42,96,1.19,70,1.58,No,quiteSure,miss,1.8613600730895996,NA
212,t3q4!7s,False,197,2,unequal,ST2_high_1_a2,P != T1?,Same,2,2,high,82,1.32,112,1.03,112,1.22,Yes,unsure,hit,1.3464500904083252,NA
213,t3q4!7s,False,198,2,unequal,ST1_high_1_a2,P != T2?,Same,1,2,high,82,1.25,112,0.92,82,1.59,Yes,unsure,hit,2.1261277198791504,NA
214,t3q4!7s,False,199,2,unequal,ST1_high_1_a2,P != T1?,Same,1,2,high,82,1.32,112,1.23,82,1.44,No,quiteSure,cr,1.0008511543273926,NA
215,t3q4!7s,False,200,2,unequal,DT1_high_3_a2,P != T2?,Different,1,2,high,70,1.35,96,1.34,60,1.71,No,quiteSure,miss,4.949749946594238,NA
216,t3q4!7s,False,201,2,unequal,ST1_low_1_a2,P != T1?,Same,1,2,low,82,1.29,132,1.06,82,1.42,No,quiteSure,cr,2.0129311084747314,NA
217,t3q4!7s,False,202,2,unequal,ST1_high_1_a1,P != T1?,Same,1,1,high,82,1.3,112,1.05,82,1.43,No,quiteSure,cr,1.8545942306518555,NA
218,t3q4!7s,False,203,2,unequal,ST2_high_2_a2,P != T1?,Same,2,2,high,112,1.06,82,1.3,82,1.24,Yes,unsure,hit,1.403771162033081,NA
219,t3q4!7s,False,204,2,unequal,ST2_low_4_a1,P != T2?,Same,2,1,low,112,0.97,70,1.45,70,1.59,No,quiteSure,cr,1.3776257038116455,NA
220,t3q4!7s,False,205,2,unequal,ST2_high_6_a2,P != T2?,Same,2,2,high,132,1.05,96,1.3,96,1.31,No,quiteSure,cr,3.1239891052246094,NA
221,t3q4!7s,False,206,2,unequal,ST2_low_1_a2,P != T2?,Same,2,2,low,82,1.49,132,0.86,132,0.89,No,quiteSure,cr,1.053027868270874,NA
222,t3q4!7s,False,207,2,unequal,ST2_low_3_a1,P != T1?,Same,2,1,low,70,1.75,112,0.96,112,0.92,Yes,unsure,hit,4.315927982330322,NA
223,t3q4!7s,False,208,2,unequal,DT1_low_4_a2,P != T1?,Different,1,2,low,112,1.15,70,1.47,132,0.79,No,unsure,cr,3.2461140155792236,NA
224,t3q4!7s,False,209,2,unequal,ST1_low_2_a1,P != T1?,Same,1,1,low,132,0.87,82,1.49,132,1.0,No,quiteSure,cr,1.1183717250823975,NA
225,t3q4!7s,False,210,2,unequal,ST2_high_2_a1,P != T1?,Same,2,1,high,112,1.13,82,1.33,82,1.4,No,sure,miss,0.9714288711547852,NA
226,t3q4!7s,False,211,2,unequal,ST1_low_5_a1,P != T2?,Same,1,1,low,96,1.3,154,0.75,96,1.15,Yes,unsure,hit,1.2802119255065918,NA
227,t3q4!7s,False,212,2,unequal,ST1_low_1_a2,P != T1?,Same,1,2,low,82,1.27,132,0.88,82,1.46,No,quiteSure,cr,1.2224631309509277,NA
228,t3q4!7s,False,213,2,unequal,ST1_low_6_a1,P != T1?,Same,1,1,low,154,0.81,96,1.08,154,0.87,No,quiteSure,cr,1.1233189105987549,NA
229,t3q4!7s,False,214,2,unequal,ST2_high_1_a1,P != T2?,Same,2,1,high,82,1.31,112,0.98,112,1.12,No,quiteSure,cr,0.8839819431304932,NA
230,t3q4!7s,False,215,2,unequal,ST1_high_6_a2,P != T1?,Same,1,2,high,132,0.84,96,1.1,132,0.93,No,quiteSure,cr,1.0886812210083008,NA
231,t3q4!7s,False,216,2,unequal,ST2_low_5_a1,P != T1?,Same,2,1,low,96,1.32,154,0.82,154,0.82,Yes,quiteSure,hit,1.2236039638519287,NA
232,t3q4!7s,False,217,2,unequal,ST2_low_1_a2,P != T2?,Same,2,2,low,82,1.64,132,0.86,132,0.87,No,quiteSure,cr,2.9294421672821045,NA
233,t3q4!7s,False,218,2,unequal,ST1_low_3_a1,P != T2?,Same,1,1,low,70,1.55,112,0.95,70,1.83,No,unsure,miss,2.215095043182373,NA
234,t3q4!7s,False,219,2,unequal,ST2_high_6_a2,P != T2?,Same,2,2,high,132,0.81,96,1.36,96,1.16,No,quiteSure,cr,1.5870509147644043,NA
235,t3q4!7s,False,220,2,unequal,ST1_low_5_a2,P != T1?,Same,1,2,low,96,1.15,154,0.95,96,1.1,No,quiteSure,cr,1.1198418140411377,NA
236,t3q4!7s,False,221,2,unequal,ST2_low_2_a2,P != T1?,Same,2,2,low,132,1.0,82,1.3,82,1.47,Yes,unsure,hit,2.751962184906006,NA
237,t3q4!7s,False,222,2,unequal,ST2_low_6_a2,P != T1?,Same,2,2,low,154,0.78,96,1.12,96,1.37,Yes,unsure,hit,1.1779372692108154,NA
238,t3q4!7s,False,223,2,unequal,ST2_low_5_a1,P != T1?,Same,2,1,low,96,1.36,154,0.76,154,0.74,No,unsure,miss,4.328275918960571,NA
239,t3q4!7s,False,224,2,unequal,ST1_high_2_a2,P != T1?,Same,1,2,high,112,1.08,82,1.64,112,1.13,Yes,unsure,fa,1.2778539657592773,NA
240,t3q4!7s,False,225,2,unequal,ST1_low_4_a2,P != T1?,Same,1,2,low,112,1.05,70,1.65,112,1.09,No,quiteSure,cr,3.1179211139678955,NA
241,t3q4!7s,False,226,2,unequal,ST1_high_1_a1,P != T1?,Same,1,1,high,82,1.38,112,1.04,82,1.28,No,quiteSure,cr,1.4050638675689697,NA
242,t3q4!7s,False,227,2,unequal,ST2_low_3_a2,P != T1?,Same,2,2,low,70,1.4,112,0.92,112,1.22,Yes,quiteSure,hit,2.1441588401794434,NA
243,t3q4!7s,False,228,2,unequal,ST1_low_5_a1,P != T1?,Same,1,1,low,96,1.26,154,0.75,96,1.39,Yes,quiteSure,fa,1.633392095565796,NA
244,t3q4!7s,False,229,2,unequal,ST1_high_4_a1,P != T2?,Same,1,1,high,96,1.12,70,1.69,96,1.38,No,quiteSure,miss,0.723552942276001,NA
245,t3q4!7s,False,230,2,unequal,ST2_low_3_a2,P != T1?,Same,2,2,low,70,1.75,112,1.21,112,1.14,No,quiteSure,miss,0.9904589653015137,NA
246,t3q4!7s,False,231,2,unequal,ST2_high_4_a1,P != T2?,Same,2,1,high,96,1.12,70,1.66,70,1.59,No,quiteSure,cr,1.2755541801452637,NA
247,t3q4!7s,False,232,2,unequal,DT2_low_2_a2,P != T1?,Different,2,2,low,132,1.02,82,1.42,70,1.79,Yes,unsure,hit,2.8376100063323975,NA
248,t3q4!7s,False,233,2,unequal,ST2_high_6_a1,P != T1?,Same,2,1,high,132,1.03,96,1.08,96,1.26,No,unsure,miss,2.7908811569213867,NA
249,t3q4!7s,False,234,2,unequal,STb_7_a1,P != T2?,Same,0,1,None,154,0.82,154,0.86,154,0.8,No,quiteSure,cr,0.7610869407653809,NA
250,t3q4!7s,False,235,2,unequal,ST2_high_2_a2,P != T2?,Same,2,2,high,112,1.18,82,1.36,82,1.43,No,quiteSure,cr,1.2999937534332275,NA
251,t3q4!7s,False,236,2,unequal,ST2_high_3_a2,P != T2?,Same,2,2,high,70,1.51,96,1.37,96,1.22,No,quiteSure,cr,1.1068732738494873,NA
252,t3q4!7s,False,237,2,unequal,ST1_high_2_a2,P != T1?,Same,1,2,high,112,1.01,82,1.25,112,0.99,No,quiteSure,cr,3.675165891647339,NA
253,t3q4!7s,False,238,2,unequal,ST2_low_2_a1,P != T2?,Same,2,1,low,132,0.98,82,1.52,82,1.23,No,quiteSure,cr,1.4100289344787598,NA
254,t3q4!7s,False,239,2,unequal,ST1_high_6_a2,P != T1?,Same,1,2,high,132,0.95,96,1.31,132,0.84,Yes,unsure,fa,3.9573209285736084,NA
255,t3q4!7s,False,240,2,unequal,ST1_low_5_a2,P != T1?,Same,1,2,low,96,1.19,154,0.79,96,1.29,No,quiteSure,cr,0.9880468845367432,NA
256,t3q4!7s,False,241,2,unequal,DT1_high_4_a1,P != T2?,Different,1,1,high,96,1.27,70,1.83,112,1.01,Yes,unsure,hit,3.196739912033081,NA
257,t3q4!7s,False,242,2,unequal,ST2_low_2_a2,P != T2?,Same,2,2,low,132,0.96,82,1.28,82,1.37,No,quiteSure,cr,1.3875219821929932,NA
258,t3q4!7s,False,243,2,unequal,ST1_high_6_a1,P != T1?,Same,1,1,high,132,0.89,96,1.14,132,0.84,No,quiteSure,cr,1.1642298698425293,NA
259,t3q4!7s,False,244,2,unequal,ST2_low_4_a2,P != T1?,Same,2,2,low,112,1.21,70,1.47,70,1.59,No,unsure,miss,5.9354681968688965,NA
260,t3q4!7s,False,245,2,unequal,ST2_high_2_a2,P != T2?,Same,2,2,high,112,1.19,82,1.51,82,1.58,No,unsure,cr,0.9752259254455566,NA
261,t3q4!7s,False,246,2,unequal,ST2_high_1_a1,P != T2?,Same,2,1,high,82,1.36,112,0.97,112,0.92,No,unsure,cr,0.8823261260986328,NA
262,t3q4!7s,False,247,2,unequal,ST1_high_2_a2,P != T1?,Same,1,2,high,112,1.1,82,1.54,112,1.23,No,quiteSure,cr,1.7877612113952637,NA
263,t3q4!7s,False,248,2,unequal,ST2_low_4_a2,P != T2?,Same,2,2,low,112,1.11,70,1.5,70,1.45,No,quiteSure,cr,1.675016164779663,NA
264,t3q4!7s,False,249,2,unequal,ST1_high_6_a2,P != T2?,Same,1,2,high,132,0.89,96,1.35,132,1.05,No,unsure,miss,7.036297798156738,NA
265,t3q4!7s,False,250,2,unequal,ST2_low_5_a1,P != T1?,Same,2,1,low,96,1.1,154,0.92,154,0.83,Yes,quiteSure,hit,1.915065050125122,NA
266,t3q4!7s,False,251,2,unequal,ST1_high_1_a1,P != T1?,Same,1,1,high,82,1.28,112,1.05,82,1.37,No,quiteSure,cr,1.217928409576416,NA
267,t3q4!7s,False,252,2,unequal,ST2_low_5_a1,P != T2?,Same,2,1,low,96,1.06,154,0.93,154,0.94,No,quiteSure,cr,1.3643829822540283,NA
268,t3q4!7s,False,253,2,unequal,ST1_low_2_a2,P != T1?,Same,1,2,low,132,0.93,82,1.52,132,0.94,No,quiteSure,cr,1.0270979404449463,NA
269,t3q4!7s,False,254,2,unequal,ST2_high_1_a2,P != T1?,Same,2,2,high,82,1.44,112,1.23,112,1.17,Yes,unsure,hit,2.3724658489227295,NA
270,t3q4!7s,False,255,2,unequal,ST2_low_6_a2,P != T1?,Same,2,2,low,154,0.75,96,1.29,96,1.3,No,quiteSure,miss,1.3570959568023682,NA
271,t3q4!7s,False,256,2,unequal,ST1_low_6_a1,P != T2?,Same,1,1,low,154,0.83,96,1.08,154,0.72,No,unsure,miss,6.957115173339844,NA
272,t3q4!7s,False,257,2,unequal,STb_2_a2,P != T1?,Same,0,2,None,70,1.45,70,1.56,70,1.79,No,quiteSure,cr,0.3744797706604004,NA
273,t3q4!7s,False,258,2,unequal,ST1_high_3_a1,P != T2?,Same,1,1,high,70,1.65,96,1.31,70,1.42,No,quiteSure,miss,0.3184840679168701,NA
274,t3q4!7s,False,259,2,unequal,DT2_high_1_a2,P != T1?,Different,2,2,high,82,1.54,112,0.92,132,0.9,Yes,unsure,hit,1.8773508071899414,NA
275,t3q4!7s,False,260,2,unequal,ST1_high_1_a2,P != T1?,Same,1,2,high,82,1.48,112,1.0,82,1.31,No,quiteSure,cr,1.7320919036865234,NA
276,t3q4!7s,False,261,2,unequal,ST2_low_1_a1,P != T2?,Same,2,1,low,82,1.46,132,0.89,132,1.06,No,quiteSure,cr,2.905586004257202,NA
277,t3q4!7s,False,262,2,unequal,ST1_high_4_a2,P != T2?,Same,1,2,high,96,1.2,70,1.84,96,1.18,No,quiteSure,miss,0.8480188846588135,NA
278,t3q4!7s,False,263,2,unequal,ST2_low_2_a1,P != T2?,Same,2,1,low,132,0.97,82,1.4,82,1.23,No,quiteSure,cr,1.4547581672668457,NA
279,t3q4!7s,False,264,2,unequal,ST1_high_2_a1,P != T2?,Same,1,1,high,112,0.99,82,1.26,112,1.11,No,quiteSure,miss,1.6472220420837402,NA
280,t3q4!7s,False,265,2,unequal,ST1_low_4_a1,P != T2?,Same,1,1,low,112,1.04,70,1.8,112,1.15,No,unsure,miss,5.723383188247681,NA
281,t3q4!7s,False,266,2,unequal,ST1_low_6_a1,P != T1?,Same,1,1,low,154,0.81,96,1.32,154,0.75,No,unsure,cr,3.307649850845337,NA
282,t3q4!7s,False,267,2,unequal,ST1_low_5_a1,P != T1?,Same,1,1,low,96,1.3,154,0.8,96,1.31,No,quiteSure,cr,1.1658828258514404,NA
283,t3q4!7s,False,268,2,unequal,ST1_high_5_a2,P != T2?,Same,1,2,high,96,1.38,132,0.88,96,1.41,No,quiteSure,miss,1.7011291980743408,NA
284,t3q4!7s,False,269,2,unequal,ST1_low_1_a2,P != T2?,Same,1,2,low,82,1.63,132,0.84,82,1.37,Yes,unsure,hit,1.4923536777496338,NA
285,t3q4!7s,False,270,2,unequal,DT2_high_6_a2,P != T1?,Different,2,2,high,132,0.83,96,1.38,82,1.6,No,quiteSure,miss,1.3898959159851074,NA
286,t3q4!7s,False,271,2,unequal,ST2_high_3_a1,P != T1?,Same,2,1,high,70,1.42,96,1.35,96,1.17,No,unsure,miss,3.1664483547210693,NA
287,t3q4!7s,False,272,2,unequal,ST2_low_6_a1,P != T2?,Same,2,1,low,154,0.77,96,1.14,96,1.38,No,unsure,cr,1.394317865371704,NA
288,t3q4!7s,False,273,2,unequal,ST2_low_3_a1,P != T2?,Same,2,1,low,70,1.53,112,1.16,112,1.15,Yes,unsure,fa,4.314901113510132,NA
289,t3q4!7s,False,274,2,unequal,ST2_high_6_a2,P != T1?,Same,2,2,high,132,0.96,96,1.39,96,1.0,No,unsure,miss,2.027496337890625,NA
290,t3q4!7s,False,275,2,unequal,ST2_high_5_a2,P != T2?,Same,2,2,high,96,1.06,132,1.0,132,1.01,No,quiteSure,cr,5.402837038040161,NA
291,t3q4!7s,False,276,2,unequal,ST1_high_4_a1,P != T2?,Same,1,1,high,96,1.28,70,1.63,96,1.13,No,quiteSure,miss,0.9038019180297852,NA
292,t3q4!7s,False,277,2,unequal,DT2_low_1_a1,P != T2?,Different,2,1,low,82,1.3,132,0.8,154,0.76,No,quiteSure,cr,4.03634786605835,NA
293,t3q4!7s,False,278,2,unequal,ST1_low_2_a1,P != T2?,Same,1,1,low,132,0.97,82,1.6,132,1.0,Yes,unsure,hit,1.1372201442718506,NA
294,t3q4!7s,False,279,2,unequal,ST2_high_6_a1,P != T2?,Same,2,1,high,132,0.89,96,1.11,96,1.22,No,quiteSure,cr,1.5536022186279297,NA
295,t3q4!7s,False,280,2,unequal,ST2_high_3_a2,P != T2?,Same,2,2,high,70,1.68,96,1.23,96,1.04,No,quiteSure,cr,1.2487716674804688,NA
296,t3q4!7s,False,281,2,unequal,ST2_high_2_a2,P != T2?,Same,2,2,high,112,1.12,82,1.52,82,1.51,No,quiteSure,cr,1.2906100749969482,NA
297,t3q4!7s,False,282,2,unequal,ST2_high_3_a2,P != T1?,Same,2,2,high,70,1.56,96,1.32,96,1.15,No,quiteSure,miss,1.148693323135376,NA
298,t3q4!7s,False,283,2,unequal,ST2_high_6_a2,P != T2?,Same,2,2,high,132,0.91,96,1.1,96,1.16,No,quiteSure,cr,1.0560059547424316,NA
299,t3q4!7s,False,284,2,unequal,ST1_low_3_a1,P != T2?,Same,1,1,low,70,1.54,112,1.2,70,1.46,Yes,unsure,hit,1.9891357421875,NA
300,t3q4!7s,False,285,2,unequal,ST2_low_5_a1,P != T2?,Same,2,1,low,96,1.21,154,0.67,154,1.03,No,quiteSure,cr,2.3148679733276367,NA
301,t3q4!7s,False,286,2,unequal,ST1_low_6_a2,P != T1?,Same,1,2,low,154,0.86,96,1.08,154,0.72,No,quiteSure,cr,1.5930829048156738,NA
302,t3q4!7s,False,287,2,unequal,ST1_low_3_a1,P != T2?,Same,1,1,low,70,1.48,112,1.09,70,1.71,Yes,quiteSure,hit,1.3393070697784424,NA
303,t3q4!7s,False,288,2,unequal,ST2_high_5_a1,P != T1?,Same,2,1,high,96,1.11,132,0.82,132,1.04,Yes,quiteSure,hit,1.544328212738037,NA
304,t3q4!7s,False,289,2,unequal,ST2_high_3_a1,P != T2?,Same,2,1,high,70,1.82,96,1.37,96,1.21,No,quiteSure,cr,3.3964030742645264,NA
305,t3q4!7s,False,290,2,unequal,ST1_low_3_a2,P != T1?,Same,1,2,low,70,1.82,112,1.04,70,1.47,No,quiteSure,cr,1.2042820453643799,NA
306,t3q4!7s,False,291,2,unequal,ST1_low_6_a2,P != T2?,Same,1,2,low,154,0.76,96,1.22,154,0.94,Yes,quiteSure,hit,1.271399974822998,NA
307,t3q4!7s,False,292,2,unequal,DT2_high_5_a1,P != T2?,Different,2,1,high,96,1.25,132,0.97,154,0.74,No,quiteSure,cr,0.9238588809967041,NA
308,t3q4!7s,False,293,2,unequal,ST1_high_2_a2,P != T2?,Same,1,2,high,112,0.96,82,1.28,112,1.04,Yes,quiteSure,hit,1.3953049182891846,NA
309,t3q4!7s,False,294,2,unequal,ST1_high_6_a1,P != T1?,Same,1,1,high,132,0.89,96,1.1,132,0.94,No,quiteSure,cr,0.8528039455413818,NA
310,t3q4!7s,False,295,2,unequal,ST2_high_2_a1,P != T1?,Same,2,1,high,112,1.22,82,1.22,82,1.24,No,quiteSure,miss,2.8303518295288086,NA
311,t3q4!7s,False,296,2,unequal,ST2_high_5_a2,P != T2?,Same,2,2,high,96,1.41,132,0.84,132,0.79,No,quiteSure,cr,1.0088868141174316,NA
312,t3q4!7s,False,297,2,unequal,ST2_high_2_a1,P != T1?,Same,2,1,high,112,1.08,82,1.29,82,1.62,No,quiteSure,miss,2.749812126159668,NA
313,t3q4!7s,False,298,2,unequal,ST2_high_3_a1,P != T2?,Same,2,1,high,70,1.62,96,1.17,96,1.33,Yes,unsure,fa,2.337575912475586,NA
314,t3q4!7s,False,299,2,unequal,ST2_low_2_a1,P != T2?,Same,2,1,low,132,1.04,82,1.28,82,1.31,No,quiteSure,cr,1.0378718376159668,NA
315,t3q4!7s,False,300,2,unequal,ST1_low_1_a1,P != T2?,Same,1,1,low,82,1.57,132,1.06,82,1.42,Yes,quiteSure,hit,4.4551451206207275,NA
316,t3q4!7s,False,301,2,unequal,ST2_low_5_a2,P != T2?,Same,2,2,low,96,1.24,154,0.93,154,0.89,No,quiteSure,cr,1.1485438346862793,NA
317,t3q4!7s,False,302,2,unequal,DT1_low_1_a1,P != T2?,Different,1,1,low,82,1.3,132,0.88,70,1.66,No,quiteSure,miss,1.7076261043548584,NA
318,t3q4!7s,False,303,2,unequal,ST1_high_1_a2,P != T2?,Same,1,2,high,82,1.37,112,0.94,82,1.35,No,quiteSure,miss,0.39306211471557617,NA
319,t3q4!7s,False,304,2,unequal,ST2_low_2_a1,P != T1?,Same,2,1,low,132,0.87,82,1.34,82,1.54,No,quiteSure,miss,3.280050039291382,NA
320,t3q4!7s,False,305,2,unequal,ST2_low_1_a2,P != T2?,Same,2,2,low,82,1.53,132,0.97,132,0.81,No,quiteSure,cr,1.2681028842926025,NA
321,t3q4!7s,False,306,2,unequal,ST1_low_2_a1,P != T1?,Same,1,1,low,132,1.02,82,1.54,132,0.82,No,quiteSure,cr,0.9852797985076904,NA
322,t3q4!7s,False,307,2,unequal,ST2_high_4_a2,P != T2?,Same,2,2,high,96,1.12,70,1.44,70,1.4,No,quiteSure,cr,0.9477550983428955,NA
323,t3q4!7s,False,308,2,unequal,ST1_high_5_a1,P != T1?,Same,1,1,high,96,1.2,132,1.0,96,1.06,No,quiteSure,cr,1.2331428527832031,NA
324,t3q4!7s,False,309,2,unequal,ST1_low_2_a1,P != T2?,Same,1,1,low,132,0.99,82,1.53,132,1.04,No,unsure,miss,2.1919281482696533,NA
325,t3q4!7s,False,310,2,unequal,ST1_high_1_a2,P != T2?,Same,1,2,high,82,1.33,112,1.06,82,1.42,No,unsure,miss,1.4838619232177734,NA
326,t3q4!7s,False,311,2,unequal,ST2_low_1_a1,P != T1?,Same,2,1,low,82,1.41,132,0.95,132,0.79,No,unsure,miss,1.4601490497589111,NA
327,t3q4!7s,False,312,2,unequal,ST1_high_1_a1,P != T2?,Same,1,1,high,82,1.54,112,1.2,82,1.55,Yes,unsure,hit,4.110937833786011,NA
328,t3q4!7s,False,313,2,unequal,ST2_low_4_a1,P != T1?,Same,2,1,low,112,0.97,70,1.68,70,1.74,No,unsure,miss,1.8373019695281982,NA
329,t3q4!7s,False,314,2,unequal,ST2_high_1_a2,P != T2?,Same,2,2,high,82,1.23,112,1.17,112,1.03,Yes,unsure,fa,1.874734878540039,NA
330,t3q4!7s,False,315,2,unequal,ST1_low_4_a2,P != T2?,Same,1,2,low,112,0.92,70,1.42,112,1.21,No,unsure,miss,1.3800480365753174,NA
331,t3q4!7s,False,316,2,unequal,ST2_low_2_a1,P != T1?,Same,2,1,low,132,1.05,82,1.61,82,1.57,No,unsure,miss,4.371501684188843,NA
332,t3q4!7s,False,317,2,unequal,ST1_low_2_a1,P != T1?,Same,1,1,low,132,0.96,82,1.23,132,1.03,No,unsure,cr,1.921267032623291,NA
333,t3q4!7s,False,318,2,unequal,ST1_high_4_a1,P != T2?,Same,1,1,high,96,1.15,70,1.47,96,1.15,No,unsure,miss,1.9548399448394775,NA
334,t3q4!7s,False,319,2,unequal,ST2_high_4_a1,P != T2?,Same,2,1,high,96,1.29,70,1.79,70,1.77,No,unsure,cr,1.0381929874420166,NA
335,t3q4!7s,False,320,2,unequal,ST2_high_1_a1,P != T1?,Same,2,1,high,82,1.4,112,1.22,112,1.06,Yes,unsure,hit,1.123420000076294,-0.25
