,pcode,practice,trial,block,questionType,condition,question,PTS,TargetPosition,AccessoryPosition,TNS,T1_hz,T1_amp,T2_hz,T2_amp,P_hz,P_amp,response_dicho,response_rating,response_sdt,rt,P_correct
0,#49uet5,True,1,1,equal,DT1_high_6_a1,P = T1?,Different,1,1,high,132,0.85,96,1.14,154,0.81,Yes,quiteSure,hit,1.9639220237731934,NA
1,#49uet5,True,2,1,equal,STb_4_a2,P = T2?,Same,0,2,None,96,1.13,96,0.95,96,1.35,Yes,quiteSure,hit,1.2712922096252441,NA
2,#49uet5,True,3,1,equal,STb_3_a1,P = T2?,Same,0,1,None,82,1.55,82,1.53,82,1.53,Yes,sure,hit,2.533496141433716,NA
3,#49uet5,True,4,1,equal,DT1_low_1_a1,P = T2?,Different,1,1,low,82,1.32,132,0.82,70,1.77,No,sure,cr,1.9441931247711182,NA
4,#49uet5,True,5,1,equal,ST2_high_5_a2,P = T1?,Same,2,2,high,96,1.21,132,1.09,132,0.89,No,sure,cr,1.2066919803619385,NA
5,#49uet5,True,6,1,equal,ST2_high_3_a1,P = T2?,Same,2,1,high,70,1.55,96,1.58,96,1.09,Yes,quiteSure,hit,1.158574104309082,NA
6,#49uet5,True,7,1,equal,ST2_low_6_a2,P = T2?,Same,2,2,low,154,0.84,96,1.56,96,1.34,Yes,quiteSure,hit,1.06880784034729,NA
7,#49uet5,True,8,1,equal,ST1_high_1_a2,P = T2?,Same,1,2,high,82,1.52,112,1.28,82,1.2,No,quiteSure,cr,1.3837130069732666,NA
8,#49uet5,True,9,1,equal,DT2_low_6_a2,P = T2?,Different,2,2,low,154,0.81,96,1.15,82,1.54,Yes,quiteSure,hit,1.5411901473999023,NA
9,#49uet5,True,10,1,equal,ST1_high_1_a1,P = T1?,Same,1,1,high,82,1.53,112,1.17,82,1.63,Yes,quiteSure,hit,1.8103020191192627,NA
10,#49uet5,True,11,1,equal,STb_2_a2,P = T1?,Same,0,2,None,70,1.63,70,1.77,70,1.65,Yes,quiteSure,hit,1.1587140560150146,NA
11,#49uet5,True,12,1,equal,DT1_low_6_a1,P = T1?,Different,1,1,low,154,0.87,96,1.23,180,0.93,Yes,quiteSure,hit,1.2491800785064697,NA
12,#49uet5,True,13,1,equal,ST2_low_1_a1,P = T1?,Same,2,1,low,82,1.32,132,0.95,132,0.99,No,sure,cr,1.383547067642212,NA
13,#49uet5,True,14,1,equal,STb_1_a1,P = T1?,Same,0,1,None,60,1.93,60,2.04,60,1.73,Yes,sure,hit,1.1620638370513916,NA
14,#49uet5,True,15,1,equal,ST1_high_4_a1,P = T1?,Same,1,1,high,96,1.01,70,1.85,96,1.26,No,unsure,miss,3.016751766204834,NA
15,#49uet5,True,16,1,equal,ST1_high_3_a2,P = T2?,Same,1,2,high,70,2.05,96,1.35,70,1.88,No,sure,cr,1.224254846572876,0.875
16,#49uet5,False,1,1,equal,ST1_high_6_a2,P = T2?,Same,1,2,high,132,0.94,96,1.37,132,0.97,No,quiteSure,cr,1.3895747661590576,NA
17,#49uet5,False,2,1,equal,ST2_low_5_a2,P = T1?,Same,2,2,low,96,1.19,154,0.81,154,0.89,No,quiteSure,cr,1.2218809127807617,NA
18,#49uet5,False,3,1,equal,ST2_high_1_a2,P = T2?,Same,2,2,high,82,1.41,112,1.21,112,1.0,Yes,quiteSure,hit,1.6971631050109863,NA
19,#49uet5,False,4,1,equal,DT1_high_3_a1,P = T1?,Different,1,1,high,70,1.76,96,1.08,60,1.64,Yes,quiteSure,hit,1.069977045059204,NA
20,#49uet5,False,5,1,equal,ST1_high_2_a2,P = T1?,Same,1,2,high,112,1.15,82,1.43,112,1.1,Yes,sure,hit,1.0221400260925293,NA
21,#49uet5,False,6,1,equal,ST2_high_6_a2,P = T1?,Same,2,2,high,132,0.99,96,1.18,96,1.19,No,quiteSure,cr,1.5390288829803467,NA
22,#49uet5,False,7,1,equal,ST2_high_2_a2,P = T2?,Same,2,2,high,112,1.23,82,1.45,82,1.31,Yes,sure,hit,1.053452968597412,NA
23,#49uet5,False,8,1,equal,ST2_low_6_a2,P = T1?,Same,2,2,low,154,0.83,96,1.19,96,1.3,No,quiteSure,cr,1.4288699626922607,NA
24,#49uet5,False,9,1,equal,ST2_low_1_a1,P = T1?,Same,2,1,low,82,1.23,132,0.82,132,0.98,No,quiteSure,cr,1.1619369983673096,NA
25,#49uet5,False,10,1,equal,ST2_low_3_a2,P = T2?,Same,2,2,low,70,1.6,112,1.11,112,1.16,Yes,sure,hit,1.379303216934204,NA
26,#49uet5,False,11,1,equal,ST1_high_6_a1,P = T1?,Same,1,1,high,132,0.96,96,1.32,132,0.85,Yes,sure,hit,1.0452003479003906,NA
27,#49uet5,False,12,1,equal,ST1_high_3_a2,P = T1?,Same,1,2,high,70,1.75,96,1.31,70,1.71,Yes,sure,hit,1.1124122142791748,NA
28,#49uet5,False,13,1,equal,ST2_low_6_a1,P = T1?,Same,2,1,low,154,0.78,96,1.4,96,1.37,No,quiteSure,cr,1.2054579257965088,NA
29,#49uet5,False,14,1,equal,ST1_low_4_a1,P = T2?,Same,1,1,low,112,1.02,70,1.44,112,0.92,Yes,sure,fa,1.1807832717895508,NA
30,#49uet5,False,15,1,equal,ST1_low_1_a1,P = T2?,Same,1,1,low,82,1.38,132,0.86,82,1.56,No,quiteSure,cr,1.1581318378448486,NA
31,#49uet5,False,16,1,equal,ST1_low_4_a2,P = T2?,Same,1,2,low,112,1.15,70,1.53,112,0.94,No,unsure,cr,1.6723182201385498,NA
32,#49uet5,False,17,1,equal,ST1_low_1_a2,P = T1?,Same,1,2,low,82,1.3,132,0.98,82,1.49,Yes,quiteSure,hit,1.4320380687713623,NA
33,#49uet5,False,18,1,equal,DT2_high_4_a2,P = T2?,Different,2,2,high,96,1.22,70,1.64,60,1.8,Yes,unsure,hit,3.1405203342437744,NA
34,#49uet5,False,19,1,equal,ST2_high_6_a2,P = T2?,Same,2,2,high,132,1.03,96,1.14,96,1.37,Yes,quiteSure,hit,1.0947179794311523,NA
35,#49uet5,False,20,1,equal,ST2_low_3_a2,P = T1?,Same,2,2,low,70,1.78,112,1.11,112,0.96,No,quiteSure,cr,1.225024938583374,NA
36,#49uet5,False,21,1,equal,ST2_high_4_a1,P = T2?,Same,2,1,high,96,1.22,70,1.5,70,1.68,Yes,sure,hit,0.9829092025756836,NA
37,#49uet5,False,22,1,equal,ST1_high_2_a1,P = T1?,Same,1,1,high,112,1.17,82,1.29,112,1.18,Yes,sure,hit,1.0674309730529785,NA
38,#49uet5,False,23,1,equal,ST2_high_1_a2,P = T1?,Same,2,2,high,82,1.59,112,1.01,112,1.0,No,unsure,cr,2.8417470455169678,NA
39,#49uet5,False,24,1,equal,ST2_high_2_a2,P = T1?,Same,2,2,high,112,0.92,82,1.33,82,1.29,Yes,quiteSure,fa,1.3158299922943115,NA
40,#49uet5,False,25,1,equal,ST2_high_1_a1,P = T2?,Same,2,1,high,82,1.51,112,0.92,112,1.1,Yes,sure,hit,0.9834377765655518,NA
41,#49uet5,False,26,1,equal,ST2_low_5_a2,P = T2?,Same,2,2,low,96,1.34,154,0.95,154,0.86,Yes,sure,hit,1.0420689582824707,NA
42,#49uet5,False,27,1,equal,ST1_high_3_a1,P = T2?,Same,1,1,high,70,1.72,96,1.29,70,1.71,No,sure,cr,1.1135401725769043,NA
43,#49uet5,False,28,1,equal,ST2_low_2_a2,P = T2?,Same,2,2,low,132,0.88,82,1.49,82,1.33,Yes,quiteSure,hit,1.6982572078704834,NA
44,#49uet5,False,29,1,equal,ST2_low_5_a1,P = T1?,Same,2,1,low,96,1.1,154,0.87,154,0.92,No,quiteSure,cr,1.2708392143249512,NA
45,#49uet5,False,30,1,equal,ST2_high_2_a1,P = T2?,Same,2,1,high,112,1.22,82,1.49,82,1.53,Yes,sure,hit,0.9529218673706055,NA
46,#49uet5,False,31,1,equal,ST2_high_2_a1,P = T2?,Same,2,1,high,112,0.93,82,1.49,82,1.57,Yes,quiteSure,hit,1.0693280696868896,NA
47,#49uet5,False,32,1,equal,ST2_low_1_a1,P = T2?,Same,2,1,low,82,1.29,132,0.89,132,0.88,Yes,sure,hit,0.999215841293335,NA
48,#49uet5,False,33,1,equal,ST2_high_6_a2,P = T1?,Same,2,2,high,132,0.96,96,1.36,96,1.41,No,sure,cr,1.160675048828125,NA
49,#49uet5,False,34,1,equal,ST2_low_6_a1,P = T1?,Same,2,1,low,154,0.74,96,1.31,96,1.23,No,quiteSure,cr,1.1819391250610352,NA
50,#49uet5,False,35,1,equal,ST1_high_3_a2,P = T1?,Same,1,2,high,70,1.44,96,1.21,70,1.76,Yes,sure,hit,1.0011568069458008,NA
51,#49uet5,False,36,1,equal,ST1_high_3_a2,P = T2?,Same,1,2,high,70,2.05,96,1.35,70,1.88,No,quiteSure,cr,1.6336147785186768,NA
52,#49uet5,False,37,1,equal,ST2_low_4_a2,P = T1?,Same,2,2,low,112,1.02,70,1.5,70,1.84,No,quiteSure,cr,1.6946909427642822,NA
53,#49uet5,False,38,1,equal,ST1_high_1_a2,P = T2?,Same,1,2,high,82,1.55,112,1.05,82,1.37,No,sure,cr,1.8144478797912598,NA
54,#49uet5,False,39,1,equal,ST1_high_2_a2,P = T2?,Same,1,2,high,112,0.97,82,1.62,112,1.08,No,unsure,cr,1.7618248462677002,NA
55,#49uet5,False,40,1,equal,ST2_low_4_a1,P = T2?,Same,2,1,low,112,1.13,70,1.58,70,1.7,Yes,quiteSure,hit,1.071681022644043,NA
56,#49uet5,False,41,1,equal,STb_5_a1,P = T2?,Same,0,1,None,112,1.1,112,1.05,112,1.09,Yes,sure,hit,1.362541675567627,NA
57,#49uet5,False,42,1,equal,ST2_high_1_a1,P = T1?,Same,2,1,high,82,1.44,112,1.09,112,0.92,No,quiteSure,cr,1.5590462684631348,NA
58,#49uet5,False,43,1,equal,ST2_high_1_a2,P = T2?,Same,2,2,high,82,1.42,112,1.18,112,1.12,Yes,sure,hit,1.1815001964569092,NA
59,#49uet5,False,44,1,equal,ST1_low_6_a2,P = T2?,Same,1,2,low,154,0.85,96,1.26,154,0.93,No,quiteSure,cr,1.2436177730560303,NA
60,#49uet5,False,45,1,equal,ST1_low_6_a2,P = T1?,Same,1,2,low,154,0.9,96,1.38,154,0.87,Yes,quiteSure,hit,1.1310558319091797,NA
61,#49uet5,False,46,1,equal,ST1_high_4_a1,P = T1?,Same,1,1,high,96,1.01,70,1.85,96,1.26,Yes,unsure,hit,2.103875160217285,NA
62,#49uet5,False,47,1,equal,ST2_high_2_a2,P = T2?,Same,2,2,high,112,1.19,82,1.21,82,1.42,No,unsure,miss,2.706989049911499,NA
63,#49uet5,False,48,1,equal,ST2_high_3_a1,P = T2?,Same,2,1,high,70,1.48,96,1.41,96,1.27,Yes,quiteSure,hit,1.2071030139923096,NA
64,#49uet5,False,49,1,equal,ST2_high_3_a1,P = T1?,Same,2,1,high,70,1.75,96,1.36,96,1.18,No,quiteSure,cr,1.1572129726409912,NA
65,#49uet5,False,50,1,equal,ST2_high_6_a1,P = T2?,Same,2,1,high,132,0.86,96,1.16,96,1.4,Yes,quiteSure,hit,0.9532749652862549,NA
66,#49uet5,False,51,1,equal,ST1_high_6_a1,P = T2?,Same,1,1,high,132,1.02,96,1.16,132,0.84,No,sure,cr,1.2711381912231445,NA
67,#49uet5,False,52,1,equal,ST2_low_2_a1,P = T2?,Same,2,1,low,132,0.8,82,1.43,82,1.5,Yes,sure,hit,1.1361708641052246,NA
68,#49uet5,False,53,1,equal,ST2_low_6_a1,P = T2?,Same,2,1,low,154,0.85,96,1.31,96,1.15,Yes,unsure,hit,1.8087592124938965,NA
69,#49uet5,False,54,1,equal,ST1_high_1_a1,P = T2?,Same,1,1,high,82,1.31,112,1.1,82,1.49,No,quiteSure,cr,2.0375869274139404,NA
70,#49uet5,False,55,1,equal,ST2_low_1_a2,P = T2?,Same,2,2,low,82,1.44,132,0.99,132,1.05,No,quiteSure,miss,1.2454519271850586,NA
71,#49uet5,False,56,1,equal,ST2_high_3_a2,P = T1?,Same,2,2,high,70,1.39,96,1.12,96,1.23,No,quiteSure,cr,1.3396320343017578,NA
72,#49uet5,False,57,1,equal,ST1_low_5_a1,P = T2?,Same,1,1,low,96,1.41,154,0.92,96,1.12,No,quiteSure,cr,1.1121959686279297,NA
73,#49uet5,False,58,1,equal,ST2_low_6_a1,P = T2?,Same,2,1,low,154,0.81,96,1.34,96,1.18,Yes,sure,hit,1.3592708110809326,NA
74,#49uet5,False,59,1,equal,STb_8_a1,P = T1?,Same,0,1,None,180,0.9,180,0.86,180,0.72,Yes,sure,hit,1.023658037185669,NA
75,#49uet5,False,60,1,equal,ST1_low_5_a2,P = T2?,Same,1,2,low,96,1.26,154,0.82,96,1.31,No,sure,cr,1.5859489440917969,NA
76,#49uet5,False,61,1,equal,ST1_low_1_a2,P = T1?,Same,1,2,low,82,1.63,132,1.06,82,1.28,Yes,quiteSure,hit,1.0417509078979492,NA
77,#49uet5,False,62,1,equal,ST2_high_6_a1,P = T2?,Same,2,1,high,132,0.84,96,1.07,96,1.3,Yes,quiteSure,hit,1.5643000602722168,NA
78,#49uet5,False,63,1,equal,ST1_high_5_a1,P = T2?,Same,1,1,high,96,1.35,132,1.03,96,1.2,No,sure,cr,1.5621938705444336,NA
79,#49uet5,False,64,1,equal,ST1_high_2_a2,P = T1?,Same,1,2,high,112,1.03,82,1.58,112,1.15,Yes,quiteSure,hit,1.0249440670013428,NA
80,#49uet5,False,65,1,equal,ST1_low_3_a1,P = T1?,Same,1,1,low,70,1.5,112,1.1,70,1.48,Yes,sure,hit,0.9347362518310547,NA
81,#49uet5,False,66,1,equal,ST2_high_3_a1,P = T1?,Same,2,1,high,70,1.49,96,1.42,96,1.07,Yes,quiteSure,fa,3.7626571655273438,NA
82,#49uet5,False,67,1,equal,ST1_high_5_a1,P = T1?,Same,1,1,high,96,1.33,132,0.92,96,1.3,Yes,quiteSure,hit,1.0259740352630615,NA
83,#49uet5,False,68,1,equal,ST2_high_3_a2,P = T2?,Same,2,2,high,70,1.78,96,1.21,96,1.3,Yes,quiteSure,hit,0.9101550579071045,NA
84,#49uet5,False,69,1,equal,ST1_high_4_a1,P = T2?,Same,1,1,high,96,1.24,70,1.54,96,1.28,No,quiteSure,cr,1.335637092590332,NA
85,#49uet5,False,70,1,equal,ST1_high_1_a2,P = T1?,Same,1,2,high,82,1.37,112,1.2,82,1.24,Yes,quiteSure,hit,1.1166021823883057,NA
86,#49uet5,False,71,1,equal,ST1_low_4_a1,P = T1?,Same,1,1,low,112,1.09,70,1.62,112,1.04,Yes,quiteSure,hit,0.9551060199737549,NA
87,#49uet5,False,72,1,equal,ST1_low_5_a1,P = T1?,Same,1,1,low,96,1.06,154,0.82,96,1.4,Yes,quiteSure,hit,1.039546012878418,NA
88,#49uet5,False,73,1,equal,ST2_low_1_a2,P = T1?,Same,2,2,low,82,1.42,132,0.96,132,1.04,No,sure,cr,1.8371777534484863,NA
89,#49uet5,False,74,1,equal,ST2_low_5_a1,P = T2?,Same,2,1,low,96,1.21,154,0.84,154,0.82,Yes,sure,hit,1.069390058517456,NA
90,#49uet5,False,75,1,equal,ST1_high_6_a2,P = T2?,Same,1,2,high,132,0.82,96,1.42,132,0.9,No,sure,cr,1.9259037971496582,NA
91,#49uet5,False,76,1,equal,STb_4_a2,P = T1?,Same,0,2,None,96,1.27,96,1.12,96,1.34,Yes,sure,hit,0.8895361423492432,NA
92,#49uet5,False,77,1,equal,ST1_high_6_a2,P = T1?,Same,1,2,high,132,0.89,96,1.09,132,0.84,Yes,sure,hit,0.9833340644836426,NA
93,#49uet5,False,78,1,equal,ST2_low_5_a1,P = T1?,Same,2,1,low,96,1.15,154,0.92,154,0.87,No,sure,cr,1.7893731594085693,NA
94,#49uet5,False,79,1,equal,ST1_low_6_a2,P = T1?,Same,1,2,low,154,0.9,96,1.32,154,0.76,Yes,sure,hit,0.9103310108184814,NA
95,#49uet5,False,80,1,equal,ST1_low_3_a2,P = T2?,Same,1,2,low,70,1.64,112,1.07,70,1.45,No,sure,cr,1.7695069313049316,NA
96,#49uet5,False,81,1,equal,ST1_low_2_a2,P = T1?,Same,1,2,low,132,0.95,82,1.5,132,0.98,Yes,sure,hit,0.8763537406921387,NA
97,#49uet5,False,82,1,equal,ST1_high_6_a1,P = T1?,Same,1,1,high,132,1.03,96,1.12,132,1.05,Yes,quiteSure,hit,1.0909337997436523,NA
98,#49uet5,False,83,1,equal,ST1_high_1_a1,P = T1?,Same,1,1,high,82,1.49,112,1.13,82,1.58,Yes,quiteSure,hit,0.9768838882446289,NA
99,#49uet5,False,84,1,equal,ST2_low_4_a2,P = T1?,Same,2,2,low,112,1.07,70,1.58,70,1.49,No,sure,cr,1.992475986480713,NA
100,#49uet5,False,85,1,equal,ST2_high_1_a2,P = T1?,Same,2,2,high,82,1.32,112,1.04,112,1.11,No,sure,cr,1.8325178623199463,NA
101,#49uet5,False,86,1,equal,ST1_low_2_a1,P = T1?,Same,1,1,low,132,0.93,82,1.57,132,0.93,Yes,quiteSure,hit,1.0004029273986816,NA
102,#49uet5,False,87,1,equal,ST1_low_6_a2,P = T2?,Same,1,2,low,154,0.88,96,1.11,154,0.78,No,sure,cr,1.2224891185760498,NA
103,#49uet5,False,88,1,equal,STb_2_a1,P = T1?,Same,0,1,None,70,1.42,70,1.66,70,1.8,Yes,sure,hit,0.7751779556274414,NA
104,#49uet5,False,89,1,equal,DT2_high_2_a1,P = T1?,Different,2,1,high,112,1.23,82,1.32,70,1.8,Yes,sure,fa,0.8887262344360352,NA
105,#49uet5,False,90,1,equal,ST2_high_5_a2,P = T2?,Same,2,2,high,96,1.14,132,0.9,132,1.06,Yes,sure,hit,1.113090991973877,NA
106,#49uet5,False,91,1,equal,ST2_low_4_a2,P = T1?,Same,2,2,low,112,1.19,70,1.4,70,1.53,No,sure,cr,1.339228868484497,NA
107,#49uet5,False,92,1,equal,ST1_high_4_a1,P = T2?,Same,1,1,high,96,1.16,70,1.39,96,1.12,Yes,quiteSure,fa,1.0344791412353516,NA
108,#49uet5,False,93,1,equal,ST2_high_6_a2,P = T2?,Same,2,2,high,132,0.88,96,1.37,96,1.28,Yes,quiteSure,hit,0.934669017791748,NA
109,#49uet5,False,94,1,equal,ST1_high_6_a2,P = T1?,Same,1,2,high,132,1.03,96,1.29,132,1.04,Yes,sure,hit,0.8424177169799805,NA
110,#49uet5,False,95,1,equal,ST2_high_5_a2,P = T1?,Same,2,2,high,96,1.21,132,0.98,132,0.88,No,sure,cr,1.3403689861297607,NA
111,#49uet5,False,96,1,equal,ST1_low_4_a1,P = T2?,Same,1,1,low,112,1.13,70,1.63,112,1.18,Yes,quiteSure,fa,2.0780839920043945,NA
112,#49uet5,False,97,1,equal,ST2_high_2_a2,P = T1?,Same,2,2,high,112,1.23,82,1.38,82,1.52,No,sure,cr,1.949031114578247,NA
113,#49uet5,False,98,1,equal,ST1_high_5_a2,P = T2?,Same,1,2,high,96,1.1,132,0.87,96,1.11,No,quiteSure,cr,1.1117806434631348,NA
114,#49uet5,False,99,1,equal,ST1_low_6_a2,P = T1?,Same,1,2,low,154,0.74,96,1.21,154,0.88,Yes,quiteSure,hit,0.980212926864624,NA
115,#49uet5,False,100,1,equal,ST2_high_4_a2,P = T2?,Same,2,2,high,96,1.25,70,1.62,70,1.83,Yes,quiteSure,hit,1.0018479824066162,NA
116,#49uet5,False,101,1,equal,ST1_high_3_a1,P = T1?,Same,1,1,high,70,1.52,96,1.07,70,1.42,Yes,quiteSure,hit,1.0672791004180908,NA
117,#49uet5,False,102,1,equal,STb_8_a2,P = T1?,Same,0,2,None,180,0.89,180,0.76,180,0.87,Yes,sure,hit,1.0188641548156738,NA
118,#49uet5,False,103,1,equal,ST1_low_4_a1,P = T2?,Same,1,1,low,112,1.02,70,1.65,112,1.19,No,sure,cr,1.0244991779327393,NA
119,#49uet5,False,104,1,equal,ST2_high_2_a1,P = T1?,Same,2,1,high,112,1.02,82,1.61,82,1.46,No,quiteSure,cr,1.293092966079712,NA
120,#49uet5,False,105,1,equal,ST2_low_2_a1,P = T2?,Same,2,1,low,132,0.92,82,1.34,82,1.42,Yes,quiteSure,hit,1.2988731861114502,NA
121,#49uet5,False,106,1,equal,ST1_high_4_a2,P = T2?,Same,1,2,high,96,1.07,70,1.64,96,1.06,No,quiteSure,cr,1.2058210372924805,NA
122,#49uet5,False,107,1,equal,ST2_high_3_a1,P = T1?,Same,2,1,high,70,1.68,96,1.36,96,1.35,No,quiteSure,cr,1.06986403465271,NA
123,#49uet5,False,108,1,equal,ST1_high_6_a2,P = T1?,Same,1,2,high,132,0.79,96,1.18,132,1.04,No,quiteSure,miss,1.0631029605865479,NA
124,#49uet5,False,109,1,equal,ST2_high_6_a1,P = T1?,Same,2,1,high,132,0.84,96,1.27,96,1.39,No,quiteSure,cr,1.186269998550415,NA
125,#49uet5,False,110,1,equal,ST1_high_2_a1,P = T1?,Same,1,1,high,112,1.21,82,1.28,112,1.01,Yes,sure,hit,0.9535160064697266,NA
126,#49uet5,False,111,1,equal,STb_5_a1,P = T1?,Same,0,1,None,112,1.05,112,1.13,112,0.94,Yes,sure,hit,0.9313831329345703,NA
127,#49uet5,False,112,1,equal,ST2_low_1_a2,P = T1?,Same,2,2,low,82,1.29,132,1.06,132,0.8,No,sure,cr,1.4236171245574951,NA
128,#49uet5,False,113,1,equal,ST2_low_3_a2,P = T2?,Same,2,2,low,70,1.82,112,1.04,112,0.99,Yes,quiteSure,hit,1.1179289817810059,NA
129,#49uet5,False,114,1,equal,ST1_high_1_a2,P = T1?,Same,1,2,high,82,1.39,112,0.97,82,1.38,Yes,sure,hit,0.934967041015625,NA
130,#49uet5,False,115,1,equal,ST1_low_3_a2,P = T2?,Same,1,2,low,70,1.63,112,1.09,70,1.78,No,sure,cr,1.1788790225982666,NA
131,#49uet5,False,116,1,equal,ST2_low_2_a2,P = T1?,Same,2,2,low,132,0.98,82,1.45,82,1.42,No,sure,cr,1.155900001525879,NA
132,#49uet5,False,117,1,equal,ST2_low_3_a1,P = T2?,Same,2,1,low,70,1.68,112,1.07,112,1.17,Yes,quiteSure,hit,1.0495681762695312,NA
133,#49uet5,False,118,1,equal,ST2_high_4_a2,P = T2?,Same,2,2,high,96,1.26,70,1.71,70,1.38,Yes,quiteSure,hit,1.2482349872589111,NA
134,#49uet5,False,119,1,equal,STb_3_a2,P = T2?,Same,0,2,None,82,1.47,82,1.42,82,1.22,Yes,sure,hit,0.823704719543457,NA
135,#49uet5,False,120,1,equal,STb_2_a2,P = T1?,Same,0,2,None,70,1.63,70,1.77,70,1.65,Yes,sure,hit,0.8218879699707031,NA
136,#49uet5,False,121,1,equal,ST1_low_6_a1,P = T1?,Same,1,1,low,154,0.89,96,1.09,154,0.96,Yes,unsure,hit,1.160721778869629,NA
137,#49uet5,False,122,1,equal,ST1_high_3_a1,P = T1?,Same,1,1,high,70,1.55,96,1.29,70,1.5,Yes,quiteSure,hit,1.110832691192627,NA
138,#49uet5,False,123,1,equal,ST1_low_6_a1,P = T1?,Same,1,1,low,154,0.73,96,1.2,154,0.9,Yes,quiteSure,hit,1.2836239337921143,NA
139,#49uet5,False,124,1,equal,ST2_low_4_a1,P = T1?,Same,2,1,low,112,0.92,70,1.71,70,1.57,No,sure,cr,1.1800861358642578,NA
140,#49uet5,False,125,1,equal,ST1_high_3_a1,P = T2?,Same,1,1,high,70,1.65,96,1.3,70,1.51,No,sure,cr,1.136159896850586,NA
141,#49uet5,False,126,1,equal,ST2_high_5_a2,P = T1?,Same,2,2,high,96,1.39,132,0.97,132,0.97,No,sure,cr,1.2004201412200928,NA
142,#49uet5,False,127,1,equal,ST1_low_6_a1,P = T2?,Same,1,1,low,154,0.95,96,1.34,154,0.95,No,sure,cr,1.9572453498840332,NA
143,#49uet5,False,128,1,equal,ST1_high_6_a1,P = T1?,Same,1,1,high,132,0.81,96,1.14,132,0.91,Yes,quiteSure,hit,1.0456061363220215,NA
144,#49uet5,False,129,1,equal,STb_8_a2,P = T2?,Same,0,2,None,180,0.85,180,0.85,180,0.88,Yes,sure,hit,0.8234748840332031,NA
145,#49uet5,False,130,1,equal,ST1_high_4_a2,P = T2?,Same,1,2,high,96,1.26,70,1.52,96,1.09,No,quiteSure,cr,1.5426108837127686,NA
146,#49uet5,False,131,1,equal,ST1_high_2_a1,P = T2?,Same,1,1,high,112,0.96,82,1.6,112,0.92,No,quiteSure,cr,1.4332082271575928,NA
147,#49uet5,False,132,1,equal,ST1_high_1_a2,P = T2?,Same,1,2,high,82,1.52,112,1.28,82,1.2,No,quiteSure,cr,1.2042617797851562,NA
148,#49uet5,False,133,1,equal,DT1_high_1_a1,P = T2?,Different,1,1,high,82,1.36,112,1.0,70,1.71,No,quiteSure,cr,1.0892221927642822,NA
149,#49uet5,False,134,1,equal,ST1_low_3_a1,P = T1?,Same,1,1,low,70,1.39,112,1.16,70,1.58,Yes,quiteSure,hit,1.0920231342315674,NA
150,#49uet5,False,135,1,equal,ST1_low_1_a1,P = T1?,Same,1,1,low,82,1.29,132,0.81,82,1.6,Yes,quiteSure,hit,1.989224910736084,NA
151,#49uet5,False,136,1,equal,ST2_high_4_a2,P = T1?,Same,2,2,high,96,1.28,70,1.76,70,1.79,No,sure,cr,1.7454779148101807,NA
152,#49uet5,False,137,1,equal,ST1_low_3_a1,P = T2?,Same,1,1,low,70,1.67,112,1.12,70,1.52,No,sure,cr,1.206873893737793,NA
153,#49uet5,False,138,1,equal,ST2_low_2_a2,P = T1?,Same,2,2,low,132,0.99,82,1.32,82,1.41,No,sure,cr,1.13350510597229,NA
154,#49uet5,False,139,1,equal,ST2_low_1_a2,P = T2?,Same,2,2,low,82,1.59,132,0.8,132,0.98,Yes,sure,hit,0.9743568897247314,NA
155,#49uet5,False,140,1,equal,ST2_low_1_a2,P = T1?,Same,2,2,low,82,1.32,132,0.94,132,0.97,No,sure,cr,1.020946741104126,NA
156,#49uet5,False,141,1,equal,ST1_high_5_a1,P = T2?,Same,1,1,high,96,1.42,132,0.96,96,1.12,No,quiteSure,cr,1.0916130542755127,NA
157,#49uet5,False,142,1,equal,ST2_high_5_a1,P = T2?,Same,2,1,high,96,1.23,132,0.99,132,1.04,Yes,sure,hit,1.02378511428833,NA
158,#49uet5,False,143,1,equal,ST2_high_6_a1,P = T1?,Same,2,1,high,132,0.81,96,1.4,96,1.19,No,quiteSure,cr,1.1594250202178955,NA
159,#49uet5,False,144,1,equal,ST2_high_4_a2,P = T1?,Same,2,2,high,96,1.18,70,1.41,70,1.51,No,quiteSure,cr,1.1585619449615479,NA
160,#49uet5,False,145,1,equal,ST2_low_4_a2,P = T2?,Same,2,2,low,112,0.94,70,1.44,70,1.53,Yes,sure,hit,1.6529641151428223,NA
161,#49uet5,False,146,1,equal,ST1_low_6_a1,P = T2?,Same,1,1,low,154,0.77,96,1.34,154,0.94,Yes,quiteSure,fa,1.1772398948669434,NA
162,#49uet5,False,147,1,equal,ST1_high_3_a2,P = T2?,Same,1,2,high,70,1.58,96,1.11,70,1.77,No,quiteSure,cr,2.0817699432373047,NA
163,#49uet5,False,148,1,equal,ST2_high_3_a2,P = T1?,Same,2,2,high,70,1.68,96,1.29,96,1.17,No,quiteSure,cr,1.1176197528839111,NA
164,#49uet5,False,149,1,equal,ST2_high_1_a1,P = T1?,Same,2,1,high,82,1.63,112,1.16,112,1.01,No,sure,cr,1.0448341369628906,NA
165,#49uet5,False,150,1,equal,ST2_low_3_a2,P = T2?,Same,2,2,low,70,1.52,112,1.05,112,1.08,Yes,sure,hit,1.0887742042541504,NA
166,#49uet5,False,151,1,equal,ST2_low_2_a2,P = T2?,Same,2,2,low,132,0.95,82,1.54,82,1.59,Yes,sure,hit,0.9743044376373291,NA
167,#49uet5,False,152,1,equal,ST2_low_6_a2,P = T1?,Same,2,2,low,154,0.78,96,1.22,96,1.24,No,quiteSure,cr,1.2709510326385498,NA
168,#49uet5,False,153,1,equal,ST2_high_5_a1,P = T1?,Same,2,1,high,96,1.06,132,1.03,132,1.02,No,sure,cr,1.092911958694458,NA
169,#49uet5,False,154,1,equal,DT2_low_6_a2,P = T2?,Different,2,2,low,154,0.81,96,1.15,82,1.54,No,quiteSure,miss,1.316643238067627,NA
170,#49uet5,False,155,1,equal,ST2_low_3_a1,P = T1?,Same,2,1,low,70,1.84,112,0.97,112,0.98,No,quiteSure,cr,1.091649055480957,NA
171,#49uet5,False,156,1,equal,ST1_high_4_a2,P = T1?,Same,1,2,high,96,1.22,70,1.45,96,1.31,Yes,quiteSure,hit,1.2139949798583984,NA
172,#49uet5,False,157,1,equal,ST2_low_4_a1,P = T1?,Same,2,1,low,112,0.96,70,1.42,70,1.59,No,quiteSure,cr,1.1351258754730225,NA
173,#49uet5,False,158,1,equal,DT1_low_3_a2,P = T2?,Different,1,2,low,70,1.57,112,1.13,60,1.56,No,sure,cr,1.2728421688079834,NA
174,#49uet5,False,159,1,equal,ST1_low_2_a1,P = T2?,Same,1,1,low,132,0.96,82,1.4,132,0.82,No,quiteSure,cr,2.0798330307006836,NA
175,#49uet5,False,160,1,equal,ST1_low_3_a1,P = T1?,Same,1,1,low,70,1.53,112,1.15,70,1.76,Yes,quiteSure,hit,0.9356479644775391,NA
176,#49uet5,False,161,1,equal,ST1_low_3_a2,P = T1?,Same,1,2,low,70,1.52,112,1.08,70,1.38,Yes,quiteSure,hit,1.071483850479126,NA
177,#49uet5,False,162,1,equal,ST1_low_3_a1,P = T2?,Same,1,1,low,70,1.66,112,1.06,70,1.8,No,sure,cr,1.2712140083312988,NA
178,#49uet5,False,163,1,equal,ST1_low_2_a2,P = T1?,Same,1,2,low,132,0.98,82,1.35,132,0.88,Yes,quiteSure,hit,1.0880930423736572,NA
179,#49uet5,False,164,1,equal,ST2_high_2_a1,P = T1?,Same,2,1,high,112,1.23,82,1.57,82,1.22,No,sure,cr,1.3787338733673096,NA
180,#49uet5,False,165,1,equal,ST2_low_6_a2,P = T2?,Same,2,2,low,154,0.77,96,1.3,96,1.43,Yes,quiteSure,hit,0.9317371845245361,NA
181,#49uet5,False,166,1,equal,ST1_low_5_a1,P = T2?,Same,1,1,low,96,1.28,154,0.9,96,1.25,No,sure,cr,1.1849839687347412,NA
182,#49uet5,False,167,1,equal,ST2_high_5_a2,P = T2?,Same,2,2,high,96,1.38,132,1.05,132,0.99,Yes,sure,hit,0.949307918548584,NA
183,#49uet5,False,168,1,equal,ST1_high_2_a1,P = T2?,Same,1,1,high,112,1.07,82,1.36,112,1.21,No,sure,cr,1.4952340126037598,NA
184,#49uet5,False,169,1,equal,ST2_low_2_a1,P = T1?,Same,2,1,low,132,0.95,82,1.49,82,1.57,No,sure,cr,1.0454108715057373,NA
185,#49uet5,False,170,1,equal,ST1_high_1_a1,P = T2?,Same,1,1,high,82,1.49,112,1.17,82,1.41,No,sure,cr,1.1266119480133057,NA
186,#49uet5,False,171,1,equal,ST1_high_3_a1,P = T1?,Same,1,1,high,70,1.85,96,1.07,70,1.53,Yes,sure,hit,0.7979068756103516,NA
187,#49uet5,False,172,1,equal,ST1_low_2_a1,P = T1?,Same,1,1,low,132,0.99,82,1.27,132,0.94,No,sure,miss,1.2294600009918213,NA
188,#49uet5,False,173,1,equal,ST2_high_6_a1,P = T2?,Same,2,1,high,132,1.02,96,1.16,96,1.17,Yes,quiteSure,hit,1.1821091175079346,NA
189,#49uet5,False,174,1,equal,ST1_high_2_a1,P = T1?,Same,1,1,high,112,1.07,82,1.36,112,1.13,Yes,quiteSure,hit,1.1383488178253174,NA
190,#49uet5,False,175,1,equal,ST1_low_4_a2,P = T1?,Same,1,2,low,112,1.14,70,1.5,112,1.14,Yes,sure,hit,0.9782090187072754,NA
191,#49uet5,False,176,1,equal,ST2_high_5_a2,P = T2?,Same,2,2,high,96,1.36,132,0.92,132,0.96,Yes,sure,hit,1.2508618831634521,NA
192,#49uet5,False,177,1,equal,ST1_high_4_a1,P = T2?,Same,1,1,high,96,1.1,70,1.68,96,1.32,No,sure,cr,1.2468490600585938,NA
193,#49uet5,False,178,1,equal,ST2_low_2_a2,P = T2?,Same,2,2,low,132,0.94,82,1.63,82,1.21,Yes,sure,hit,0.9342620372772217,NA
194,#49uet5,False,179,1,equal,STb_2_a1,P = T2?,Same,0,1,None,70,1.64,70,1.59,70,1.69,Yes,sure,hit,0.8662168979644775,NA
195,#49uet5,False,180,1,equal,ST2_high_1_a1,P = T2?,Same,2,1,high,82,1.28,112,1.22,112,1.08,Yes,sure,hit,0.9779360294342041,NA
196,#49uet5,False,181,1,equal,ST1_high_5_a1,P = T1?,Same,1,1,high,96,1.07,132,1.04,96,1.2,Yes,quiteSure,hit,0.9985780715942383,NA
197,#49uet5,False,182,1,equal,ST2_low_4_a2,P = T2?,Same,2,2,low,112,1.04,70,1.8,70,1.59,Yes,sure,hit,0.8601140975952148,NA
198,#49uet5,False,183,1,equal,ST1_low_2_a2,P = T2?,Same,1,2,low,132,0.96,82,1.3,132,0.94,No,sure,cr,1.3164470195770264,NA
199,#49uet5,False,184,1,equal,ST1_low_4_a1,P = T1?,Same,1,1,low,112,1.15,70,1.82,112,1.01,Yes,quiteSure,hit,1.066798210144043,NA
200,#49uet5,False,185,1,equal,STb_7_a1,P = T1?,Same,0,1,None,154,0.91,154,0.74,154,0.85,Yes,sure,hit,0.5966160297393799,NA
201,#49uet5,False,186,1,equal,ST1_low_6_a2,P = T2?,Same,1,2,low,154,0.89,96,1.37,154,0.92,No,sure,cr,1.114159107208252,NA
202,#49uet5,False,187,1,equal,ST2_low_3_a1,P = T1?,Same,2,1,low,70,1.51,112,1.06,112,1.09,No,sure,cr,1.1172232627868652,NA
203,#49uet5,False,188,1,equal,ST1_high_6_a1,P = T2?,Same,1,1,high,132,0.95,96,1.13,132,0.98,No,sure,cr,1.0909082889556885,NA
204,#49uet5,False,189,1,equal,ST2_low_5_a2,P = T1?,Same,2,2,low,96,1.1,154,0.72,154,0.84,No,sure,cr,1.1841421127319336,NA
205,#49uet5,False,190,1,equal,ST2_high_3_a2,P = T2?,Same,2,2,high,70,1.82,96,1.15,96,1.33,Yes,quiteSure,hit,1.2434768676757812,NA
206,#49uet5,False,191,1,equal,ST2_high_4_a1,P = T1?,Same,2,1,high,96,1.35,70,1.77,70,1.81,No,unsure,cr,3.2471280097961426,NA
207,#49uet5,False,192,1,equal,DT1_high_3_a2,P = T1?,Different,1,2,high,70,1.61,96,1.16,60,1.61,Yes,quiteSure,hit,1.1381561756134033,NA
208,#49uet5,False,193,1,equal,ST1_low_2_a1,P = T2?,Same,1,1,low,132,0.92,82,1.45,132,0.88,No,sure,cr,1.0352332592010498,NA
209,#49uet5,False,194,1,equal,ST1_low_5_a2,P = T2?,Same,1,2,low,96,1.1,154,0.78,96,1.21,No,sure,cr,1.1299703121185303,NA
210,#49uet5,False,195,1,equal,ST1_high_4_a2,P = T1?,Same,1,2,high,96,1.08,70,1.48,96,1.11,Yes,sure,hit,0.9503340721130371,NA
211,#49uet5,False,196,1,equal,ST1_high_2_a2,P = T2?,Same,1,2,high,112,1.21,82,1.58,112,1.22,No,sure,cr,1.2883052825927734,NA
212,#49uet5,False,197,1,equal,ST1_low_5_a1,P = T1?,Same,1,1,low,96,1.12,154,0.95,96,1.4,Yes,quiteSure,hit,1.154552698135376,NA
213,#49uet5,False,198,1,equal,ST2_high_2_a1,P = T2?,Same,2,1,high,112,0.97,82,1.31,82,1.63,Yes,sure,hit,0.8849680423736572,NA
214,#49uet5,False,199,1,equal,ST1_low_5_a1,P = T1?,Same,1,1,low,96,1.2,154,0.89,96,1.09,Yes,quiteSure,hit,1.1583302021026611,NA
215,#49uet5,False,200,1,equal,ST1_low_4_a2,P = T1?,Same,1,2,low,112,0.97,70,1.43,112,1.19,Yes,quiteSure,hit,0.9634170532226562,NA
216,#49uet5,False,201,1,equal,ST2_high_2_a2,P = T1?,Same,2,2,high,112,1.09,82,1.39,82,1.33,No,sure,cr,1.1783311367034912,NA
217,#49uet5,False,202,1,equal,DT1_high_1_a1,P = T1?,Different,1,1,high,82,1.51,112,1.2,70,1.75,No,unsure,miss,2.10381817817688,NA
218,#49uet5,False,203,1,equal,ST2_high_4_a1,P = T1?,Same,2,1,high,96,1.3,70,1.79,70,1.44,No,unsure,cr,1.2205328941345215,NA
219,#49uet5,False,204,1,equal,ST2_high_2_a2,P = T2?,Same,2,2,high,112,0.98,82,1.33,82,1.23,No,unsure,miss,1.2894988059997559,NA
220,#49uet5,False,205,1,equal,ST1_high_5_a1,P = T2?,Same,1,1,high,96,1.14,132,1.01,96,1.07,No,sure,cr,1.1338231563568115,NA
221,#49uet5,False,206,1,equal,ST1_high_1_a1,P = T1?,Same,1,1,high,82,1.28,112,1.22,82,1.55,Yes,quiteSure,hit,0.9744961261749268,NA
222,#49uet5,False,207,1,equal,ST1_high_3_a2,P = T2?,Same,1,2,high,70,1.67,96,1.15,70,1.77,No,sure,cr,1.1804051399230957,NA
223,#49uet5,False,208,1,equal,ST2_low_1_a1,P = T2?,Same,2,1,low,82,1.48,132,0.95,132,0.97,Yes,sure,hit,0.8008327484130859,NA
224,#49uet5,False,209,1,equal,ST1_low_3_a2,P = T1?,Same,1,2,low,70,1.71,112,1.07,70,1.49,Yes,quiteSure,hit,0.913053035736084,NA
225,#49uet5,False,210,1,equal,ST1_low_1_a2,P = T2?,Same,1,2,low,82,1.57,132,0.82,82,1.24,No,sure,cr,0.9971058368682861,NA
226,#49uet5,False,211,1,equal,ST2_high_1_a1,P = T2?,Same,2,1,high,82,1.43,112,0.92,112,1.18,Yes,sure,hit,0.9166688919067383,NA
227,#49uet5,False,212,1,equal,ST2_low_5_a2,P = T2?,Same,2,2,low,96,1.2,154,0.79,154,0.92,Yes,quiteSure,hit,0.8937759399414062,NA
228,#49uet5,False,213,1,equal,ST1_low_1_a1,P = T1?,Same,1,1,low,82,1.39,132,0.83,82,1.3,Yes,quiteSure,hit,0.9114048480987549,NA
229,#49uet5,False,214,1,equal,DT2_high_1_a1,P = T1?,Different,2,1,high,82,1.26,112,1.03,132,0.96,No,unsure,cr,3.3187758922576904,NA
230,#49uet5,False,215,1,equal,ST1_low_2_a1,P = T2?,Same,1,1,low,132,1.03,82,1.34,132,0.9,Yes,quiteSure,fa,4.238080024719238,NA
231,#49uet5,False,216,1,equal,ST1_high_2_a2,P = T2?,Same,1,2,high,112,1.01,82,1.51,112,1.22,No,quiteSure,cr,1.3110451698303223,NA
232,#49uet5,False,217,1,equal,ST2_low_1_a2,P = T2?,Same,2,2,low,82,1.44,132,0.89,132,0.94,Yes,sure,hit,0.8892159461975098,NA
233,#49uet5,False,218,1,equal,ST2_low_6_a1,P = T2?,Same,2,1,low,154,0.78,96,1.14,96,1.41,Yes,sure,hit,0.9511642456054688,NA
234,#49uet5,False,219,1,equal,ST2_high_1_a2,P = T1?,Same,2,2,high,82,1.22,112,1.14,112,0.96,No,sure,cr,1.2441799640655518,NA
235,#49uet5,False,220,1,equal,ST2_high_1_a2,P = T2?,Same,2,2,high,82,1.4,112,1.23,112,1.04,Yes,sure,hit,0.8644070625305176,NA
236,#49uet5,False,221,1,equal,ST1_high_4_a2,P = T2?,Same,1,2,high,96,1.36,70,1.81,96,1.16,Yes,unsure,fa,3.2284951210021973,NA
237,#49uet5,False,222,1,equal,ST1_low_1_a2,P = T1?,Same,1,2,low,82,1.28,132,0.86,82,1.52,Yes,quiteSure,hit,0.8628809452056885,NA
238,#49uet5,False,223,1,equal,ST2_low_3_a2,P = T1?,Same,2,2,low,70,1.5,112,1.22,112,1.22,No,sure,cr,1.1343529224395752,NA
239,#49uet5,False,224,1,equal,STb_1_a2,P = T1?,Same,0,2,None,60,1.69,60,1.73,60,1.69,Yes,sure,hit,0.7994070053100586,NA
240,#49uet5,False,225,1,equal,ST2_high_6_a2,P = T2?,Same,2,2,high,132,0.8,96,1.28,96,1.24,Yes,sure,hit,0.8882277011871338,NA
241,#49uet5,False,226,1,equal,ST2_high_5_a2,P = T1?,Same,2,2,high,96,1.21,132,1.09,132,0.89,No,sure,cr,1.291743278503418,NA
242,#49uet5,False,227,1,equal,ST1_high_5_a2,P = T1?,Same,1,2,high,96,1.17,132,0.93,96,1.23,Yes,quiteSure,hit,0.905325174331665,NA
243,#49uet5,False,228,1,equal,ST1_high_4_a1,P = T1?,Same,1,1,high,96,1.4,70,1.38,96,1.42,Yes,sure,hit,1.1143176555633545,NA
244,#49uet5,False,229,1,equal,ST1_high_1_a1,P = T1?,Same,1,1,high,82,1.53,112,1.17,82,1.63,Yes,unsure,hit,1.2484517097473145,NA
245,#49uet5,False,230,1,equal,ST2_high_5_a1,P = T1?,Same,2,1,high,96,1.14,132,0.88,132,0.92,No,sure,cr,1.1612629890441895,NA
246,#49uet5,False,231,1,equal,ST2_low_4_a2,P = T2?,Same,2,2,low,112,0.93,70,1.62,70,1.66,Yes,sure,hit,0.8663170337677002,NA
247,#49uet5,False,232,1,equal,ST2_low_5_a2,P = T2?,Same,2,2,low,96,1.4,154,0.72,154,0.77,Yes,sure,hit,0.8411951065063477,NA
248,#49uet5,False,233,1,equal,ST2_low_5_a1,P = T2?,Same,2,1,low,96,1.28,154,0.71,154,0.77,Yes,sure,hit,0.8701760768890381,NA
249,#49uet5,False,234,1,equal,STb_4_a2,P = T2?,Same,0,2,None,96,1.13,96,0.95,96,1.35,Yes,sure,hit,0.8670690059661865,NA
250,#49uet5,False,235,1,equal,ST1_high_6_a2,P = T2?,Same,1,2,high,132,0.91,96,1.23,132,0.94,No,quiteSure,cr,1.1806437969207764,NA
251,#49uet5,False,236,1,equal,ST2_low_3_a1,P = T2?,Same,2,1,low,70,1.42,112,1.1,112,1.07,Yes,sure,hit,0.8440909385681152,NA
252,#49uet5,False,237,1,equal,ST2_low_4_a1,P = T1?,Same,2,1,low,112,1.12,70,1.38,70,1.54,No,sure,cr,1.1338202953338623,NA
253,#49uet5,False,238,1,equal,ST1_high_1_a2,P = T1?,Same,1,2,high,82,1.49,112,1.02,82,1.56,Yes,sure,hit,0.8449270725250244,NA
254,#49uet5,False,239,1,equal,ST1_low_5_a2,P = T1?,Same,1,2,low,96,1.24,154,0.9,96,1.32,Yes,quiteSure,hit,0.9751303195953369,NA
255,#49uet5,False,240,1,equal,ST1_low_5_a2,P = T1?,Same,1,2,low,96,1.16,154,0.88,96,1.16,Yes,quiteSure,hit,0.9352869987487793,NA
256,#49uet5,False,241,1,equal,ST2_low_2_a1,P = T1?,Same,2,1,low,132,1.03,82,1.63,82,1.24,Yes,unsure,fa,3.5216572284698486,NA
257,#49uet5,False,242,1,equal,ST2_high_3_a2,P = T1?,Same,2,2,high,70,1.44,96,1.26,96,1.1,No,quiteSure,cr,1.253066062927246,NA
258,#49uet5,False,243,1,equal,ST1_high_6_a1,P = T2?,Same,1,1,high,132,0.97,96,1.35,132,0.85,No,sure,cr,1.1608471870422363,NA
259,#49uet5,False,244,1,equal,ST1_low_2_a2,P = T2?,Same,1,2,low,132,1.05,82,1.28,132,0.81,No,sure,cr,1.8830220699310303,NA
260,#49uet5,False,245,1,equal,ST2_high_4_a1,P = T2?,Same,2,1,high,96,1.18,70,1.43,70,1.52,Yes,sure,hit,0.999544620513916,NA
261,#49uet5,False,246,1,equal,STb_6_a1,P = T2?,Same,0,1,None,132,0.97,132,0.9,132,0.86,Yes,sure,hit,0.820781946182251,NA
262,#49uet5,False,247,1,equal,ST2_low_2_a1,P = T2?,Same,2,1,low,132,0.87,82,1.28,82,1.29,Yes,quiteSure,hit,0.9067602157592773,NA
263,#49uet5,False,248,1,equal,ST1_low_2_a2,P = T1?,Same,1,2,low,132,0.97,82,1.39,132,0.91,Yes,sure,hit,0.8225579261779785,NA
264,#49uet5,False,249,1,equal,ST2_high_5_a1,P = T2?,Same,2,1,high,96,1.08,132,0.91,132,0.91,Yes,quiteSure,hit,1.029237985610962,NA
265,#49uet5,False,250,1,equal,ST2_low_4_a1,P = T2?,Same,2,1,low,112,1.17,70,1.39,70,1.74,Yes,sure,hit,0.8619649410247803,NA
266,#49uet5,False,251,1,equal,ST2_high_6_a2,P = T1?,Same,2,2,high,132,0.98,96,1.25,96,1.38,No,sure,cr,1.162376880645752,NA
267,#49uet5,False,252,1,equal,ST1_high_5_a2,P = T1?,Same,1,2,high,96,1.14,132,0.8,96,1.1,Yes,quiteSure,hit,0.86578369140625,NA
268,#49uet5,False,253,1,equal,ST2_high_5_a1,P = T2?,Same,2,1,high,96,1.3,132,0.91,132,1.04,Yes,quiteSure,hit,1.10990309715271,NA
269,#49uet5,False,254,1,equal,ST2_high_4_a2,P = T2?,Same,2,2,high,96,1.15,70,1.47,70,1.55,Yes,sure,hit,0.9340641498565674,NA
270,#49uet5,False,255,1,equal,ST1_high_3_a2,P = T1?,Same,1,2,high,70,1.63,96,1.39,70,1.63,Yes,sure,hit,1.1132941246032715,NA
271,#49uet5,False,256,1,equal,ST2_low_2_a1,P = T1?,Same,2,1,low,132,0.99,82,1.43,82,1.36,No,sure,cr,1.1068992614746094,NA
272,#49uet5,False,257,1,equal,ST1_high_1_a2,P = T2?,Same,1,2,high,82,1.27,112,1.17,82,1.52,No,sure,cr,1.0935580730438232,NA
273,#49uet5,False,258,1,equal,ST1_low_2_a2,P = T2?,Same,1,2,low,132,1.05,82,1.6,132,0.88,No,sure,cr,1.046825885772705,NA
274,#49uet5,False,259,1,equal,ST1_low_4_a2,P = T2?,Same,1,2,low,112,1.23,70,1.43,112,1.2,No,sure,cr,1.2001368999481201,NA
275,#49uet5,False,260,1,equal,DT1_high_4_a2,P = T2?,Different,1,2,high,96,1.13,70,1.6,112,0.93,No,sure,cr,1.3394510746002197,NA
276,#49uet5,False,261,1,equal,ST2_high_5_a1,P = T1?,Same,2,1,high,96,1.27,132,1.01,132,0.88,No,quiteSure,cr,1.2678110599517822,NA
277,#49uet5,False,262,1,equal,ST1_high_2_a1,P = T2?,Same,1,1,high,112,1.14,82,1.38,112,1.0,No,quiteSure,cr,1.3579022884368896,NA
278,#49uet5,False,263,1,equal,ST1_low_6_a1,P = T2?,Same,1,1,low,154,0.9,96,1.27,154,0.87,No,quiteSure,cr,1.7717478275299072,NA
279,#49uet5,False,264,1,equal,ST1_low_3_a2,P = T1?,Same,1,2,low,70,1.54,112,0.92,70,1.62,Yes,sure,hit,1.0976152420043945,NA
280,#49uet5,False,265,1,equal,ST2_low_1_a1,P = T1?,Same,2,1,low,82,1.32,132,0.95,132,0.99,No,sure,cr,1.0487351417541504,NA
281,#49uet5,False,266,1,equal,ST2_high_4_a1,P = T1?,Same,2,1,high,96,1.27,70,1.56,70,1.38,No,sure,cr,1.0525860786437988,NA
282,#49uet5,False,267,1,equal,STb_6_a2,P = T2?,Same,0,2,None,132,1.05,132,0.8,132,0.89,Yes,sure,hit,0.5176661014556885,NA
283,#49uet5,False,268,1,equal,ST2_high_4_a2,P = T1?,Same,2,2,high,96,1.31,70,1.75,70,1.66,No,sure,cr,1.0433521270751953,NA
284,#49uet5,False,269,1,equal,ST1_low_3_a2,P = T2?,Same,1,2,low,70,1.68,112,1.14,70,1.81,No,quiteSure,cr,1.1761491298675537,NA
285,#49uet5,False,270,1,equal,DT1_high_4_a1,P = T1?,Different,1,1,high,96,1.35,70,1.6,112,0.97,Yes,unsure,hit,1.268580675125122,NA
286,#49uet5,False,271,1,equal,ST1_high_5_a2,P = T1?,Same,1,2,high,96,1.34,132,1.03,96,1.32,Yes,quiteSure,hit,1.0051531791687012,NA
287,#49uet5,False,272,1,equal,ST2_high_6_a1,P = T1?,Same,2,1,high,132,0.98,96,1.11,96,1.33,No,unsure,cr,2.257128953933716,NA
288,#49uet5,False,273,1,equal,DT1_low_6_a1,P = T2?,Different,1,1,low,154,0.95,96,1.4,180,0.89,No,quiteSure,cr,1.1546809673309326,NA
289,#49uet5,False,274,1,equal,ST1_low_1_a2,P = T2?,Same,1,2,low,82,1.35,132,1.03,82,1.37,No,quiteSure,cr,1.9891068935394287,NA
290,#49uet5,False,275,1,equal,ST2_low_5_a1,P = T2?,Same,2,1,low,96,1.33,154,0.9,154,0.8,Yes,sure,hit,0.9576897621154785,NA
291,#49uet5,False,276,1,equal,ST2_low_6_a2,P = T2?,Same,2,2,low,154,0.83,96,1.35,96,1.06,Yes,quiteSure,hit,0.9808609485626221,NA
292,#49uet5,False,277,1,equal,ST1_low_4_a2,P = T2?,Same,1,2,low,112,1.18,70,1.55,112,1.0,No,sure,cr,1.2961528301239014,NA
293,#49uet5,False,278,1,equal,ST2_high_3_a2,P = T2?,Same,2,2,high,70,1.74,96,1.36,96,1.13,Yes,unsure,hit,1.6989617347717285,NA
294,#49uet5,False,279,1,equal,ST2_low_1_a1,P = T1?,Same,2,1,low,82,1.59,132,0.84,132,0.85,No,sure,cr,1.1004691123962402,NA
295,#49uet5,False,280,1,equal,ST2_low_3_a2,P = T1?,Same,2,2,low,70,1.63,112,1.17,112,1.08,No,quiteSure,cr,1.2712907791137695,NA
296,#49uet5,False,281,1,equal,ST1_low_5_a2,P = T1?,Same,1,2,low,96,1.12,154,0.72,96,1.39,Yes,quiteSure,hit,1.094177007675171,NA
297,#49uet5,False,282,1,equal,DT1_high_6_a2,P = T1?,Different,1,2,high,132,1.03,96,1.2,154,0.92,No,quiteSure,miss,1.9423599243164062,NA
298,#49uet5,False,283,1,equal,ST1_low_1_a1,P = T1?,Same,1,1,low,82,1.39,132,0.95,82,1.37,Yes,unsure,hit,1.3640141487121582,NA
299,#49uet5,False,284,1,equal,ST1_high_4_a2,P = T1?,Same,1,2,high,96,1.41,70,1.65,96,1.15,Yes,quiteSure,hit,0.9118027687072754,NA
300,#49uet5,False,285,1,equal,ST1_high_5_a1,P = T1?,Same,1,1,high,96,1.12,132,0.92,96,1.4,Yes,quiteSure,hit,0.908930778503418,NA
301,#49uet5,False,286,1,equal,ST2_high_3_a1,P = T2?,Same,2,1,high,70,1.43,96,1.11,96,1.33,Yes,quiteSure,hit,0.9550209045410156,NA
302,#49uet5,False,287,1,equal,ST2_low_1_a1,P = T2?,Same,2,1,low,82,1.24,132,1.03,132,0.97,Yes,quiteSure,hit,0.9777719974517822,NA
303,#49uet5,False,288,1,equal,ST2_low_6_a1,P = T1?,Same,2,1,low,154,0.84,96,1.43,96,1.35,No,quiteSure,cr,1.3169069290161133,NA
304,#49uet5,False,289,1,equal,ST1_low_1_a1,P = T2?,Same,1,1,low,82,1.56,132,1.02,82,1.44,No,quiteSure,cr,1.2527759075164795,NA
305,#49uet5,False,290,1,equal,ST1_low_1_a1,P = T2?,Same,1,1,low,82,1.5,132,0.97,82,1.51,No,quiteSure,cr,1.0460948944091797,NA
306,#49uet5,False,291,1,equal,ST2_low_2_a2,P = T1?,Same,2,2,low,132,0.98,82,1.34,82,1.39,No,quiteSure,cr,1.0684912204742432,NA
307,#49uet5,False,292,1,equal,ST1_high_1_a1,P = T2?,Same,1,1,high,82,1.4,112,1.02,82,1.39,No,quiteSure,cr,1.0689899921417236,NA
308,#49uet5,False,293,1,equal,ST1_low_1_a2,P = T2?,Same,1,2,low,82,1.28,132,0.86,82,1.42,No,quiteSure,cr,2.0344948768615723,NA
309,#49uet5,False,294,1,equal,ST2_low_6_a2,P = T2?,Same,2,2,low,154,0.84,96,1.56,96,1.34,Yes,sure,hit,1.633533239364624,NA
310,#49uet5,False,295,1,equal,ST2_high_4_a1,P = T2?,Same,2,1,high,96,1.32,70,1.8,70,1.76,Yes,sure,hit,1.1124460697174072,NA
311,#49uet5,False,296,1,equal,ST2_low_3_a1,P = T1?,Same,2,1,low,70,1.62,112,1.17,112,1.09,No,quiteSure,cr,1.115325927734375,NA
312,#49uet5,False,297,1,equal,DT2_high_2_a2,P = T2?,Different,2,2,high,112,1.14,82,1.31,70,1.65,Yes,unsure,hit,2.7381129264831543,NA
313,#49uet5,False,298,1,equal,ST2_low_3_a1,P = T2?,Same,2,1,low,70,1.85,112,1.03,112,0.95,Yes,sure,hit,0.9831769466400146,NA
314,#49uet5,False,299,1,equal,ST1_high_2_a2,P = T1?,Same,1,2,high,112,1.13,82,1.42,112,1.18,Yes,sure,hit,0.9537208080291748,NA
315,#49uet5,False,300,1,equal,ST1_low_4_a2,P = T1?,Same,1,2,low,112,1.19,70,1.52,112,1.23,Yes,quiteSure,hit,1.2243998050689697,NA
316,#49uet5,False,301,1,equal,ST1_low_4_a1,P = T1?,Same,1,1,low,112,1.06,70,1.69,112,1.06,No,quiteSure,miss,1.498300313949585,NA
317,#49uet5,False,302,1,equal,ST1_low_3_a1,P = T2?,Same,1,1,low,70,1.54,112,1.11,70,1.51,No,sure,cr,1.076643943786621,NA
318,#49uet5,False,303,1,equal,ST2_high_3_a1,P = T2?,Same,2,1,high,70,1.55,96,1.58,96,1.09,No,quiteSure,miss,2.305330991744995,NA
319,#49uet5,False,304,1,equal,ST2_low_6_a2,P = T1?,Same,2,2,low,154,0.93,96,1.08,96,1.15,No,sure,cr,1.0017049312591553,NA
320,#49uet5,False,305,1,equal,ST2_high_2_a1,P = T1?,Same,2,1,high,112,1.03,82,1.4,82,1.36,No,quiteSure,cr,1.1579267978668213,NA
321,#49uet5,False,306,1,equal,ST1_low_6_a1,P = T1?,Same,1,1,low,154,0.75,96,1.32,154,0.84,Yes,quiteSure,hit,1.3148081302642822,NA
322,#49uet5,False,307,1,equal,DT2_low_5_a2,P = T2?,Different,2,2,low,96,1.35,154,0.88,180,0.91,No,quiteSure,miss,1.6090481281280518,NA
323,#49uet5,False,308,1,equal,DT1_low_2_a1,P = T1?,Different,1,1,low,132,0.89,82,1.21,154,0.96,No,unsure,miss,4.080559730529785,NA
324,#49uet5,False,309,1,equal,ST1_high_3_a1,P = T2?,Same,1,1,high,70,1.42,96,1.23,70,1.74,Yes,quiteSure,fa,1.3589911460876465,NA
325,#49uet5,False,310,1,equal,ST2_low_5_a1,P = T1?,Same,2,1,low,96,1.43,154,0.9,154,0.89,No,quiteSure,cr,1.0489399433135986,NA
326,#49uet5,False,311,1,equal,ST1_high_4_a1,P = T1?,Same,1,1,high,96,1.41,70,1.82,96,1.38,No,sure,miss,1.111618995666504,NA
327,#49uet5,False,312,1,equal,ST1_low_5_a2,P = T2?,Same,1,2,low,96,1.43,154,0.77,96,1.12,No,quiteSure,cr,1.2021310329437256,NA
328,#49uet5,False,313,1,equal,ST1_low_2_a1,P = T1?,Same,1,1,low,132,0.8,82,1.57,132,0.96,Yes,unsure,hit,1.2479486465454102,NA
329,#49uet5,False,314,1,equal,ST2_low_5_a2,P = T1?,Same,2,2,low,96,1.25,154,0.74,154,0.92,No,quiteSure,cr,1.1396849155426025,NA
330,#49uet5,False,315,1,equal,ST1_low_5_a1,P = T2?,Same,1,1,low,96,1.08,154,0.78,96,1.28,No,quiteSure,cr,1.7496509552001953,NA
331,#49uet5,False,316,1,equal,ST2_high_1_a1,P = T1?,Same,2,1,high,82,1.52,112,1.21,112,1.21,No,quiteSure,cr,1.0455150604248047,NA
332,#49uet5,False,317,1,equal,ST2_low_4_a1,P = T2?,Same,2,1,low,112,1.04,70,1.58,70,1.43,Yes,sure,hit,1.3398120403289795,NA
333,#49uet5,False,318,1,equal,ST1_high_5_a2,P = T2?,Same,1,2,high,96,1.35,132,0.98,96,1.18,No,quiteSure,cr,1.4065380096435547,NA
334,#49uet5,False,319,1,equal,STb_4_a1,P = T2?,Same,0,1,None,96,1.39,96,1.4,96,1.06,Yes,sure,hit,0.8210089206695557,NA
335,#49uet5,False,320,1,equal,ST1_high_5_a2,P = T2?,Same,1,2,high,96,1.33,132,0.82,96,1.25,No,quiteSure,cr,1.0929548740386963,1.0
