,pcode,practice,trial,block,questionType,condition,question,PTS,TargetPosition,AccessoryPosition,TNS,T1_hz,T1_amp,T2_hz,T2_amp,P_hz,P_amp,response_dicho,response_rating,response_sdt,rt,P_correct
0,!0u3he5,True,1,1,equal,DT1_high_5_a2,P = T2?,Different,1,2,high,96,1.24,132,1.0,82,1.39,No,unsure,cr,2.6299550533294678,NA
1,!0u3he5,True,2,1,equal,ST2_low_3_a1,P = T2?,Same,2,1,low,70,1.52,112,1.21,112,1.02,Yes,quiteSure,hit,2.249340057373047,NA
2,!0u3he5,True,3,1,equal,DT1_high_2_a1,P = T1?,Different,1,1,high,112,0.94,82,1.32,132,1.0,No,quiteSure,miss,2.8128089904785156,NA
3,!0u3he5,True,4,1,equal,STb_2_a1,P = T2?,Same,0,1,None,70,1.63,70,1.74,70,1.45,No,unsure,miss,3.150139808654785,NA
4,!0u3he5,True,5,1,equal,DT2_high_5_a2,P = T2?,Different,2,2,high,96,1.42,132,0.84,154,0.88,Yes,quiteSure,hit,1.348280906677246,NA
5,!0u3he5,True,6,1,equal,ST2_low_1_a2,P = T2?,Same,2,2,low,82,1.3,132,0.77,132,1.1,Yes,quiteSure,hit,1.3944470882415771,NA
6,!0u3he5,True,7,1,equal,STb_4_a1,P = T1?,Same,0,1,None,96,1.24,96,1.16,96,1.58,Yes,unsure,hit,1.192854881286621,NA
7,!0u3he5,True,8,1,equal,ST2_high_1_a2,P = T1?,Same,2,2,high,82,1.2,112,1.07,112,0.99,No,sure,cr,1.9125549793243408,NA
8,!0u3he5,True,9,1,equal,ST1_high_1_a1,P = T2?,Same,1,1,high,82,1.38,112,0.92,82,1.41,No,quiteSure,cr,2.368175983428955,NA
9,!0u3he5,True,10,1,equal,ST1_low_1_a2,P = T2?,Same,1,2,low,82,1.24,132,1.0,82,1.51,No,sure,cr,1.7564938068389893,NA
10,!0u3he5,True,11,1,equal,DT1_high_3_a1,P = T1?,Different,1,1,high,70,1.74,96,1.1,60,1.97,Yes,quiteSure,hit,1.374673843383789,NA
11,!0u3he5,True,12,1,equal,ST1_low_2_a2,P = T1?,Same,1,2,low,132,0.73,82,1.42,132,0.93,Yes,quiteSure,hit,1.0814857482910156,NA
12,!0u3he5,True,13,1,equal,ST2_high_5_a2,P = T1?,Same,2,2,high,96,1.31,132,0.76,132,0.82,No,quiteSure,cr,1.4169600009918213,NA
13,!0u3he5,True,14,1,equal,STb_3_a1,P = T2?,Same,0,1,None,82,1.38,82,1.41,82,1.36,Yes,unsure,hit,2.5223610401153564,NA
14,!0u3he5,True,15,1,equal,ST1_low_2_a2,P = T1?,Same,1,2,low,132,0.89,82,1.65,132,0.92,Yes,quiteSure,hit,1.0826990604400635,NA
15,!0u3he5,True,16,1,equal,STb_1_a1,P = T1?,Same,0,1,None,60,1.4,60,1.81,60,1.38,Yes,quiteSure,hit,0.9680798053741455,0.75
16,!0u3he5,False,1,1,equal,ST1_low_6_a2,P = T2?,Same,1,2,low,154,0.87,96,1.17,154,0.91,No,quiteSure,cr,2.6553940773010254,NA
17,!0u3he5,False,2,1,equal,ST1_low_3_a1,P = T1?,Same,1,1,low,70,1.65,112,1.22,70,1.59,Yes,unsure,hit,1.2371189594268799,NA
18,!0u3he5,False,3,1,equal,ST1_low_4_a1,P = T1?,Same,1,1,low,112,0.93,70,1.68,112,1.21,No,unsure,miss,3.3978230953216553,NA
19,!0u3he5,False,4,1,equal,ST1_low_2_a1,P = T1?,Same,1,1,low,132,1.0,82,1.41,132,1.03,Yes,unsure,hit,1.124168872833252,NA
20,!0u3he5,False,5,1,equal,ST1_low_1_a1,P = T1?,Same,1,1,low,82,1.6,132,0.79,82,1.42,Yes,quiteSure,hit,1.0098621845245361,NA
21,!0u3he5,False,6,1,equal,ST1_high_5_a2,P = T2?,Same,1,2,high,96,1.43,132,0.92,96,1.43,No,unsure,cr,3.3991100788116455,NA
22,!0u3he5,False,7,1,equal,ST1_high_6_a1,P = T2?,Same,1,1,high,132,0.88,96,1.39,132,0.92,No,quiteSure,cr,1.4812638759613037,NA
23,!0u3he5,False,8,1,equal,ST2_low_6_a2,P = T2?,Same,2,2,low,154,0.77,96,1.43,96,1.25,No,unsure,miss,1.524897813796997,NA
24,!0u3he5,False,9,1,equal,ST2_low_2_a1,P = T1?,Same,2,1,low,132,0.98,82,1.49,82,1.32,No,quiteSure,cr,1.2614061832427979,NA
25,!0u3he5,False,10,1,equal,ST2_high_5_a2,P = T2?,Same,2,2,high,96,1.08,132,1.05,132,0.84,Yes,quiteSure,hit,1.2168388366699219,NA
26,!0u3he5,False,11,1,equal,ST2_low_3_a1,P = T2?,Same,2,1,low,70,1.52,112,1.21,112,1.02,Yes,sure,hit,0.9430088996887207,NA
27,!0u3he5,False,12,1,equal,STb_8_a2,P = T1?,Same,0,2,None,180,0.92,180,0.86,180,0.84,Yes,quiteSure,hit,1.2562298774719238,NA
28,!0u3he5,False,13,1,equal,ST1_high_5_a1,P = T1?,Same,1,1,high,96,1.3,132,0.84,96,1.13,No,unsure,miss,4.3613197803497314,NA
29,!0u3he5,False,14,1,equal,ST1_low_5_a1,P = T1?,Same,1,1,low,96,1.36,154,0.82,96,1.33,Yes,quiteSure,hit,0.9864819049835205,NA
30,!0u3he5,False,15,1,equal,ST2_high_1_a1,P = T1?,Same,2,1,high,82,1.23,112,1.08,112,1.17,No,quiteSure,cr,1.2798728942871094,NA
31,!0u3he5,False,16,1,equal,STb_3_a2,P = T2?,Same,0,2,None,82,1.23,82,1.4,82,1.33,Yes,quiteSure,hit,0.9880461692810059,NA
32,!0u3he5,False,17,1,equal,STb_6_a1,P = T1?,Same,0,1,None,132,1.04,132,1.0,132,0.8,Yes,quiteSure,hit,3.3066771030426025,NA
33,!0u3he5,False,18,1,equal,ST2_high_1_a1,P = T1?,Same,2,1,high,82,1.58,112,1.06,112,1.14,Yes,quiteSure,fa,2.2482590675354004,NA
34,!0u3he5,False,19,1,equal,ST1_low_1_a1,P = T2?,Same,1,1,low,82,1.38,132,0.87,82,1.62,No,quiteSure,cr,2.477400064468384,NA
35,!0u3he5,False,20,1,equal,ST2_low_4_a2,P = T2?,Same,2,2,low,112,1.14,70,1.58,70,1.61,No,quiteSure,miss,2.1115128993988037,NA
36,!0u3he5,False,21,1,equal,ST2_high_4_a2,P = T1?,Same,2,2,high,96,1.39,70,1.74,70,1.82,Yes,unsure,fa,2.6735479831695557,NA
37,!0u3he5,False,22,1,equal,ST2_high_2_a2,P = T2?,Same,2,2,high,112,1.02,82,1.41,82,1.54,Yes,sure,hit,1.3249640464782715,NA
38,!0u3he5,False,23,1,equal,DT1_low_1_a2,P = T1?,Different,1,2,low,82,1.23,132,1.05,70,1.68,No,unsure,miss,4.25627326965332,NA
39,!0u3he5,False,24,1,equal,ST2_low_1_a1,P = T2?,Same,2,1,low,82,1.55,132,0.94,132,0.96,Yes,quiteSure,hit,1.0530939102172852,NA
40,!0u3he5,False,25,1,equal,ST1_low_2_a2,P = T1?,Same,1,2,low,132,0.9,82,1.44,132,0.8,Yes,quiteSure,hit,0.9690909385681152,NA
41,!0u3he5,False,26,1,equal,ST2_high_1_a2,P = T1?,Same,2,2,high,82,1.63,112,0.91,112,1.02,Yes,unsure,fa,1.7546300888061523,NA
42,!0u3he5,False,27,1,equal,ST1_high_1_a2,P = T1?,Same,1,2,high,82,1.51,112,1.19,82,1.52,Yes,quiteSure,hit,1.1213059425354004,NA
43,!0u3he5,False,28,1,equal,ST2_high_4_a1,P = T1?,Same,2,1,high,96,1.13,70,1.68,70,1.45,No,unsure,cr,1.5982379913330078,NA
44,!0u3he5,False,29,1,equal,ST2_low_2_a1,P = T1?,Same,2,1,low,132,1.05,82,1.5,82,1.43,Yes,unsure,fa,3.3959312438964844,NA
45,!0u3he5,False,30,1,equal,ST1_high_4_a2,P = T2?,Same,1,2,high,96,1.16,70,1.6,96,1.33,Yes,sure,fa,1.0547268390655518,NA
46,!0u3he5,False,31,1,equal,ST1_low_5_a2,P = T1?,Same,1,2,low,96,1.33,154,0.83,96,1.13,Yes,unsure,hit,4.745794057846069,NA
47,!0u3he5,False,32,1,equal,ST1_low_4_a1,P = T2?,Same,1,1,low,112,1.17,70,1.82,112,1.1,No,quiteSure,cr,1.2125861644744873,NA
48,!0u3he5,False,33,1,equal,ST1_low_1_a2,P = T1?,Same,1,2,low,82,1.44,132,0.84,82,1.57,No,unsure,miss,5.785226106643677,NA
49,!0u3he5,False,34,1,equal,ST2_low_2_a2,P = T1?,Same,2,2,low,132,0.83,82,1.32,82,1.51,No,quiteSure,cr,1.145664930343628,NA
50,!0u3he5,False,35,1,equal,ST2_low_4_a1,P = T2?,Same,2,1,low,112,1.17,70,1.68,70,1.64,Yes,quiteSure,hit,0.9693224430084229,NA
51,!0u3he5,False,36,1,equal,ST2_high_5_a1,P = T1?,Same,2,1,high,96,1.14,132,0.97,132,1.0,No,quiteSure,cr,1.2843780517578125,NA
52,!0u3he5,False,37,1,equal,ST1_high_2_a2,P = T1?,Same,1,2,high,112,1.13,82,1.5,112,0.96,Yes,quiteSure,hit,1.102949857711792,NA
53,!0u3he5,False,38,1,equal,ST1_high_4_a2,P = T1?,Same,1,2,high,96,1.18,70,1.56,96,1.22,No,unsure,miss,2.292466878890991,NA
54,!0u3he5,False,39,1,equal,ST2_low_1_a2,P = T2?,Same,2,2,low,82,1.3,132,0.77,132,1.1,Yes,sure,hit,0.9659559726715088,NA
55,!0u3he5,False,40,1,equal,ST1_low_3_a2,P = T2?,Same,1,2,low,70,1.71,112,1.2,70,1.59,No,quiteSure,cr,1.368722915649414,NA
56,!0u3he5,False,41,1,equal,ST2_low_2_a1,P = T2?,Same,2,1,low,132,0.88,82,1.25,82,1.27,Yes,quiteSure,hit,1.0356590747833252,NA
57,!0u3he5,False,42,1,equal,ST2_low_5_a1,P = T1?,Same,2,1,low,96,1.31,154,0.83,154,0.86,No,quiteSure,cr,1.4383559226989746,NA
58,!0u3he5,False,43,1,equal,ST1_high_3_a1,P = T1?,Same,1,1,high,70,1.79,96,1.34,70,1.72,Yes,quiteSure,hit,1.1251521110534668,NA
59,!0u3he5,False,44,1,equal,ST2_high_6_a1,P = T2?,Same,2,1,high,132,0.87,96,1.28,96,1.2,Yes,unsure,hit,2.468881845474243,NA
60,!0u3he5,False,45,1,equal,ST2_low_1_a1,P = T1?,Same,2,1,low,82,1.24,132,0.89,132,0.98,No,sure,cr,1.348498821258545,NA
61,!0u3he5,False,46,1,equal,ST1_high_5_a2,P = T1?,Same,1,2,high,96,1.34,132,0.88,96,1.4,Yes,quiteSure,hit,0.968419075012207,NA
62,!0u3he5,False,47,1,equal,ST2_low_6_a1,P = T2?,Same,2,1,low,154,0.81,96,1.09,96,1.29,Yes,quiteSure,hit,1.1279449462890625,NA
63,!0u3he5,False,48,1,equal,ST2_low_4_a1,P = T1?,Same,2,1,low,112,1.18,70,1.48,70,1.6,No,sure,cr,1.261038064956665,NA
64,!0u3he5,False,49,1,equal,ST2_low_5_a1,P = T1?,Same,2,1,low,96,1.13,154,0.94,154,0.79,No,sure,cr,1.457610845565796,NA
65,!0u3he5,False,50,1,equal,ST1_low_6_a1,P = T1?,Same,1,1,low,154,0.83,96,1.08,154,0.83,Yes,sure,hit,1.149458885192871,NA
66,!0u3he5,False,51,1,equal,ST1_low_4_a1,P = T1?,Same,1,1,low,112,1.02,70,1.51,112,1.16,Yes,quiteSure,hit,1.0363152027130127,NA
67,!0u3he5,False,52,1,equal,ST2_low_5_a1,P = T2?,Same,2,1,low,96,1.34,154,0.9,154,0.93,Yes,sure,hit,0.9923572540283203,NA
68,!0u3he5,False,53,1,equal,DT2_high_4_a1,P = T1?,Different,2,1,high,96,1.38,70,1.43,60,1.71,No,quiteSure,cr,1.281317949295044,NA
69,!0u3he5,False,54,1,equal,ST2_high_4_a2,P = T2?,Same,2,2,high,96,1.23,70,1.39,70,1.58,Yes,quiteSure,hit,1.2154197692871094,NA
70,!0u3he5,False,55,1,equal,ST1_high_1_a1,P = T1?,Same,1,1,high,82,1.41,112,1.05,82,1.63,No,quiteSure,miss,1.371722936630249,NA
71,!0u3he5,False,56,1,equal,ST2_high_5_a2,P = T2?,Same,2,2,high,96,1.33,132,0.85,132,0.79,Yes,quiteSure,hit,0.968623161315918,NA
72,!0u3he5,False,57,1,equal,ST1_low_2_a2,P = T1?,Same,1,2,low,132,0.89,82,1.65,132,0.92,Yes,sure,hit,0.9441530704498291,NA
73,!0u3he5,False,58,1,equal,ST2_high_3_a2,P = T1?,Same,2,2,high,70,1.62,96,1.38,96,1.1,Yes,quiteSure,fa,0.8509969711303711,NA
74,!0u3he5,False,59,1,equal,ST2_low_1_a2,P = T1?,Same,2,2,low,82,1.33,132,1.05,132,0.97,No,sure,cr,1.2332663536071777,NA
75,!0u3he5,False,60,1,equal,ST1_low_4_a2,P = T1?,Same,1,2,low,112,1.09,70,1.81,112,0.95,Yes,unsure,hit,2.3391780853271484,NA
76,!0u3he5,False,61,1,equal,ST1_low_3_a2,P = T1?,Same,1,2,low,70,1.43,112,1.1,70,1.81,Yes,unsure,hit,3.418058156967163,NA
77,!0u3he5,False,62,1,equal,ST1_low_5_a1,P = T2?,Same,1,1,low,96,1.25,154,0.91,96,1.08,No,sure,cr,1.3214118480682373,NA
78,!0u3he5,False,63,1,equal,ST1_high_5_a1,P = T1?,Same,1,1,high,96,1.1,132,0.95,96,1.36,Yes,quiteSure,hit,0.9632890224456787,NA
79,!0u3he5,False,64,1,equal,ST1_high_2_a1,P = T2?,Same,1,1,high,112,1.19,82,1.49,112,1.04,Yes,unsure,fa,1.075066089630127,NA
80,!0u3he5,False,65,1,equal,ST1_high_4_a1,P = T2?,Same,1,1,high,96,1.25,70,1.46,96,1.3,Yes,quiteSure,fa,1.037949800491333,NA
81,!0u3he5,False,66,1,equal,STb_1_a1,P = T2?,Same,0,1,None,60,1.98,60,1.94,60,1.53,Yes,unsure,hit,2.9883840084075928,NA
82,!0u3he5,False,67,1,equal,ST2_high_1_a2,P = T1?,Same,2,2,high,82,1.45,112,1.05,112,1.18,No,quiteSure,cr,1.126708984375,NA
83,!0u3he5,False,68,1,equal,ST1_low_1_a2,P = T1?,Same,1,2,low,82,1.38,132,0.83,82,1.29,Yes,quiteSure,hit,0.9668400287628174,NA
84,!0u3he5,False,69,1,equal,ST2_high_4_a2,P = T2?,Same,2,2,high,96,1.1,70,1.4,70,1.65,Yes,unsure,hit,0.9883480072021484,NA
85,!0u3he5,False,70,1,equal,DT2_high_1_a1,P = T2?,Different,2,1,high,82,1.41,112,1.16,132,1.05,No,quiteSure,miss,1.5298569202423096,NA
86,!0u3he5,False,71,1,equal,ST2_low_4_a2,P = T1?,Same,2,2,low,112,1.21,70,1.68,70,1.38,No,sure,cr,1.1930160522460938,NA
87,!0u3he5,False,72,1,equal,DT2_low_2_a1,P = T1?,Different,2,1,low,132,0.91,82,1.36,70,1.68,No,quiteSure,cr,1.6409409046173096,NA
88,!0u3he5,False,73,1,equal,ST2_low_6_a1,P = T2?,Same,2,1,low,154,0.74,96,1.43,96,1.42,Yes,unsure,hit,2.340571880340576,NA
89,!0u3he5,False,74,1,equal,ST1_high_1_a1,P = T2?,Same,1,1,high,82,1.38,112,0.92,82,1.41,No,quiteSure,cr,1.733957052230835,NA
90,!0u3he5,False,75,1,equal,ST1_low_1_a2,P = T2?,Same,1,2,low,82,1.23,132,0.91,82,1.42,No,sure,cr,1.5502901077270508,NA
91,!0u3he5,False,76,1,equal,ST1_high_6_a1,P = T1?,Same,1,1,high,132,0.92,96,1.14,132,0.82,No,quiteSure,miss,1.2128069400787354,NA
92,!0u3he5,False,77,1,equal,ST1_low_2_a2,P = T2?,Same,1,2,low,132,0.88,82,1.5,132,0.89,No,sure,cr,1.325429916381836,NA
93,!0u3he5,False,78,1,equal,STb_1_a1,P = T1?,Same,0,1,None,60,1.4,60,1.81,60,1.38,Yes,quiteSure,hit,0.9224741458892822,NA
94,!0u3he5,False,79,1,equal,ST1_high_4_a2,P = T2?,Same,1,2,high,96,1.11,70,1.69,96,1.32,No,quiteSure,cr,1.2571260929107666,NA
95,!0u3he5,False,80,1,equal,ST2_high_6_a1,P = T2?,Same,2,1,high,132,0.8,96,1.33,96,1.43,Yes,quiteSure,hit,1.907599925994873,NA
96,!0u3he5,False,81,1,equal,ST2_high_4_a1,P = T2?,Same,2,1,high,96,1.42,70,1.82,70,1.84,Yes,quiteSure,hit,0.945620059967041,NA
97,!0u3he5,False,82,1,equal,ST2_high_5_a1,P = T2?,Same,2,1,high,96,1.26,132,0.99,132,0.94,Yes,quiteSure,hit,0.9672622680664062,NA
98,!0u3he5,False,83,1,equal,DT2_high_1_a1,P = T1?,Different,2,1,high,82,1.46,112,0.92,132,0.92,No,sure,cr,1.70871901512146,NA
99,!0u3he5,False,84,1,equal,ST2_high_3_a1,P = T1?,Same,2,1,high,70,1.64,96,1.27,96,1.25,No,unsure,cr,1.2370307445526123,NA
100,!0u3he5,False,85,1,equal,ST2_low_5_a2,P = T2?,Same,2,2,low,96,1.27,154,0.74,154,0.72,Yes,sure,hit,1.258984088897705,NA
101,!0u3he5,False,86,1,equal,ST2_low_3_a1,P = T1?,Same,2,1,low,70,1.68,112,0.92,112,0.95,No,quiteSure,cr,1.1435701847076416,NA
102,!0u3he5,False,87,1,equal,ST2_low_3_a2,P = T2?,Same,2,2,low,70,1.55,112,0.95,112,1.01,Yes,quiteSure,hit,1.0121572017669678,NA
103,!0u3he5,False,88,1,equal,ST2_high_5_a2,P = T1?,Same,2,2,high,96,1.33,132,1.03,132,0.82,No,quiteSure,cr,1.1061248779296875,NA
104,!0u3he5,False,89,1,equal,ST1_high_2_a1,P = T1?,Same,1,1,high,112,1.1,82,1.31,112,1.12,Yes,unsure,hit,1.7803287506103516,NA
105,!0u3he5,False,90,1,equal,ST1_high_6_a2,P = T2?,Same,1,2,high,132,1.0,96,1.28,132,1.05,No,unsure,cr,7.043277978897095,NA
106,!0u3he5,False,91,1,equal,ST1_low_1_a1,P = T2?,Same,1,1,low,82,1.39,132,0.98,82,1.41,No,sure,cr,1.3034470081329346,NA
107,!0u3he5,False,92,1,equal,ST2_high_2_a2,P = T1?,Same,2,2,high,112,1.03,82,1.54,82,1.21,No,quiteSure,cr,1.099456787109375,NA
108,!0u3he5,False,93,1,equal,ST2_high_3_a2,P = T1?,Same,2,2,high,70,1.59,96,1.09,96,1.11,No,unsure,cr,1.120845079421997,NA
109,!0u3he5,False,94,1,equal,DT1_high_4_a1,P = T2?,Different,1,1,high,96,1.23,70,1.8,112,1.01,No,quiteSure,cr,1.0771987438201904,NA
110,!0u3he5,False,95,1,equal,ST1_low_3_a1,P = T1?,Same,1,1,low,70,1.58,112,1.21,70,1.61,Yes,unsure,hit,1.0565919876098633,NA
111,!0u3he5,False,96,1,equal,DT1_low_2_a2,P = T2?,Different,1,2,low,132,0.9,82,1.43,154,0.79,No,sure,cr,1.2355480194091797,NA
112,!0u3he5,False,97,1,equal,ST2_high_6_a1,P = T1?,Same,2,1,high,132,0.99,96,1.27,96,1.06,No,unsure,cr,2.1176211833953857,NA
113,!0u3he5,False,98,1,equal,ST1_low_1_a1,P = T1?,Same,1,1,low,82,1.5,132,0.85,82,1.5,Yes,unsure,hit,1.033630132675171,NA
114,!0u3he5,False,99,1,equal,ST2_high_5_a1,P = T2?,Same,2,1,high,96,1.1,132,0.97,132,0.91,Yes,quiteSure,hit,1.0139310359954834,NA
115,!0u3he5,False,100,1,equal,ST1_low_2_a1,P = T1?,Same,1,1,low,132,0.8,82,1.35,132,0.94,Yes,quiteSure,hit,0.9639177322387695,NA
116,!0u3he5,False,101,1,equal,ST1_high_3_a2,P = T1?,Same,1,2,high,70,1.5,96,1.08,70,1.59,No,unsure,miss,1.5966758728027344,NA
117,!0u3he5,False,102,1,equal,ST2_low_3_a2,P = T2?,Same,2,2,low,70,1.4,112,1.1,112,1.03,Yes,quiteSure,hit,1.0131261348724365,NA
118,!0u3he5,False,103,1,equal,ST1_high_4_a1,P = T2?,Same,1,1,high,96,1.13,70,1.83,96,1.18,No,unsure,cr,2.1540420055389404,NA
119,!0u3he5,False,104,1,equal,ST2_high_1_a1,P = T2?,Same,2,1,high,82,1.43,112,1.16,112,1.03,Yes,sure,hit,0.9410600662231445,NA
120,!0u3he5,False,105,1,equal,ST2_high_2_a1,P = T2?,Same,2,1,high,112,0.99,82,1.36,82,1.44,Yes,quiteSure,hit,1.5992188453674316,NA
121,!0u3he5,False,106,1,equal,ST2_high_5_a2,P = T2?,Same,2,2,high,96,1.23,132,0.82,132,0.96,Yes,quiteSure,hit,0.943281888961792,NA
122,!0u3he5,False,107,1,equal,ST1_high_5_a2,P = T1?,Same,1,2,high,96,1.28,132,0.95,96,1.33,No,unsure,miss,2.1822400093078613,NA
123,!0u3he5,False,108,1,equal,ST2_low_6_a1,P = T2?,Same,2,1,low,154,0.83,96,1.07,96,1.11,Yes,sure,hit,0.8956141471862793,NA
124,!0u3he5,False,109,1,equal,ST1_low_1_a1,P = T1?,Same,1,1,low,82,1.33,132,0.93,82,1.6,Yes,sure,hit,1.1295082569122314,NA
125,!0u3he5,False,110,1,equal,ST2_high_6_a1,P = T1?,Same,2,1,high,132,0.89,96,1.33,96,1.35,No,quiteSure,cr,1.1467208862304688,NA
126,!0u3he5,False,111,1,equal,ST2_high_3_a1,P = T2?,Same,2,1,high,70,1.69,96,1.06,96,1.22,Yes,unsure,hit,1.8635990619659424,NA
127,!0u3he5,False,112,1,equal,ST1_high_4_a2,P = T1?,Same,1,2,high,96,1.36,70,1.5,96,1.23,No,unsure,miss,1.7299399375915527,NA
128,!0u3he5,False,113,1,equal,ST2_low_2_a2,P = T1?,Same,2,2,low,132,1.06,82,1.25,82,1.43,No,sure,cr,1.1493370532989502,NA
129,!0u3he5,False,114,1,equal,ST2_high_4_a1,P = T1?,Same,2,1,high,96,1.17,70,1.74,70,1.48,Yes,quiteSure,fa,1.1245760917663574,NA
130,!0u3he5,False,115,1,equal,ST2_high_1_a2,P = T2?,Same,2,2,high,82,1.54,112,0.94,112,1.06,Yes,quiteSure,hit,0.9481639862060547,NA
131,!0u3he5,False,116,1,equal,ST2_low_5_a2,P = T1?,Same,2,2,low,96,1.13,154,0.94,154,0.82,No,sure,cr,1.0548572540283203,NA
132,!0u3he5,False,117,1,equal,ST1_high_1_a1,P = T1?,Same,1,1,high,82,1.33,112,1.18,82,1.61,No,unsure,miss,1.6179242134094238,NA
133,!0u3he5,False,118,1,equal,ST1_high_2_a2,P = T2?,Same,1,2,high,112,1.18,82,1.61,112,1.14,No,sure,cr,1.1702589988708496,NA
134,!0u3he5,False,119,1,equal,STb_4_a1,P = T1?,Same,0,1,None,96,1.24,96,1.16,96,1.58,No,quiteSure,miss,1.1056652069091797,NA
135,!0u3he5,False,120,1,equal,ST1_low_4_a2,P = T1?,Same,1,2,low,112,1.05,70,1.56,112,0.95,Yes,quiteSure,hit,1.101203203201294,NA
136,!0u3he5,False,121,1,equal,ST2_high_3_a1,P = T2?,Same,2,1,high,70,1.53,96,1.24,96,1.12,Yes,unsure,hit,1.687690019607544,NA
137,!0u3he5,False,122,1,equal,ST2_low_3_a2,P = T1?,Same,2,2,low,70,1.39,112,1.06,112,1.18,No,sure,cr,0.988440752029419,NA
138,!0u3he5,False,123,1,equal,ST2_low_5_a2,P = T2?,Same,2,2,low,96,1.24,154,0.74,154,0.84,Yes,sure,hit,0.9639408588409424,NA
139,!0u3he5,False,124,1,equal,ST1_high_6_a1,P = T2?,Same,1,1,high,132,0.84,96,1.3,132,0.96,No,unsure,cr,2.7826411724090576,NA
140,!0u3he5,False,125,1,equal,ST1_low_3_a2,P = T1?,Same,1,2,low,70,1.46,112,0.93,70,1.55,Yes,quiteSure,hit,0.9652070999145508,NA
141,!0u3he5,False,126,1,equal,ST1_high_2_a1,P = T1?,Same,1,1,high,112,1.08,82,1.55,112,1.0,Yes,quiteSure,hit,0.9458849430084229,NA
142,!0u3he5,False,127,1,equal,ST1_high_6_a2,P = T1?,Same,1,2,high,132,0.81,96,1.23,132,0.94,Yes,quiteSure,hit,0.966454029083252,NA
143,!0u3he5,False,128,1,equal,STb_7_a1,P = T2?,Same,0,1,None,154,0.83,154,0.87,154,0.96,Yes,sure,hit,0.9658830165863037,NA
144,!0u3he5,False,129,1,equal,ST1_high_3_a2,P = T1?,Same,1,2,high,70,1.5,96,1.42,70,1.69,No,sure,miss,1.0777947902679443,NA
145,!0u3he5,False,130,1,equal,ST1_low_5_a2,P = T2?,Same,1,2,low,96,1.14,154,0.76,96,1.23,No,sure,cr,1.1916396617889404,NA
146,!0u3he5,False,131,1,equal,ST1_low_4_a2,P = T2?,Same,1,2,low,112,1.09,70,1.71,112,1.14,No,quiteSure,cr,1.0575428009033203,NA
147,!0u3he5,False,132,1,equal,ST1_low_2_a1,P = T2?,Same,1,1,low,132,0.9,82,1.59,132,1.0,No,quiteSure,cr,1.0810680389404297,NA
148,!0u3he5,False,133,1,equal,ST2_low_6_a2,P = T1?,Same,2,2,low,154,0.89,96,1.41,96,1.3,No,quiteSure,cr,1.060711145401001,NA
149,!0u3he5,False,134,1,equal,ST1_high_3_a2,P = T2?,Same,1,2,high,70,1.69,96,1.32,70,1.73,Yes,quiteSure,fa,1.0987610816955566,NA
150,!0u3he5,False,135,1,equal,ST1_high_1_a1,P = T2?,Same,1,1,high,82,1.39,112,0.92,82,1.52,No,unsure,cr,1.371077060699463,NA
151,!0u3he5,False,136,1,equal,ST1_high_5_a2,P = T2?,Same,1,2,high,96,1.28,132,1.04,96,1.2,No,sure,cr,1.0765368938446045,NA
152,!0u3he5,False,137,1,equal,ST2_high_6_a2,P = T2?,Same,2,2,high,132,0.93,96,1.42,96,1.42,Yes,quiteSure,hit,3.445497989654541,NA
153,!0u3he5,False,138,1,equal,ST1_low_6_a1,P = T1?,Same,1,1,low,154,0.85,96,1.17,154,0.92,Yes,sure,hit,1.2138967514038086,NA
154,!0u3he5,False,139,1,equal,ST1_high_4_a1,P = T1?,Same,1,1,high,96,1.11,70,1.78,96,1.24,Yes,quiteSure,hit,1.8658978939056396,NA
155,!0u3he5,False,140,1,equal,ST2_high_2_a2,P = T1?,Same,2,2,high,112,0.92,82,1.33,82,1.22,Yes,unsure,fa,1.261765956878662,NA
156,!0u3he5,False,141,1,equal,ST1_high_6_a2,P = T1?,Same,1,2,high,132,0.97,96,1.28,132,0.89,Yes,sure,hit,1.484199047088623,NA
157,!0u3he5,False,142,1,equal,ST1_high_3_a2,P = T2?,Same,1,2,high,70,1.81,96,1.39,70,1.75,No,quiteSure,cr,1.6857941150665283,NA
158,!0u3he5,False,143,1,equal,ST2_high_6_a2,P = T2?,Same,2,2,high,132,0.85,96,1.41,96,1.07,No,quiteSure,miss,1.592170000076294,NA
159,!0u3he5,False,144,1,equal,ST1_high_6_a1,P = T1?,Same,1,1,high,132,0.9,96,1.15,132,0.86,Yes,sure,hit,1.0145349502563477,NA
160,!0u3he5,False,145,1,equal,ST1_low_1_a1,P = T2?,Same,1,1,low,82,1.46,132,0.94,82,1.36,No,quiteSure,cr,3.6698360443115234,NA
161,!0u3he5,False,146,1,equal,ST1_high_1_a1,P = T1?,Same,1,1,high,82,1.38,112,1.04,82,1.3,Yes,quiteSure,hit,0.8986098766326904,NA
162,!0u3he5,False,147,1,equal,ST1_high_6_a2,P = T1?,Same,1,2,high,132,0.86,96,1.25,132,0.95,Yes,quiteSure,hit,1.5979900360107422,NA
163,!0u3he5,False,148,1,equal,ST1_low_6_a2,P = T2?,Same,1,2,low,154,0.72,96,1.13,154,0.75,No,sure,cr,1.0112721920013428,NA
164,!0u3he5,False,149,1,equal,DT2_low_1_a1,P = T2?,Different,2,1,low,82,1.64,132,0.91,154,0.89,No,unsure,miss,3.5974888801574707,NA
165,!0u3he5,False,150,1,equal,STb_1_a2,P = T2?,Same,0,2,None,60,1.71,60,2.03,60,1.55,Yes,quiteSure,hit,0.9921808242797852,NA
166,!0u3he5,False,151,1,equal,ST2_low_4_a2,P = T1?,Same,2,2,low,112,1.17,70,1.39,70,1.84,No,unsure,cr,1.8423268795013428,NA
167,!0u3he5,False,152,1,equal,ST2_low_2_a1,P = T2?,Same,2,1,low,132,1.04,82,1.56,82,1.51,Yes,sure,hit,0.9915680885314941,NA
168,!0u3he5,False,153,1,equal,ST1_high_6_a2,P = T2?,Same,1,2,high,132,0.85,96,1.29,132,1.0,No,quiteSure,cr,1.2150700092315674,NA
169,!0u3he5,False,154,1,equal,ST1_low_3_a1,P = T2?,Same,1,1,low,70,1.41,112,0.98,70,1.77,No,quiteSure,cr,1.1933917999267578,NA
170,!0u3he5,False,155,1,equal,ST1_low_5_a1,P = T1?,Same,1,1,low,96,1.34,154,0.78,96,1.19,Yes,unsure,hit,1.3473930358886719,NA
171,!0u3he5,False,156,1,equal,ST2_low_6_a2,P = T1?,Same,2,2,low,154,0.81,96,1.41,96,1.41,No,quiteSure,cr,1.1480450630187988,NA
172,!0u3he5,False,157,1,equal,ST2_low_6_a1,P = T1?,Same,2,1,low,154,0.79,96,1.42,96,1.2,Yes,quiteSure,fa,1.1235730648040771,NA
173,!0u3he5,False,158,1,equal,ST2_low_1_a2,P = T1?,Same,2,2,low,82,1.26,132,1.06,132,0.79,No,sure,cr,1.1680021286010742,NA
174,!0u3he5,False,159,1,equal,ST1_high_1_a2,P = T2?,Same,1,2,high,82,1.36,112,0.93,82,1.26,Yes,unsure,fa,1.8891808986663818,NA
175,!0u3he5,False,160,1,equal,ST1_low_4_a2,P = T2?,Same,1,2,low,112,0.99,70,1.69,112,1.02,No,quiteSure,cr,1.1468160152435303,NA
176,!0u3he5,False,161,1,equal,ST2_low_5_a2,P = T2?,Same,2,2,low,96,1.18,154,0.79,154,0.87,Yes,sure,hit,1.0621860027313232,NA
177,!0u3he5,False,162,1,equal,ST2_high_1_a1,P = T1?,Same,2,1,high,82,1.39,112,1.03,112,1.19,No,quiteSure,cr,1.1234581470489502,NA
178,!0u3he5,False,163,1,equal,ST1_low_5_a1,P = T2?,Same,1,1,low,96,1.26,154,0.84,96,1.42,No,unsure,cr,1.5950372219085693,NA
179,!0u3he5,False,164,1,equal,ST1_high_2_a2,P = T1?,Same,1,2,high,112,0.93,82,1.25,112,1.0,Yes,quiteSure,hit,1.0312449932098389,NA
180,!0u3he5,False,165,1,equal,ST2_high_1_a2,P = T2?,Same,2,2,high,82,1.33,112,0.92,112,1.14,Yes,quiteSure,hit,1.0806691646575928,NA
181,!0u3he5,False,166,1,equal,ST2_high_3_a1,P = T2?,Same,2,1,high,70,1.78,96,1.42,96,1.14,Yes,quiteSure,hit,0.8533008098602295,NA
182,!0u3he5,False,167,1,equal,ST2_high_6_a2,P = T1?,Same,2,2,high,132,0.97,96,1.07,96,1.18,Yes,unsure,fa,1.008742094039917,NA
183,!0u3he5,False,168,1,equal,ST2_high_3_a2,P = T2?,Same,2,2,high,70,1.46,96,1.07,96,1.31,No,unsure,miss,2.228069305419922,NA
184,!0u3he5,False,169,1,equal,ST2_high_6_a1,P = T1?,Same,2,1,high,132,0.96,96,1.35,96,1.32,No,unsure,cr,1.7557628154754639,NA
185,!0u3he5,False,170,1,equal,ST2_high_2_a2,P = T2?,Same,2,2,high,112,1.18,82,1.32,82,1.37,Yes,quiteSure,hit,1.3910880088806152,NA
186,!0u3he5,False,171,1,equal,ST1_high_5_a1,P = T2?,Same,1,1,high,96,1.3,132,0.96,96,1.39,No,quiteSure,cr,1.3307819366455078,NA
187,!0u3he5,False,172,1,equal,STb_3_a1,P = T1?,Same,0,1,None,82,1.61,82,1.57,82,1.4,Yes,sure,hit,1.100208044052124,NA
188,!0u3he5,False,173,1,equal,ST1_low_2_a2,P = T2?,Same,1,2,low,132,1.04,82,1.59,132,0.84,No,sure,cr,1.2200078964233398,NA
189,!0u3he5,False,174,1,equal,ST2_high_5_a2,P = T1?,Same,2,2,high,96,1.31,132,0.76,132,0.82,No,quiteSure,cr,1.0565428733825684,NA
190,!0u3he5,False,175,1,equal,ST2_low_1_a1,P = T1?,Same,2,1,low,82,1.54,132,0.86,132,0.94,No,sure,cr,1.1003329753875732,NA
191,!0u3he5,False,176,1,equal,ST1_low_5_a1,P = T1?,Same,1,1,low,96,1.35,154,0.83,96,1.37,No,unsure,miss,1.2343149185180664,NA
192,!0u3he5,False,177,1,equal,DT2_low_1_a2,P = T1?,Different,2,2,low,82,1.29,132,0.94,154,0.92,No,sure,cr,1.441554069519043,NA
193,!0u3he5,False,178,1,equal,STb_6_a1,P = T2?,Same,0,1,None,132,1.04,132,0.8,132,1.04,Yes,sure,hit,0.9019768238067627,NA
194,!0u3he5,False,179,1,equal,ST1_low_2_a2,P = T1?,Same,1,2,low,132,0.73,82,1.42,132,0.93,Yes,quiteSure,hit,0.9226360321044922,NA
195,!0u3he5,False,180,1,equal,ST1_low_6_a2,P = T2?,Same,1,2,low,154,0.86,96,1.42,154,0.8,No,quiteSure,cr,1.1658790111541748,NA
196,!0u3he5,False,181,1,equal,ST1_low_2_a1,P = T2?,Same,1,1,low,132,0.79,82,1.3,132,1.0,No,quiteSure,cr,1.2646899223327637,NA
197,!0u3he5,False,182,1,equal,ST1_low_5_a2,P = T1?,Same,1,2,low,96,1.25,154,0.84,96,1.16,Yes,quiteSure,hit,1.1690831184387207,NA
198,!0u3he5,False,183,1,equal,ST1_high_3_a1,P = T2?,Same,1,1,high,70,1.4,96,1.08,70,1.5,Yes,unsure,fa,1.7559170722961426,NA
199,!0u3he5,False,184,1,equal,ST2_high_3_a2,P = T2?,Same,2,2,high,70,1.44,96,1.4,96,1.07,Yes,quiteSure,hit,1.1692769527435303,NA
200,!0u3he5,False,185,1,equal,ST1_high_3_a2,P = T1?,Same,1,2,high,70,1.46,96,1.15,70,1.7,No,unsure,miss,1.1040740013122559,NA
201,!0u3he5,False,186,1,equal,ST2_high_2_a2,P = T1?,Same,2,2,high,112,1.17,82,1.45,82,1.45,Yes,quiteSure,fa,1.5026588439941406,NA
202,!0u3he5,False,187,1,equal,ST2_high_6_a2,P = T2?,Same,2,2,high,132,1.04,96,1.18,96,1.15,Yes,quiteSure,hit,0.921276330947876,NA
203,!0u3he5,False,188,1,equal,ST1_high_2_a2,P = T2?,Same,1,2,high,112,1.21,82,1.54,112,0.91,No,quiteSure,cr,1.188439130783081,NA
204,!0u3he5,False,189,1,equal,ST1_high_1_a1,P = T2?,Same,1,1,high,82,1.29,112,1.06,82,1.61,Yes,quiteSure,fa,1.0325927734375,NA
205,!0u3he5,False,190,1,equal,ST2_high_3_a2,P = T2?,Same,2,2,high,70,1.83,96,1.28,96,1.34,Yes,quiteSure,hit,1.637976884841919,NA
206,!0u3he5,False,191,1,equal,ST1_low_6_a1,P = T2?,Same,1,1,low,154,0.84,96,1.4,154,0.95,No,sure,cr,0.9629049301147461,NA
207,!0u3he5,False,192,1,equal,ST2_low_6_a2,P = T2?,Same,2,2,low,154,0.93,96,1.17,96,1.29,Yes,sure,hit,0.9672420024871826,NA
208,!0u3he5,False,193,1,equal,ST1_high_5_a2,P = T1?,Same,1,2,high,96,1.13,132,1.03,96,1.12,Yes,quiteSure,hit,0.9244730472564697,NA
209,!0u3he5,False,194,1,equal,ST1_high_4_a1,P = T1?,Same,1,1,high,96,1.29,70,1.71,96,1.4,Yes,quiteSure,hit,0.8973989486694336,NA
210,!0u3he5,False,195,1,equal,ST1_high_2_a2,P = T1?,Same,1,2,high,112,1.01,82,1.51,112,1.13,Yes,quiteSure,hit,0.8956730365753174,NA
211,!0u3he5,False,196,1,equal,STb_5_a2,P = T1?,Same,0,2,None,112,1.2,112,1.02,112,1.01,Yes,quiteSure,hit,0.8996407985687256,NA
212,!0u3he5,False,197,1,equal,ST2_low_4_a2,P = T1?,Same,2,2,low,112,0.96,70,1.61,70,1.44,No,sure,cr,1.065309762954712,NA
213,!0u3he5,False,198,1,equal,ST2_low_1_a2,P = T1?,Same,2,2,low,82,1.23,132,0.88,132,1.04,No,sure,cr,1.0609321594238281,NA
214,!0u3he5,False,199,1,equal,ST1_high_1_a2,P = T1?,Same,1,2,high,82,1.6,112,1.11,82,1.6,Yes,quiteSure,hit,1.0351159572601318,NA
215,!0u3he5,False,200,1,equal,ST1_low_2_a2,P = T2?,Same,1,2,low,132,0.99,82,1.64,132,1.05,No,quiteSure,cr,1.1186408996582031,NA
216,!0u3he5,False,201,1,equal,ST2_high_5_a1,P = T1?,Same,2,1,high,96,1.27,132,1.01,132,0.81,No,quiteSure,cr,1.0826060771942139,NA
217,!0u3he5,False,202,1,equal,ST2_low_3_a1,P = T2?,Same,2,1,low,70,1.42,112,1.11,112,1.05,Yes,sure,hit,1.212057113647461,NA
218,!0u3he5,False,203,1,equal,ST1_high_5_a1,P = T2?,Same,1,1,high,96,1.07,132,0.85,96,1.3,Yes,unsure,fa,2.8763277530670166,NA
219,!0u3he5,False,204,1,equal,ST2_low_3_a1,P = T1?,Same,2,1,low,70,1.7,112,1.02,112,1.11,No,quiteSure,cr,1.0081048011779785,NA
220,!0u3he5,False,205,1,equal,ST1_low_4_a1,P = T1?,Same,1,1,low,112,0.97,70,1.83,112,1.23,Yes,quiteSure,hit,0.8980560302734375,NA
221,!0u3he5,False,206,1,equal,ST1_high_6_a2,P = T2?,Same,1,2,high,132,0.98,96,1.12,132,0.8,No,quiteSure,cr,1.0778298377990723,NA
222,!0u3he5,False,207,1,equal,ST1_low_6_a2,P = T1?,Same,1,2,low,154,0.79,96,1.4,154,0.92,Yes,unsure,hit,1.2395169734954834,NA
223,!0u3he5,False,208,1,equal,ST2_low_1_a1,P = T2?,Same,2,1,low,82,1.56,132,0.8,132,0.83,No,unsure,miss,1.7748348712921143,NA
224,!0u3he5,False,209,1,equal,ST2_high_1_a2,P = T2?,Same,2,2,high,82,1.38,112,1.12,112,0.95,Yes,sure,hit,0.9202940464019775,NA
225,!0u3he5,False,210,1,equal,ST2_low_1_a2,P = T2?,Same,2,2,low,82,1.33,132,0.81,132,0.79,Yes,sure,hit,1.164585828781128,NA
226,!0u3he5,False,211,1,equal,ST1_high_6_a1,P = T2?,Same,1,1,high,132,0.99,96,1.42,132,0.95,No,unsure,cr,1.077430009841919,NA
227,!0u3he5,False,212,1,equal,ST2_low_4_a1,P = T1?,Same,2,1,low,112,1.11,70,1.63,70,1.55,No,quiteSure,cr,1.0092411041259766,NA
228,!0u3he5,False,213,1,equal,ST1_low_5_a2,P = T1?,Same,1,2,low,96,1.16,154,0.81,96,1.14,Yes,quiteSure,hit,1.1664471626281738,NA
229,!0u3he5,False,214,1,equal,ST2_high_2_a2,P = T2?,Same,2,2,high,112,1.03,82,1.31,82,1.56,Yes,quiteSure,hit,0.8770029544830322,NA
230,!0u3he5,False,215,1,equal,ST1_low_4_a2,P = T1?,Same,1,2,low,112,1.16,70,1.73,112,1.12,Yes,quiteSure,hit,0.9202260971069336,NA
231,!0u3he5,False,216,1,equal,ST1_high_4_a1,P = T1?,Same,1,1,high,96,1.17,70,1.59,96,1.23,Yes,unsure,hit,2.768791913986206,NA
232,!0u3he5,False,217,1,equal,ST1_low_6_a2,P = T1?,Same,1,2,low,154,0.81,96,1.33,154,0.86,Yes,sure,hit,0.8552312850952148,NA
233,!0u3he5,False,218,1,equal,ST2_low_4_a2,P = T2?,Same,2,2,low,112,1.11,70,1.62,70,1.37,Yes,quiteSure,hit,1.8677449226379395,NA
234,!0u3he5,False,219,1,equal,ST2_low_2_a2,P = T2?,Same,2,2,low,132,1.02,82,1.6,82,1.33,Yes,quiteSure,hit,0.9015922546386719,NA
235,!0u3he5,False,220,1,equal,ST1_high_5_a2,P = T2?,Same,1,2,high,96,1.39,132,0.9,96,1.13,No,quiteSure,cr,1.123351812362671,NA
236,!0u3he5,False,221,1,equal,ST2_high_4_a2,P = T1?,Same,2,2,high,96,1.29,70,1.73,70,1.43,No,unsure,cr,1.1903328895568848,NA
237,!0u3he5,False,222,1,equal,ST2_high_6_a2,P = T1?,Same,2,2,high,132,0.82,96,1.16,96,1.17,No,quiteSure,cr,1.0998508930206299,NA
238,!0u3he5,False,223,1,equal,ST2_high_2_a1,P = T2?,Same,2,1,high,112,1.12,82,1.49,82,1.54,Yes,quiteSure,hit,0.8989880084991455,NA
239,!0u3he5,False,224,1,equal,STb_5_a1,P = T2?,Same,0,1,None,112,1.19,112,1.18,112,1.1,Yes,sure,hit,0.9587428569793701,NA
240,!0u3he5,False,225,1,equal,ST1_low_2_a1,P = T1?,Same,1,1,low,132,0.95,82,1.61,132,0.93,Yes,sure,hit,0.8816907405853271,NA
241,!0u3he5,False,226,1,equal,ST2_low_4_a1,P = T2?,Same,2,1,low,112,0.95,70,1.61,70,1.66,Yes,quiteSure,hit,0.9411048889160156,NA
242,!0u3he5,False,227,1,equal,ST2_high_1_a1,P = T2?,Same,2,1,high,82,1.45,112,1.21,112,1.22,Yes,quiteSure,hit,0.8680539131164551,NA
243,!0u3he5,False,228,1,equal,ST2_high_4_a1,P = T2?,Same,2,1,high,96,1.38,70,1.43,70,1.78,No,unsure,miss,1.6858749389648438,NA
244,!0u3he5,False,229,1,equal,ST2_high_2_a1,P = T1?,Same,2,1,high,112,1.04,82,1.37,82,1.25,No,quiteSure,cr,1.0113170146942139,NA
245,!0u3he5,False,230,1,equal,ST1_low_3_a1,P = T1?,Same,1,1,low,70,1.72,112,1.07,70,1.57,Yes,sure,hit,0.9541110992431641,NA
246,!0u3he5,False,231,1,equal,ST2_low_1_a1,P = T2?,Same,2,1,low,82,1.28,132,0.8,132,0.94,Yes,sure,hit,0.9585897922515869,NA
247,!0u3he5,False,232,1,equal,ST1_high_3_a1,P = T1?,Same,1,1,high,70,1.5,96,1.1,70,1.85,Yes,quiteSure,hit,0.9011552333831787,NA
248,!0u3he5,False,233,1,equal,ST2_high_3_a1,P = T1?,Same,2,1,high,70,1.8,96,1.1,96,1.31,No,sure,cr,1.0816371440887451,NA
249,!0u3he5,False,234,1,equal,ST1_low_5_a1,P = T2?,Same,1,1,low,96,1.17,154,0.75,96,1.33,No,sure,cr,1.3272559642791748,NA
250,!0u3he5,False,235,1,equal,DT2_low_3_a2,P = T2?,Different,2,2,low,70,1.44,112,0.92,132,1.05,No,sure,miss,1.0319981575012207,NA
251,!0u3he5,False,236,1,equal,ST1_low_1_a2,P = T1?,Same,1,2,low,82,1.34,132,0.97,82,1.55,Yes,quiteSure,hit,1.2609732151031494,NA
252,!0u3he5,False,237,1,equal,ST1_low_4_a1,P = T2?,Same,1,1,low,112,1.01,70,1.57,112,1.2,No,sure,cr,1.2361719608306885,NA
253,!0u3he5,False,238,1,equal,ST2_low_1_a1,P = T1?,Same,2,1,low,82,1.53,132,0.86,132,0.86,No,quiteSure,cr,1.0546019077301025,NA
254,!0u3he5,False,239,1,equal,ST1_low_6_a1,P = T1?,Same,1,1,low,154,0.79,96,1.22,154,0.8,Yes,sure,hit,0.8568999767303467,NA
255,!0u3he5,False,240,1,equal,DT1_high_3_a2,P = T2?,Different,1,2,high,70,1.4,96,1.12,60,1.55,No,unsure,cr,1.3308351039886475,NA
256,!0u3he5,False,241,1,equal,ST2_low_2_a1,P = T1?,Same,2,1,low,132,0.91,82,1.31,82,1.24,No,sure,cr,0.9895539283752441,NA
257,!0u3he5,False,242,1,equal,ST2_high_3_a1,P = T1?,Same,2,1,high,70,1.54,96,1.13,96,1.2,No,unsure,cr,1.4609980583190918,NA
258,!0u3he5,False,243,1,equal,ST1_low_6_a2,P = T1?,Same,1,2,low,154,0.88,96,1.18,154,0.88,Yes,sure,hit,0.9443831443786621,NA
259,!0u3he5,False,244,1,equal,STb_5_a2,P = T2?,Same,0,2,None,112,1.13,112,1.03,112,1.2,Yes,sure,hit,0.9256880283355713,NA
260,!0u3he5,False,245,1,equal,ST1_low_6_a1,P = T2?,Same,1,1,low,154,0.88,96,1.24,154,0.76,No,quiteSure,cr,5.106749057769775,NA
261,!0u3he5,False,246,1,equal,ST2_low_4_a2,P = T2?,Same,2,2,low,112,1.02,70,1.47,70,1.43,Yes,quiteSure,hit,1.0775561332702637,NA
262,!0u3he5,False,247,1,equal,DT2_high_6_a1,P = T1?,Different,2,1,high,132,0.8,96,1.37,82,1.3,Yes,quiteSure,fa,0.9194936752319336,NA
263,!0u3he5,False,248,1,equal,DT2_low_1_a1,P = T1?,Different,2,1,low,82,1.41,132,0.98,154,0.86,No,quiteSure,cr,1.1917457580566406,NA
264,!0u3he5,False,249,1,equal,ST1_high_3_a1,P = T2?,Same,1,1,high,70,1.75,96,1.06,70,1.54,No,unsure,cr,1.2831239700317383,NA
265,!0u3he5,False,250,1,equal,ST1_high_3_a2,P = T2?,Same,1,2,high,70,1.58,96,1.08,70,1.79,Yes,quiteSure,fa,0.9461309909820557,NA
266,!0u3he5,False,251,1,equal,STb_8_a1,P = T1?,Same,0,1,None,180,0.92,180,0.85,180,0.88,Yes,sure,hit,1.0088567733764648,NA
267,!0u3he5,False,252,1,equal,ST2_low_2_a2,P = T2?,Same,2,2,low,132,1.05,82,1.38,82,1.59,Yes,sure,hit,0.9253561496734619,NA
268,!0u3he5,False,253,1,equal,ST1_high_5_a1,P = T1?,Same,1,1,high,96,1.14,132,0.98,96,1.29,Yes,quiteSure,hit,1.2650339603424072,NA
269,!0u3he5,False,254,1,equal,ST1_high_2_a1,P = T2?,Same,1,1,high,112,1.0,82,1.38,112,1.15,No,quiteSure,cr,1.1253669261932373,NA
270,!0u3he5,False,255,1,equal,ST2_low_5_a2,P = T1?,Same,2,2,low,96,1.41,154,0.89,154,0.82,No,sure,cr,1.0805323123931885,NA
271,!0u3he5,False,256,1,equal,ST2_high_4_a2,P = T2?,Same,2,2,high,96,1.33,70,1.83,70,1.83,Yes,unsure,hit,1.1003458499908447,NA
272,!0u3he5,False,257,1,equal,ST1_high_2_a2,P = T2?,Same,1,2,high,112,1.0,82,1.37,112,1.17,No,sure,cr,1.0389618873596191,NA
273,!0u3he5,False,258,1,equal,ST1_low_1_a2,P = T2?,Same,1,2,low,82,1.58,132,1.06,82,1.31,No,sure,cr,0.963001012802124,NA
274,!0u3he5,False,259,1,equal,STb_6_a2,P = T2?,Same,0,2,None,132,0.98,132,0.96,132,0.91,Yes,sure,hit,0.9888050556182861,NA
275,!0u3he5,False,260,1,equal,ST1_low_3_a2,P = T1?,Same,1,2,low,70,1.37,112,1.12,70,1.79,Yes,quiteSure,hit,1.147062063217163,NA
276,!0u3he5,False,261,1,equal,ST1_high_3_a1,P = T1?,Same,1,1,high,70,1.84,96,1.41,70,1.83,Yes,unsure,hit,1.0545101165771484,NA
277,!0u3he5,False,262,1,equal,ST1_low_1_a2,P = T2?,Same,1,2,low,82,1.24,132,1.0,82,1.51,No,sure,cr,2.4962072372436523,NA
278,!0u3he5,False,263,1,equal,ST1_high_4_a2,P = T1?,Same,1,2,high,96,1.39,70,1.74,96,1.21,No,unsure,miss,1.686453104019165,NA
279,!0u3he5,False,264,1,equal,ST2_high_6_a2,P = T1?,Same,2,2,high,132,0.94,96,1.28,96,1.42,No,unsure,cr,1.3911840915679932,NA
280,!0u3he5,False,265,1,equal,DT2_high_4_a2,P = T2?,Different,2,2,high,96,1.18,70,1.38,60,1.76,Yes,unsure,hit,1.5770421028137207,NA
281,!0u3he5,False,266,1,equal,ST1_low_2_a1,P = T2?,Same,1,1,low,132,0.87,82,1.57,132,1.02,No,sure,cr,1.0097980499267578,NA
282,!0u3he5,False,267,1,equal,ST1_high_6_a1,P = T1?,Same,1,1,high,132,0.91,96,1.32,132,0.91,Yes,quiteSure,hit,2.3851499557495117,NA
283,!0u3he5,False,268,1,equal,DT1_low_6_a1,P = T1?,Different,1,1,low,154,0.8,96,1.11,180,0.75,No,unsure,miss,1.1880950927734375,NA
284,!0u3he5,False,269,1,equal,ST2_low_3_a1,P = T1?,Same,2,1,low,70,1.38,112,1.01,112,1.22,No,unsure,cr,1.4170451164245605,NA
285,!0u3he5,False,270,1,equal,ST2_high_4_a2,P = T1?,Same,2,2,high,96,1.41,70,1.43,70,1.75,Yes,quiteSure,fa,0.9437861442565918,NA
286,!0u3he5,False,271,1,equal,ST2_low_2_a1,P = T2?,Same,2,1,low,132,1.01,82,1.55,82,1.32,Yes,sure,hit,1.050766944885254,NA
287,!0u3he5,False,272,1,equal,ST2_high_1_a2,P = T1?,Same,2,2,high,82,1.2,112,1.07,112,0.99,No,quiteSure,cr,1.594702959060669,NA
288,!0u3he5,False,273,1,equal,DT2_high_6_a1,P = T2?,Different,2,1,high,132,0.99,96,1.09,82,1.36,Yes,quiteSure,hit,0.8333539962768555,NA
289,!0u3he5,False,274,1,equal,ST2_low_2_a2,P = T2?,Same,2,2,low,132,0.96,82,1.53,82,1.24,Yes,quiteSure,hit,0.8560183048248291,NA
290,!0u3he5,False,275,1,equal,ST1_low_4_a2,P = T2?,Same,1,2,low,112,1.05,70,1.42,112,1.21,No,sure,cr,1.0555100440979004,NA
291,!0u3he5,False,276,1,equal,ST2_low_6_a1,P = T1?,Same,2,1,low,154,0.8,96,1.38,96,1.21,No,quiteSure,cr,1.0570099353790283,NA
292,!0u3he5,False,277,1,equal,ST1_low_6_a1,P = T2?,Same,1,1,low,154,0.91,96,1.22,154,0.94,No,quiteSure,cr,1.5987789630889893,NA
293,!0u3he5,False,278,1,equal,ST2_high_2_a1,P = T1?,Same,2,1,high,112,1.12,82,1.63,82,1.24,Yes,quiteSure,fa,0.9493601322174072,NA
294,!0u3he5,False,279,1,equal,ST2_low_3_a1,P = T2?,Same,2,1,low,70,1.49,112,1.19,112,1.14,Yes,sure,hit,0.8546102046966553,NA
295,!0u3he5,False,280,1,equal,ST2_low_3_a2,P = T2?,Same,2,2,low,70,1.72,112,1.05,112,1.01,Yes,quiteSure,hit,0.9713640213012695,NA
296,!0u3he5,False,281,1,equal,ST2_high_6_a1,P = T2?,Same,2,1,high,132,1.03,96,1.1,96,1.14,No,unsure,miss,2.3411529064178467,NA
297,!0u3he5,False,282,1,equal,ST1_high_4_a1,P = T2?,Same,1,1,high,96,1.3,70,1.43,96,1.25,No,unsure,cr,1.7349300384521484,NA
298,!0u3he5,False,283,1,equal,ST2_high_4_a1,P = T1?,Same,2,1,high,96,1.31,70,1.71,70,1.61,No,unsure,cr,1.4208481311798096,NA
299,!0u3he5,False,284,1,equal,ST1_low_3_a1,P = T2?,Same,1,1,low,70,1.51,112,1.18,70,1.6,No,sure,cr,1.0137481689453125,NA
300,!0u3he5,False,285,1,equal,ST2_low_5_a1,P = T2?,Same,2,1,low,96,1.32,154,0.72,154,0.91,Yes,sure,hit,0.8776130676269531,NA
301,!0u3he5,False,286,1,equal,ST1_high_2_a1,P = T1?,Same,1,1,high,112,1.01,82,1.28,112,1.06,No,unsure,miss,1.2816808223724365,NA
302,!0u3he5,False,287,1,equal,ST1_high_2_a1,P = T2?,Same,1,1,high,112,1.09,82,1.28,112,1.14,No,sure,cr,0.9882247447967529,NA
303,!0u3he5,False,288,1,equal,ST2_low_4_a1,P = T2?,Same,2,1,low,112,0.96,70,1.37,70,1.57,Yes,unsure,hit,2.25744366645813,NA
304,!0u3he5,False,289,1,equal,ST1_high_1_a2,P = T2?,Same,1,2,high,82,1.28,112,1.19,82,1.38,Yes,unsure,fa,0.9061586856842041,NA
305,!0u3he5,False,290,1,equal,STb_1_a2,P = T1?,Same,0,2,None,60,1.52,60,1.59,60,1.86,No,unsure,miss,1.3732240200042725,NA
306,!0u3he5,False,291,1,equal,ST2_low_2_a2,P = T1?,Same,2,2,low,132,1.02,82,1.4,82,1.25,No,sure,cr,1.5720062255859375,NA
307,!0u3he5,False,292,1,equal,ST2_low_4_a1,P = T1?,Same,2,1,low,112,1.15,70,1.83,70,1.69,No,quiteSure,cr,1.0564489364624023,NA
308,!0u3he5,False,293,1,equal,ST2_low_3_a2,P = T1?,Same,2,2,low,70,1.47,112,1.16,112,0.98,No,quiteSure,cr,1.0773510932922363,NA
309,!0u3he5,False,294,1,equal,ST1_low_5_a2,P = T2?,Same,1,2,low,96,1.4,154,0.71,96,1.17,No,quiteSure,cr,1.2605462074279785,NA
310,!0u3he5,False,295,1,equal,ST2_high_1_a1,P = T2?,Same,2,1,high,82,1.22,112,1.09,112,1.09,Yes,quiteSure,hit,1.0125751495361328,NA
311,!0u3he5,False,296,1,equal,ST2_high_3_a2,P = T1?,Same,2,2,high,70,1.74,96,1.32,96,1.09,No,unsure,cr,2.0901687145233154,NA
312,!0u3he5,False,297,1,equal,ST2_high_4_a1,P = T2?,Same,2,1,high,96,1.17,70,1.44,70,1.77,Yes,quiteSure,hit,0.8988149166107178,NA
313,!0u3he5,False,298,1,equal,ST1_high_5_a1,P = T2?,Same,1,1,high,96,1.12,132,0.82,96,1.2,No,sure,cr,1.1906161308288574,NA
314,!0u3he5,False,299,1,equal,ST1_low_3_a2,P = T2?,Same,1,2,low,70,1.76,112,1.13,70,1.62,Yes,quiteSure,fa,0.8079879283905029,NA
315,!0u3he5,False,300,1,equal,ST2_high_5_a1,P = T2?,Same,2,1,high,96,1.42,132,0.91,132,0.89,Yes,sure,hit,0.8107209205627441,NA
316,!0u3he5,False,301,1,equal,ST2_low_3_a2,P = T1?,Same,2,2,low,70,1.73,112,1.04,112,1.11,No,quiteSure,cr,1.6894190311431885,NA
317,!0u3he5,False,302,1,equal,ST2_low_6_a2,P = T1?,Same,2,2,low,154,0.82,96,1.31,96,1.16,No,sure,cr,1.0539169311523438,NA
318,!0u3he5,False,303,1,equal,ST1_high_3_a1,P = T2?,Same,1,1,high,70,1.51,96,1.31,70,1.38,Yes,unsure,fa,2.0042197704315186,NA
319,!0u3he5,False,304,1,equal,ST2_low_5_a2,P = T1?,Same,2,2,low,96,1.36,154,0.8,154,0.91,No,quiteSure,cr,1.3493478298187256,NA
320,!0u3he5,False,305,1,equal,ST2_low_5_a1,P = T2?,Same,2,1,low,96,1.26,154,0.73,154,0.72,Yes,sure,hit,0.9213039875030518,NA
321,!0u3he5,False,306,1,equal,ST2_high_5_a2,P = T1?,Same,2,2,high,96,1.3,132,1.05,132,0.84,No,quiteSure,cr,1.2133338451385498,NA
322,!0u3he5,False,307,1,equal,ST1_low_3_a2,P = T2?,Same,1,2,low,70,1.44,112,0.96,70,1.64,No,quiteSure,cr,1.035747766494751,NA
323,!0u3he5,False,308,1,equal,ST2_low_6_a2,P = T2?,Same,2,2,low,154,0.85,96,1.08,96,1.14,Yes,unsure,hit,1.3911442756652832,NA
324,!0u3he5,False,309,1,equal,ST1_low_5_a2,P = T2?,Same,1,2,low,96,1.38,154,0.8,96,1.29,No,quiteSure,cr,1.0541601181030273,NA
325,!0u3he5,False,310,1,equal,ST1_low_3_a1,P = T2?,Same,1,1,low,70,1.72,112,1.0,70,1.39,No,quiteSure,cr,0.9914519786834717,NA
326,!0u3he5,False,311,1,equal,ST1_low_4_a1,P = T2?,Same,1,1,low,112,1.05,70,1.51,112,1.13,No,quiteSure,cr,0.9231128692626953,NA
327,!0u3he5,False,312,1,equal,ST2_low_6_a1,P = T1?,Same,2,1,low,154,0.73,96,1.16,96,1.29,Yes,quiteSure,fa,0.8311948776245117,NA
328,!0u3he5,False,313,1,equal,ST2_high_5_a1,P = T1?,Same,2,1,high,96,1.19,132,0.84,132,0.81,No,sure,cr,1.241837978363037,NA
329,!0u3he5,False,314,1,equal,ST2_high_2_a1,P = T1?,Same,2,1,high,112,1.04,82,1.44,82,1.48,No,quiteSure,cr,0.9608840942382812,NA
330,!0u3he5,False,315,1,equal,ST1_high_4_a2,P = T2?,Same,1,2,high,96,1.37,70,1.52,96,1.23,No,sure,cr,1.0083889961242676,NA
331,!0u3he5,False,316,1,equal,ST1_high_1_a2,P = T2?,Same,1,2,high,82,1.63,112,1.19,82,1.36,No,sure,cr,1.0331220626831055,NA
332,!0u3he5,False,317,1,equal,ST2_low_5_a1,P = T1?,Same,2,1,low,96,1.23,154,0.84,154,0.92,No,sure,cr,1.1442630290985107,NA
333,!0u3he5,False,318,1,equal,ST2_high_2_a1,P = T2?,Same,2,1,high,112,0.94,82,1.26,82,1.27,Yes,sure,hit,0.8204898834228516,NA
334,!0u3he5,False,319,1,equal,ST2_low_1_a2,P = T2?,Same,2,2,low,82,1.47,132,0.86,132,1.0,Yes,quiteSure,hit,0.985576868057251,NA
335,!0u3he5,False,320,1,equal,ST1_high_1_a2,P = T1?,Same,1,2,high,82,1.41,112,0.92,82,1.36,Yes,sure,hit,0.8535590171813965,1.0
