,pcode,practice,trial,block,questionType,condition,question,PTS,TargetPosition,AccessoryPosition,TNS,T1_hz,T1_amp,T2_hz,T2_amp,P_hz,P_amp,response_dicho,response_rating,response_sdt,rt,P_correct
0,d25!8lo,True,1,1,equal,ST1_low_3_a1,P = T2?,Same,1,1,low,70,1.46,112,0.99,70,1.23,No,unsure,cr,1.4763188362121582,NA
1,d25!8lo,True,2,1,equal,ST2_high_4_a2,P = T2?,Same,2,2,high,96,1.08,70,2.07,70,1.63,Yes,unsure,hit,7.287919044494629,NA
2,d25!8lo,True,3,1,equal,STb_2_a2,P = T1?,Same,0,2,None,70,1.66,70,1.34,70,1.58,Yes,unsure,hit,2.6722562313079834,NA
3,d25!8lo,True,4,1,equal,DT1_high_5_a2,P = T2?,Different,1,2,high,96,1.16,132,1.03,82,1.54,No,unsure,cr,1.5216259956359863,NA
4,d25!8lo,True,5,1,equal,ST1_high_5_a1,P = T2?,Same,1,1,high,96,1.2,132,0.88,96,1.12,No,unsure,cr,1.5329210758209229,NA
5,d25!8lo,True,6,1,equal,DT2_low_2_a1,P = T1?,Different,2,1,low,132,1.02,82,1.64,70,1.67,No,sure,cr,1.3910572528839111,NA
6,d25!8lo,True,7,1,equal,DT2_low_3_a2,P = T2?,Different,2,2,low,70,1.53,112,1.2,132,0.81,Yes,unsure,hit,1.5080130100250244,NA
7,d25!8lo,True,8,1,equal,STb_7_a2,P = T2?,Same,0,2,None,154,0.87,154,0.66,154,0.78,Yes,sure,hit,1.443274974822998,NA
8,d25!8lo,True,9,1,equal,DT2_low_3_a2,P = T1?,Different,2,2,low,70,1.65,112,1.03,132,1.03,No,unsure,cr,1.4312491416931152,NA
9,d25!8lo,True,10,1,equal,ST2_low_1_a2,P = T2?,Same,2,2,low,82,1.57,132,1.03,132,0.95,Yes,unsure,hit,1.3647668361663818,NA
10,d25!8lo,True,11,1,equal,STb_4_a1,P = T2?,Same,0,1,None,96,1.47,96,1.41,96,1.17,Yes,unsure,hit,1.258371114730835,NA
11,d25!8lo,True,12,1,equal,ST1_low_3_a2,P = T1?,Same,1,2,low,70,1.39,112,1.34,70,1.91,No,unsure,miss,2.0337750911712646,NA
12,d25!8lo,True,13,1,equal,ST2_high_4_a1,P = T1?,Same,2,1,high,96,1.29,70,1.79,70,1.58,Yes,unsure,fa,1.2534441947937012,NA
13,d25!8lo,True,14,1,equal,ST2_high_2_a2,P = T1?,Same,2,2,high,112,1.05,82,1.62,82,1.59,Yes,unsure,fa,3.743553638458252,NA
14,d25!8lo,True,15,1,equal,STb_5_a2,P = T1?,Same,0,2,None,112,1.12,112,1.15,112,1.08,Yes,unsure,hit,1.6558189392089844,NA
15,d25!8lo,True,16,1,equal,ST1_high_4_a2,P = T1?,Same,1,2,high,96,1.11,70,1.53,96,1.18,Yes,unsure,hit,1.1126430034637451,0.625
16,d25!8lo,False,1,1,equal,ST1_low_6_a2,P = T2?,Same,1,2,low,154,0.73,96,1.18,154,0.84,No,sure,cr,1.8331058025360107,NA
17,d25!8lo,False,2,1,equal,ST1_high_3_a2,P = T1?,Same,1,2,high,70,1.67,96,1.25,70,1.49,Yes,unsure,hit,2.6863150596618652,NA
18,d25!8lo,False,3,1,equal,ST1_high_1_a2,P = T1?,Same,1,2,high,82,1.29,112,1.21,82,1.39,Yes,quiteSure,hit,1.6719810962677002,NA
19,d25!8lo,False,4,1,equal,ST2_low_3_a1,P = T2?,Same,2,1,low,70,1.41,112,0.97,112,0.99,Yes,sure,hit,1.5258901119232178,NA
20,d25!8lo,False,5,1,equal,ST2_low_4_a2,P = T2?,Same,2,2,low,112,1.21,70,1.37,70,1.38,Yes,quiteSure,hit,1.5115411281585693,NA
21,d25!8lo,False,6,1,equal,ST2_low_5_a1,P = T1?,Same,2,1,low,96,1.1,154,0.75,154,0.9,No,sure,cr,1.5855770111083984,NA
22,d25!8lo,False,7,1,equal,ST1_low_5_a1,P = T1?,Same,1,1,low,96,1.16,154,0.77,96,1.38,Yes,unsure,hit,1.7528579235076904,NA
23,d25!8lo,False,8,1,equal,ST2_high_1_a1,P = T1?,Same,2,1,high,82,1.3,112,1.14,112,0.95,No,quiteSure,cr,1.7163591384887695,NA
24,d25!8lo,False,9,1,equal,ST1_low_5_a2,P = T1?,Same,1,2,low,96,1.17,154,0.83,96,1.42,Yes,unsure,hit,1.5400822162628174,NA
25,d25!8lo,False,10,1,equal,ST1_high_3_a1,P = T2?,Same,1,1,high,70,1.49,96,1.42,70,1.5,Yes,quiteSure,fa,2.580738067626953,NA
26,d25!8lo,False,11,1,equal,ST1_high_5_a1,P = T2?,Same,1,1,high,96,1.2,132,0.88,96,1.12,No,quiteSure,cr,2.4049808979034424,NA
27,d25!8lo,False,12,1,equal,ST1_high_5_a1,P = T1?,Same,1,1,high,96,1.16,132,0.9,96,1.25,No,quiteSure,miss,2.5710341930389404,NA
28,d25!8lo,False,13,1,equal,ST1_high_2_a1,P = T2?,Same,1,1,high,112,1.08,82,1.48,112,1.09,No,unsure,cr,2.8514249324798584,NA
29,d25!8lo,False,14,1,equal,ST2_low_1_a1,P = T2?,Same,2,1,low,82,1.58,132,0.93,132,0.95,Yes,sure,hit,1.5353286266326904,NA
30,d25!8lo,False,15,1,equal,ST1_low_4_a1,P = T2?,Same,1,1,low,112,1.12,70,1.75,112,0.94,Yes,quiteSure,fa,3.134162187576294,NA
31,d25!8lo,False,16,1,equal,ST1_low_5_a2,P = T2?,Same,1,2,low,96,1.11,154,0.75,96,1.21,No,unsure,cr,1.8976788520812988,NA
32,d25!8lo,False,17,1,equal,ST1_low_6_a1,P = T1?,Same,1,1,low,154,0.72,96,1.13,154,0.71,No,unsure,miss,4.873366117477417,NA
33,d25!8lo,False,18,1,equal,ST2_low_1_a1,P = T1?,Same,2,1,low,82,1.49,132,1.06,132,0.89,No,sure,cr,1.2789356708526611,NA
34,d25!8lo,False,19,1,equal,ST1_high_3_a2,P = T2?,Same,1,2,high,70,1.5,96,1.19,70,1.72,Yes,unsure,fa,0.9529359340667725,NA
35,d25!8lo,False,20,1,equal,ST1_low_2_a1,P = T2?,Same,1,1,low,132,0.93,82,1.3,132,0.93,No,sure,cr,1.4258489608764648,NA
36,d25!8lo,False,21,1,equal,ST1_high_6_a1,P = T2?,Same,1,1,high,132,0.99,96,1.15,132,0.96,No,quiteSure,cr,3.26129412651062,NA
37,d25!8lo,False,22,1,equal,ST2_low_1_a2,P = T2?,Same,2,2,low,82,1.57,132,0.95,132,1.01,Yes,quiteSure,hit,1.4062349796295166,NA
38,d25!8lo,False,23,1,equal,ST2_high_6_a1,P = T2?,Same,2,1,high,132,0.96,96,1.41,96,1.31,Yes,sure,hit,1.3021340370178223,NA
39,d25!8lo,False,24,1,equal,ST2_low_4_a1,P = T1?,Same,2,1,low,112,1.18,70,1.83,70,1.81,Yes,quiteSure,fa,0.9694790840148926,NA
40,d25!8lo,False,25,1,equal,ST2_low_5_a2,P = T2?,Same,2,2,low,96,1.34,154,0.88,154,0.9,Yes,unsure,hit,5.445960283279419,NA
41,d25!8lo,False,26,1,equal,ST1_low_5_a2,P = T2?,Same,1,2,low,96,1.17,154,0.9,96,1.35,Yes,unsure,fa,4.4810309410095215,NA
42,d25!8lo,False,27,1,equal,ST2_high_4_a2,P = T1?,Same,2,2,high,96,1.28,70,1.5,70,1.8,Yes,quiteSure,fa,3.6783628463745117,NA
43,d25!8lo,False,28,1,equal,STb_6_a2,P = T1?,Same,0,2,None,132,0.9,132,1.06,132,0.81,Yes,unsure,hit,1.7902109622955322,NA
44,d25!8lo,False,29,1,equal,ST1_low_1_a1,P = T1?,Same,1,1,low,82,1.36,132,0.92,82,1.6,No,unsure,miss,1.969386100769043,NA
45,d25!8lo,False,30,1,equal,ST2_low_5_a1,P = T1?,Same,2,1,low,96,1.33,154,0.78,154,0.83,No,quiteSure,cr,1.93300199508667,NA
46,d25!8lo,False,31,1,equal,ST1_low_5_a2,P = T2?,Same,1,2,low,96,1.28,154,0.9,96,1.06,No,sure,cr,1.493894100189209,NA
47,d25!8lo,False,32,1,equal,ST2_high_5_a1,P = T2?,Same,2,1,high,96,1.22,132,0.99,132,0.84,Yes,unsure,hit,1.3545210361480713,NA
48,d25!8lo,False,33,1,equal,ST2_low_5_a2,P = T2?,Same,2,2,low,96,1.15,154,0.85,154,0.73,Yes,quiteSure,hit,1.305204153060913,NA
49,d25!8lo,False,34,1,equal,ST1_high_3_a1,P = T1?,Same,1,1,high,70,1.45,96,1.33,70,1.5,Yes,quiteSure,hit,1.224721908569336,NA
50,d25!8lo,False,35,1,equal,STb_3_a1,P = T1?,Same,0,1,None,82,1.27,82,1.29,82,1.35,Yes,unsure,hit,2.0501179695129395,NA
51,d25!8lo,False,36,1,equal,STb_6_a2,P = T2?,Same,0,2,None,132,1.05,132,0.81,132,0.92,Yes,sure,hit,0.7248668670654297,NA
52,d25!8lo,False,37,1,equal,ST2_high_2_a2,P = T1?,Same,2,2,high,112,0.99,82,1.26,82,1.48,Yes,quiteSure,fa,1.405850887298584,NA
53,d25!8lo,False,38,1,equal,ST2_low_6_a2,P = T2?,Same,2,2,low,154,0.92,96,1.21,96,1.08,Yes,quiteSure,hit,1.365623950958252,NA
54,d25!8lo,False,39,1,equal,ST1_high_4_a1,P = T2?,Same,1,1,high,96,1.28,70,1.41,96,1.07,Yes,quiteSure,fa,3.262974977493286,NA
55,d25!8lo,False,40,1,equal,ST1_high_4_a1,P = T2?,Same,1,1,high,96,1.25,70,1.37,96,1.31,Yes,unsure,fa,5.500483989715576,NA
56,d25!8lo,False,41,1,equal,ST2_low_4_a1,P = T2?,Same,2,1,low,112,0.96,70,1.37,70,1.79,Yes,quiteSure,hit,2.516209840774536,NA
57,d25!8lo,False,42,1,equal,DT2_high_3_a2,P = T1?,Different,2,2,high,70,1.59,96,1.36,112,0.97,No,sure,cr,1.4398260116577148,NA
58,d25!8lo,False,43,1,equal,ST2_high_5_a1,P = T2?,Same,2,1,high,96,1.09,132,1.05,132,0.87,Yes,sure,hit,1.253972053527832,NA
59,d25!8lo,False,44,1,equal,ST1_low_6_a1,P = T2?,Same,1,1,low,154,0.9,96,1.36,154,0.73,No,unsure,cr,2.27409291267395,NA
60,d25!8lo,False,45,1,equal,ST1_low_1_a1,P = T1?,Same,1,1,low,82,1.52,132,0.82,82,1.63,Yes,unsure,hit,2.135598659515381,NA
61,d25!8lo,False,46,1,equal,ST2_low_1_a1,P = T1?,Same,2,1,low,82,1.53,132,0.87,132,0.96,No,quiteSure,cr,2.156688928604126,NA
62,d25!8lo,False,47,1,equal,ST1_low_2_a2,P = T2?,Same,1,2,low,132,0.95,82,1.28,132,0.86,No,sure,cr,1.458017110824585,NA
63,d25!8lo,False,48,1,equal,ST1_high_5_a1,P = T1?,Same,1,1,high,96,1.24,132,0.96,96,1.24,Yes,quiteSure,hit,1.927793025970459,NA
64,d25!8lo,False,49,1,equal,STb_3_a1,P = T2?,Same,0,1,None,82,1.61,82,1.48,82,1.56,Yes,quiteSure,hit,6.120262861251831,NA
65,d25!8lo,False,50,1,equal,ST2_low_5_a1,P = T2?,Same,2,1,low,96,1.06,154,0.76,154,0.9,No,unsure,miss,1.6594462394714355,NA
66,d25!8lo,False,51,1,equal,ST2_low_5_a1,P = T2?,Same,2,1,low,96,1.12,154,0.85,154,0.75,No,quiteSure,miss,10.840646982192993,NA
67,d25!8lo,False,52,1,equal,ST2_low_3_a1,P = T1?,Same,2,1,low,70,1.66,112,1.22,112,0.98,No,sure,cr,1.5318901538848877,NA
68,d25!8lo,False,53,1,equal,ST2_high_3_a2,P = T1?,Same,2,2,high,70,1.4,96,1.11,96,1.25,No,unsure,cr,2.005866050720215,NA
69,d25!8lo,False,54,1,equal,ST1_low_3_a2,P = T1?,Same,1,2,low,70,1.72,112,1.11,70,1.67,Yes,sure,hit,3.4710750579833984,NA
70,d25!8lo,False,55,1,equal,ST2_high_6_a1,P = T2?,Same,2,1,high,132,1.05,96,1.21,96,1.18,Yes,quiteSure,hit,1.5162880420684814,NA
71,d25!8lo,False,56,1,equal,ST2_low_5_a2,P = T1?,Same,2,2,low,96,1.21,154,0.95,154,0.84,No,sure,cr,1.5529611110687256,NA
72,d25!8lo,False,57,1,equal,ST1_high_6_a2,P = T1?,Same,1,2,high,132,0.84,96,1.23,132,1.06,Yes,quiteSure,hit,1.8471570014953613,NA
73,d25!8lo,False,58,1,equal,ST1_high_4_a2,P = T2?,Same,1,2,high,96,1.24,70,1.8,96,1.31,Yes,unsure,fa,1.1321148872375488,NA
74,d25!8lo,False,59,1,equal,ST1_low_4_a2,P = T1?,Same,1,2,low,112,1.08,70,1.8,112,1.19,Yes,sure,hit,1.3878710269927979,NA
75,d25!8lo,False,60,1,equal,ST2_high_1_a1,P = T1?,Same,2,1,high,82,1.24,112,1.1,112,1.1,Yes,unsure,fa,2.4632809162139893,NA
76,d25!8lo,False,61,1,equal,ST1_low_3_a2,P = T2?,Same,1,2,low,70,1.43,112,1.17,70,1.67,No,quiteSure,cr,2.004890203475952,NA
77,d25!8lo,False,62,1,equal,ST1_high_6_a2,P = T2?,Same,1,2,high,132,0.9,96,1.36,132,0.81,Yes,quiteSure,fa,2.075462818145752,NA
78,d25!8lo,False,63,1,equal,ST1_low_6_a2,P = T2?,Same,1,2,low,154,0.79,96,1.14,154,0.86,No,sure,cr,1.473435878753662,NA
79,d25!8lo,False,64,1,equal,ST1_low_3_a1,P = T1?,Same,1,1,low,70,1.68,112,1.17,70,1.49,Yes,sure,hit,1.0647861957550049,NA
80,d25!8lo,False,65,1,equal,ST1_high_1_a1,P = T1?,Same,1,1,high,82,1.31,112,1.02,82,1.64,Yes,unsure,hit,4.42182183265686,NA
81,d25!8lo,False,66,1,equal,ST2_low_2_a2,P = T1?,Same,2,2,low,132,0.96,82,1.64,82,1.49,Yes,quiteSure,fa,2.3364951610565186,NA
82,d25!8lo,False,67,1,equal,ST1_low_2_a1,P = T2?,Same,1,1,low,132,0.86,82,1.37,132,0.79,Yes,sure,fa,1.872549057006836,NA
83,d25!8lo,False,68,1,equal,ST2_high_2_a2,P = T1?,Same,2,2,high,112,1.05,82,1.62,82,1.59,Yes,sure,fa,1.0745460987091064,NA
84,d25!8lo,False,69,1,equal,ST1_high_1_a1,P = T1?,Same,1,1,high,82,1.46,112,1.01,82,1.22,Yes,quiteSure,hit,1.3252100944519043,NA
85,d25!8lo,False,70,1,equal,ST2_high_3_a2,P = T2?,Same,2,2,high,70,1.43,96,1.36,96,1.11,No,unsure,miss,8.799163103103638,NA
86,d25!8lo,False,71,1,equal,ST1_high_4_a2,P = T1?,Same,1,2,high,96,1.41,70,1.84,96,1.38,Yes,sure,hit,1.441922903060913,NA
87,d25!8lo,False,72,1,equal,ST2_high_1_a1,P = T1?,Same,2,1,high,82,1.35,112,1.13,112,1.11,No,quiteSure,cr,1.46812105178833,NA
88,d25!8lo,False,73,1,equal,ST2_high_2_a2,P = T2?,Same,2,2,high,112,0.99,82,1.48,82,1.23,Yes,sure,hit,1.2653419971466064,NA
89,d25!8lo,False,74,1,equal,ST1_high_4_a1,P = T2?,Same,1,1,high,96,1.35,70,1.72,96,1.1,Yes,unsure,fa,1.571274995803833,NA
90,d25!8lo,False,75,1,equal,ST1_high_2_a1,P = T1?,Same,1,1,high,112,0.96,82,1.37,112,1.2,Yes,unsure,hit,2.562650203704834,NA
91,d25!8lo,False,76,1,equal,ST2_low_6_a2,P = T2?,Same,2,2,low,154,0.71,96,1.26,96,1.09,Yes,unsure,hit,2.4307701587677,NA
92,d25!8lo,False,77,1,equal,ST1_low_3_a1,P = T2?,Same,1,1,low,70,1.73,112,0.98,70,1.66,Yes,unsure,fa,2.4361348152160645,NA
93,d25!8lo,False,78,1,equal,ST1_high_4_a2,P = T2?,Same,1,2,high,96,1.37,70,1.66,96,1.06,No,unsure,cr,1.4850749969482422,NA
94,d25!8lo,False,79,1,equal,ST1_high_1_a1,P = T2?,Same,1,1,high,82,1.6,112,0.99,82,1.49,No,unsure,cr,1.998741865158081,NA
95,d25!8lo,False,80,1,equal,ST1_high_6_a1,P = T2?,Same,1,1,high,132,0.87,96,1.13,132,0.94,No,unsure,cr,1.3843803405761719,NA
96,d25!8lo,False,81,1,equal,ST2_high_3_a1,P = T1?,Same,2,1,high,70,1.44,96,1.34,96,1.22,No,quiteSure,cr,1.3688230514526367,NA
97,d25!8lo,False,82,1,equal,ST2_low_3_a1,P = T2?,Same,2,1,low,70,1.78,112,1.04,112,1.01,Yes,quiteSure,hit,1.5297307968139648,NA
98,d25!8lo,False,83,1,equal,ST2_high_1_a1,P = T2?,Same,2,1,high,82,1.48,112,1.16,112,1.16,Yes,sure,hit,1.235318899154663,NA
99,d25!8lo,False,84,1,equal,DT1_high_1_a2,P = T2?,Different,1,2,high,82,1.36,112,1.06,70,1.71,No,quiteSure,cr,1.5617258548736572,NA
100,d25!8lo,False,85,1,equal,ST2_low_3_a2,P = T2?,Same,2,2,low,70,1.74,112,1.09,112,0.95,Yes,sure,hit,1.1426432132720947,NA
101,d25!8lo,False,86,1,equal,ST2_high_1_a2,P = T2?,Same,2,2,high,82,1.59,112,0.96,112,1.07,Yes,sure,hit,1.0296568870544434,NA
102,d25!8lo,False,87,1,equal,DT1_low_4_a1,P = T2?,Different,1,1,low,112,1.03,70,1.67,132,0.87,No,quiteSure,cr,1.6556298732757568,NA
103,d25!8lo,False,88,1,equal,ST1_low_1_a1,P = T2?,Same,1,1,low,82,1.43,132,0.9,82,1.38,No,quiteSure,cr,2.8180956840515137,NA
104,d25!8lo,False,89,1,equal,ST2_low_2_a2,P = T1?,Same,2,2,low,132,1.03,82,1.32,82,1.41,No,sure,cr,1.6935019493103027,NA
105,d25!8lo,False,90,1,equal,ST1_low_3_a1,P = T2?,Same,1,1,low,70,1.79,112,1.03,70,1.39,No,quiteSure,cr,2.1291310787200928,NA
106,d25!8lo,False,91,1,equal,ST2_high_2_a1,P = T1?,Same,2,1,high,112,0.92,82,1.3,82,1.33,No,quiteSure,cr,1.977848768234253,NA
107,d25!8lo,False,92,1,equal,ST1_high_5_a2,P = T2?,Same,1,2,high,96,1.25,132,0.98,96,1.07,Yes,unsure,fa,1.563849925994873,NA
108,d25!8lo,False,93,1,equal,ST1_low_5_a1,P = T1?,Same,1,1,low,96,1.18,154,0.71,96,1.18,Yes,sure,hit,1.4127397537231445,NA
109,d25!8lo,False,94,1,equal,ST2_high_3_a2,P = T2?,Same,2,2,high,70,1.54,96,1.11,96,1.21,No,quiteSure,miss,2.037466049194336,NA
110,d25!8lo,False,95,1,equal,STb_8_a2,P = T2?,Same,0,2,None,180,0.72,180,0.73,180,0.85,Yes,sure,hit,0.48819589614868164,NA
111,d25!8lo,False,96,1,equal,ST2_high_2_a2,P = T2?,Same,2,2,high,112,0.92,82,1.34,82,1.55,Yes,quiteSure,hit,0.5594539642333984,NA
112,d25!8lo,False,97,1,equal,ST1_high_1_a2,P = T2?,Same,1,2,high,82,1.6,112,1.05,82,1.62,No,quiteSure,cr,1.4778518676757812,NA
113,d25!8lo,False,98,1,equal,ST1_high_4_a1,P = T1?,Same,1,1,high,96,1.1,70,1.66,96,1.15,Yes,quiteSure,hit,1.4467370510101318,NA
114,d25!8lo,False,99,1,equal,ST1_low_3_a2,P = T2?,Same,1,2,low,70,1.47,112,1.03,70,1.78,No,unsure,cr,5.239109039306641,NA
115,d25!8lo,False,100,1,equal,ST2_low_4_a2,P = T1?,Same,2,2,low,112,0.97,70,1.55,70,1.79,Yes,unsure,fa,2.089517116546631,NA
116,d25!8lo,False,101,1,equal,ST1_low_5_a1,P = T2?,Same,1,1,low,96,1.31,154,0.95,96,1.27,Yes,quiteSure,fa,4.214776039123535,NA
117,d25!8lo,False,102,1,equal,ST1_low_2_a1,P = T1?,Same,1,1,low,132,1.0,82,1.38,132,0.92,Yes,sure,hit,1.0633137226104736,NA
118,d25!8lo,False,103,1,equal,ST1_high_6_a2,P = T2?,Same,1,2,high,132,0.96,96,1.34,132,0.9,No,sure,cr,1.5053954124450684,NA
119,d25!8lo,False,104,1,equal,ST2_high_6_a1,P = T2?,Same,2,1,high,132,1.06,96,1.18,96,1.31,Yes,sure,hit,1.0612249374389648,NA
120,d25!8lo,False,105,1,equal,STb_3_a2,P = T1?,Same,0,2,None,82,1.32,82,1.5,82,1.34,Yes,sure,hit,0.4893319606781006,NA
121,d25!8lo,False,106,1,equal,ST2_low_6_a2,P = T1?,Same,2,2,low,154,0.95,96,1.2,96,1.42,No,quiteSure,cr,4.2109479904174805,NA
122,d25!8lo,False,107,1,equal,ST1_low_2_a2,P = T2?,Same,1,2,low,132,0.79,82,1.39,132,1.05,Yes,quiteSure,fa,1.516606092453003,NA
123,d25!8lo,False,108,1,equal,DT2_low_6_a2,P = T1?,Different,2,2,low,154,0.95,96,1.1,82,1.39,No,sure,cr,1.5422840118408203,NA
124,d25!8lo,False,109,1,equal,DT2_low_3_a1,P = T2?,Different,2,1,low,70,1.52,112,1.19,132,0.98,Yes,unsure,hit,1.4128749370574951,NA
125,d25!8lo,False,110,1,equal,ST1_high_6_a2,P = T2?,Same,1,2,high,132,0.98,96,1.09,132,0.85,No,unsure,cr,1.6011531352996826,NA
126,d25!8lo,False,111,1,equal,DT2_high_6_a2,P = T2?,Different,2,2,high,132,1.05,96,1.22,82,1.48,No,quiteSure,miss,1.8560011386871338,NA
127,d25!8lo,False,112,1,equal,ST2_low_2_a1,P = T2?,Same,2,1,low,132,0.85,82,1.55,82,1.38,Yes,sure,hit,0.7352221012115479,NA
128,d25!8lo,False,113,1,equal,ST1_high_2_a2,P = T1?,Same,1,2,high,112,1.23,82,1.28,112,1.03,Yes,quiteSure,hit,1.155074119567871,NA
129,d25!8lo,False,114,1,equal,ST1_low_4_a2,P = T2?,Same,1,2,low,112,0.96,70,1.67,112,0.97,No,quiteSure,cr,2.0930750370025635,NA
130,d25!8lo,False,115,1,equal,ST2_low_5_a1,P = T2?,Same,2,1,low,96,1.06,154,0.87,154,0.94,Yes,sure,hit,0.9841458797454834,NA
131,d25!8lo,False,116,1,equal,ST1_low_1_a2,P = T1?,Same,1,2,low,82,1.49,132,0.88,82,1.51,No,quiteSure,miss,2.0917201042175293,NA
132,d25!8lo,False,117,1,equal,ST1_low_2_a2,P = T1?,Same,1,2,low,132,0.89,82,1.5,132,0.85,Yes,quiteSure,hit,2.072052240371704,NA
133,d25!8lo,False,118,1,equal,ST1_high_6_a1,P = T2?,Same,1,1,high,132,0.8,96,1.43,132,0.8,Yes,sure,fa,1.7320530414581299,NA
134,d25!8lo,False,119,1,equal,ST1_low_1_a1,P = T2?,Same,1,1,low,82,1.47,132,1.0,82,1.26,No,sure,cr,1.5656697750091553,NA
135,d25!8lo,False,120,1,equal,ST1_low_2_a1,P = T1?,Same,1,1,low,132,0.93,82,1.34,132,0.92,Yes,sure,hit,2.760958194732666,NA
136,d25!8lo,False,121,1,equal,ST1_low_4_a2,P = T1?,Same,1,2,low,112,0.95,70,1.38,112,0.93,Yes,quiteSure,hit,2.3455159664154053,NA
137,d25!8lo,False,122,1,equal,ST2_high_3_a1,P = T2?,Same,2,1,high,70,1.45,96,1.3,96,1.19,Yes,sure,hit,1.0430638790130615,NA
138,d25!8lo,False,123,1,equal,ST2_high_1_a2,P = T1?,Same,2,2,high,82,1.47,112,0.96,112,1.16,No,sure,cr,1.4162089824676514,NA
139,d25!8lo,False,124,1,equal,ST1_low_4_a2,P = T2?,Same,1,2,low,112,1.12,70,1.52,112,0.93,Yes,sure,fa,1.1980321407318115,NA
140,d25!8lo,False,125,1,equal,ST2_high_1_a2,P = T2?,Same,2,2,high,82,1.59,112,0.99,112,1.08,Yes,quiteSure,hit,1.3327200412750244,NA
141,d25!8lo,False,126,1,equal,ST1_high_5_a2,P = T1?,Same,1,2,high,96,1.26,132,0.96,96,1.17,Yes,quiteSure,hit,2.8755900859832764,NA
142,d25!8lo,False,127,1,equal,ST1_low_5_a1,P = T1?,Same,1,1,low,96,1.42,154,0.85,96,1.4,No,unsure,miss,5.78017783164978,NA
143,d25!8lo,False,128,1,equal,ST2_high_6_a2,P = T2?,Same,2,2,high,132,1.02,96,1.15,96,1.35,Yes,sure,hit,1.3383140563964844,NA
144,d25!8lo,False,129,1,equal,ST1_low_3_a1,P = T1?,Same,1,1,low,70,1.42,112,1.24,70,1.59,Yes,sure,hit,1.1279661655426025,NA
145,d25!8lo,False,130,1,equal,DT1_low_6_a1,P = T2?,Different,1,1,low,154,0.78,96,1.19,180,0.91,No,sure,cr,1.6954500675201416,NA
146,d25!8lo,False,131,1,equal,ST2_high_5_a2,P = T2?,Same,2,2,high,96,1.33,132,0.85,132,0.85,Yes,quiteSure,hit,2.1488308906555176,NA
147,d25!8lo,False,132,1,equal,ST1_high_3_a2,P = T1?,Same,1,2,high,70,1.46,96,1.28,70,1.5,Yes,unsure,hit,1.9391701221466064,NA
148,d25!8lo,False,133,1,equal,DT1_low_6_a2,P = T2?,Different,1,2,low,154,0.84,96,1.06,180,0.81,No,sure,cr,2.015007972717285,NA
149,d25!8lo,False,134,1,equal,ST1_low_3_a2,P = T2?,Same,1,2,low,70,1.58,112,0.98,70,1.75,No,sure,cr,1.7236700057983398,NA
150,d25!8lo,False,135,1,equal,ST1_high_2_a1,P = T2?,Same,1,1,high,112,1.11,82,1.61,112,0.93,No,unsure,cr,2.8144116401672363,NA
151,d25!8lo,False,136,1,equal,ST2_low_2_a1,P = T2?,Same,2,1,low,132,0.83,82,1.54,82,1.43,Yes,sure,hit,1.2450029850006104,NA
152,d25!8lo,False,137,1,equal,ST2_low_1_a2,P = T1?,Same,2,2,low,82,1.4,132,0.91,132,0.98,No,sure,cr,1.6469080448150635,NA
153,d25!8lo,False,138,1,equal,ST2_high_2_a1,P = T2?,Same,2,1,high,112,1.09,82,1.22,82,1.45,Yes,quiteSure,hit,1.2610697746276855,NA
154,d25!8lo,False,139,1,equal,ST2_low_3_a2,P = T1?,Same,2,2,low,70,1.42,112,1.14,112,1.14,Yes,sure,fa,1.3667309284210205,NA
155,d25!8lo,False,140,1,equal,ST1_high_4_a1,P = T1?,Same,1,1,high,96,1.19,70,1.61,96,1.35,Yes,quiteSure,hit,2.5335729122161865,NA
156,d25!8lo,False,141,1,equal,ST1_high_5_a2,P = T2?,Same,1,2,high,96,1.2,132,0.83,96,1.3,Yes,quiteSure,fa,2.2149579524993896,NA
157,d25!8lo,False,142,1,equal,ST1_low_2_a2,P = T1?,Same,1,2,low,132,0.99,82,1.43,132,0.99,No,quiteSure,miss,2.7292299270629883,NA
158,d25!8lo,False,143,1,equal,ST2_high_5_a2,P = T2?,Same,2,2,high,96,1.24,132,1.04,132,0.95,Yes,sure,hit,0.9669661521911621,NA
159,d25!8lo,False,144,1,equal,ST1_low_6_a2,P = T1?,Same,1,2,low,154,0.79,96,1.2,154,0.91,Yes,sure,hit,1.0451061725616455,NA
160,d25!8lo,False,145,1,equal,ST2_low_6_a1,P = T1?,Same,2,1,low,154,0.84,96,1.41,96,1.37,Yes,sure,fa,0.4437680244445801,NA
161,d25!8lo,False,146,1,equal,ST2_low_1_a1,P = T2?,Same,2,1,low,82,1.3,132,1.05,132,0.81,Yes,unsure,hit,1.248121976852417,NA
162,d25!8lo,False,147,1,equal,ST2_low_3_a2,P = T1?,Same,2,2,low,70,1.66,112,1.19,112,1.03,Yes,sure,fa,0.517780065536499,NA
163,d25!8lo,False,148,1,equal,ST1_low_6_a1,P = T2?,Same,1,1,low,154,0.73,96,1.1,154,0.74,No,quiteSure,cr,1.5181591510772705,NA
164,d25!8lo,False,149,1,equal,ST2_high_4_a1,P = T1?,Same,2,1,high,96,1.29,70,1.79,70,1.58,Yes,sure,fa,1.6319580078125,NA
165,d25!8lo,False,150,1,equal,ST1_high_3_a1,P = T2?,Same,1,1,high,70,1.69,96,1.24,70,1.73,Yes,unsure,fa,1.4976270198822021,NA
166,d25!8lo,False,151,1,equal,ST2_high_6_a2,P = T1?,Same,2,2,high,132,0.9,96,1.29,96,1.34,Yes,quiteSure,fa,2.707190990447998,NA
167,d25!8lo,False,152,1,equal,ST2_high_6_a2,P = T2?,Same,2,2,high,132,0.82,96,1.33,96,1.3,Yes,unsure,hit,6.016402006149292,NA
168,d25!8lo,False,153,1,equal,ST1_low_1_a2,P = T2?,Same,1,2,low,82,1.29,132,0.92,82,1.55,Yes,quiteSure,fa,2.383249044418335,NA
169,d25!8lo,False,154,1,equal,ST1_high_5_a2,P = T2?,Same,1,2,high,96,1.13,132,0.94,96,1.26,Yes,quiteSure,fa,1.840951919555664,NA
170,d25!8lo,False,155,1,equal,ST2_low_2_a1,P = T2?,Same,2,1,low,132,0.91,82,1.39,82,1.33,No,unsure,miss,3.499690055847168,NA
171,d25!8lo,False,156,1,equal,ST1_high_5_a1,P = T2?,Same,1,1,high,96,1.06,132,0.97,96,1.26,No,sure,cr,2.018904209136963,NA
172,d25!8lo,False,157,1,equal,ST1_low_4_a1,P = T1?,Same,1,1,low,112,0.96,70,1.63,112,1.03,No,unsure,miss,3.351701021194458,NA
173,d25!8lo,False,158,1,equal,ST2_low_1_a1,P = T2?,Same,2,1,low,82,1.49,132,0.91,132,1.0,Yes,quiteSure,hit,1.4407460689544678,NA
174,d25!8lo,False,159,1,equal,ST2_low_2_a2,P = T1?,Same,2,2,low,132,0.93,82,1.54,82,1.27,No,sure,cr,1.3501880168914795,NA
175,d25!8lo,False,160,1,equal,ST2_low_1_a2,P = T2?,Same,2,2,low,82,1.35,132,0.88,132,1.02,Yes,sure,hit,3.362642288208008,NA
176,d25!8lo,False,161,1,equal,ST2_low_1_a2,P = T2?,Same,2,2,low,82,1.57,132,1.03,132,0.95,Yes,sure,hit,1.420881986618042,NA
177,d25!8lo,False,162,1,equal,ST1_low_5_a1,P = T2?,Same,1,1,low,96,1.26,154,0.75,96,1.42,Yes,quiteSure,fa,2.761974811553955,NA
178,d25!8lo,False,163,1,equal,DT1_low_3_a2,P = T1?,Different,1,2,low,70,1.76,112,0.94,60,1.85,Yes,unsure,hit,4.023155927658081,NA
179,d25!8lo,False,164,1,equal,ST2_high_4_a2,P = T2?,Same,2,2,high,96,1.43,70,1.45,70,1.68,Yes,sure,hit,1.0267350673675537,NA
180,d25!8lo,False,165,1,equal,ST2_high_5_a2,P = T1?,Same,2,2,high,96,1.09,132,0.97,132,0.85,No,sure,cr,1.286545753479004,NA
181,d25!8lo,False,166,1,equal,ST1_high_2_a2,P = T1?,Same,1,2,high,112,0.97,82,1.33,112,1.12,No,quiteSure,miss,2.9002950191497803,NA
182,d25!8lo,False,167,1,equal,ST2_high_4_a1,P = T2?,Same,2,1,high,96,1.06,70,1.71,70,1.48,Yes,quiteSure,hit,2.136876106262207,NA
183,d25!8lo,False,168,1,equal,ST1_low_4_a2,P = T2?,Same,1,2,low,112,1.11,70,1.6,112,1.13,Yes,quiteSure,fa,1.3534388542175293,NA
184,d25!8lo,False,169,1,equal,ST2_high_6_a1,P = T1?,Same,2,1,high,132,0.84,96,1.1,96,1.28,No,quiteSure,cr,1.7620208263397217,NA
185,d25!8lo,False,170,1,equal,ST2_high_4_a1,P = T2?,Same,2,1,high,96,1.29,70,1.55,70,1.77,Yes,quiteSure,hit,4.253511905670166,NA
186,d25!8lo,False,171,1,equal,ST1_high_3_a1,P = T2?,Same,1,1,high,70,1.76,96,1.08,70,1.64,No,unsure,cr,2.7770307064056396,NA
187,d25!8lo,False,172,1,equal,ST2_high_5_a1,P = T1?,Same,2,1,high,96,1.13,132,0.98,132,0.98,No,sure,cr,1.5936830043792725,NA
188,d25!8lo,False,173,1,equal,ST2_high_6_a1,P = T1?,Same,2,1,high,132,0.8,96,1.11,96,1.26,Yes,unsure,fa,1.5674967765808105,NA
189,d25!8lo,False,174,1,equal,STb_1_a1,P = T2?,Same,0,1,None,60,1.89,60,1.95,60,1.91,Yes,unsure,hit,1.042133092880249,NA
190,d25!8lo,False,175,1,equal,ST1_high_4_a2,P = T1?,Same,1,2,high,96,1.1,70,1.41,96,1.18,Yes,quiteSure,hit,1.8205809593200684,NA
191,d25!8lo,False,176,1,equal,ST2_low_3_a2,P = T2?,Same,2,2,low,70,1.37,112,0.92,112,1.1,No,sure,miss,1.7691190242767334,NA
192,d25!8lo,False,177,1,equal,STb_2_a1,P = T1?,Same,0,1,None,70,1.59,70,1.5,70,1.39,Yes,unsure,hit,2.842758893966675,NA
193,d25!8lo,False,178,1,equal,ST2_high_4_a1,P = T1?,Same,2,1,high,96,1.13,70,1.78,70,1.42,Yes,quiteSure,fa,1.7119719982147217,NA
194,d25!8lo,False,179,1,equal,ST2_high_2_a1,P = T1?,Same,2,1,high,112,1.13,82,1.37,82,1.31,Yes,quiteSure,fa,3.7748889923095703,NA
195,d25!8lo,False,180,1,equal,ST2_high_2_a1,P = T2?,Same,2,1,high,112,1.02,82,1.49,82,1.54,Yes,quiteSure,hit,7.3952319622039795,NA
196,d25!8lo,False,181,1,equal,ST2_high_3_a1,P = T2?,Same,2,1,high,70,1.71,96,1.31,96,1.42,Yes,quiteSure,hit,1.8713669776916504,NA
197,d25!8lo,False,182,1,equal,ST2_low_1_a2,P = T1?,Same,2,2,low,82,1.26,132,0.99,132,1.0,No,sure,cr,1.5725362300872803,NA
198,d25!8lo,False,183,1,equal,ST2_low_6_a1,P = T2?,Same,2,1,low,154,0.76,96,1.38,96,1.14,Yes,unsure,hit,5.126314878463745,NA
199,d25!8lo,False,184,1,equal,ST1_high_2_a1,P = T1?,Same,1,1,high,112,1.06,82,1.21,112,1.04,No,quiteSure,miss,1.3699700832366943,NA
200,d25!8lo,False,185,1,equal,ST1_low_6_a2,P = T1?,Same,1,2,low,154,0.83,96,1.4,154,0.88,Yes,sure,hit,1.3611819744110107,NA
201,d25!8lo,False,186,1,equal,ST1_high_6_a2,P = T1?,Same,1,2,high,132,0.98,96,1.2,132,0.97,Yes,unsure,hit,4.127551078796387,NA
202,d25!8lo,False,187,1,equal,ST1_low_4_a2,P = T1?,Same,1,2,low,112,1.08,70,1.61,112,0.94,No,quiteSure,miss,3.8609180450439453,NA
203,d25!8lo,False,188,1,equal,ST1_high_5_a2,P = T1?,Same,1,2,high,96,1.15,132,1.0,96,1.08,Yes,unsure,hit,2.717238187789917,NA
204,d25!8lo,False,189,1,equal,ST1_low_3_a2,P = T1?,Same,1,2,low,70,1.39,112,1.34,70,1.91,No,quiteSure,miss,6.613482713699341,NA
205,d25!8lo,False,190,1,equal,ST2_low_1_a1,P = T1?,Same,2,1,low,82,1.29,132,0.95,132,0.92,No,sure,cr,1.4426817893981934,NA
206,d25!8lo,False,191,1,equal,ST1_low_6_a1,P = T2?,Same,1,1,low,154,0.87,96,1.21,154,0.9,No,sure,cr,1.3042311668395996,NA
207,d25!8lo,False,192,1,equal,ST2_high_5_a1,P = T1?,Same,2,1,high,96,1.32,132,1.0,132,0.96,Yes,unsure,fa,1.6263399124145508,NA
208,d25!8lo,False,193,1,equal,ST2_high_3_a2,P = T1?,Same,2,2,high,70,1.62,96,1.26,96,1.35,Yes,unsure,fa,1.818253993988037,NA
209,d25!8lo,False,194,1,equal,DT2_low_5_a1,P = T1?,Different,2,1,low,96,1.33,154,0.73,180,0.95,No,sure,cr,2.140582799911499,NA
210,d25!8lo,False,195,1,equal,ST1_high_6_a1,P = T1?,Same,1,1,high,132,1.0,96,1.36,132,0.84,No,sure,miss,2.3696229457855225,NA
211,d25!8lo,False,196,1,equal,ST2_high_1_a1,P = T2?,Same,2,1,high,82,1.6,112,1.17,112,0.94,No,sure,miss,1.3579838275909424,NA
212,d25!8lo,False,197,1,equal,ST1_low_1_a2,P = T1?,Same,1,2,low,82,1.55,132,0.8,82,1.62,Yes,unsure,hit,1.9692449569702148,NA
213,d25!8lo,False,198,1,equal,ST2_high_1_a2,P = T1?,Same,2,2,high,82,1.6,112,1.19,112,1.13,Yes,quiteSure,fa,1.482985019683838,NA
214,d25!8lo,False,199,1,equal,ST2_low_4_a2,P = T2?,Same,2,2,low,112,1.18,70,1.59,70,1.7,Yes,quiteSure,hit,2.063171148300171,NA
215,d25!8lo,False,200,1,equal,ST2_high_1_a1,P = T2?,Same,2,1,high,82,1.35,112,1.21,112,1.23,No,unsure,miss,2.837883949279785,NA
216,d25!8lo,False,201,1,equal,ST2_high_3_a1,P = T1?,Same,2,1,high,70,1.77,96,1.37,96,1.16,Yes,sure,fa,1.1823019981384277,NA
217,d25!8lo,False,202,1,equal,ST1_high_4_a2,P = T2?,Same,1,2,high,96,1.19,70,1.82,96,1.37,No,unsure,cr,1.518141746520996,NA
218,d25!8lo,False,203,1,equal,ST1_low_1_a2,P = T2?,Same,1,2,low,82,1.57,132,0.89,82,1.3,No,sure,cr,1.2796659469604492,NA
219,d25!8lo,False,204,1,equal,ST1_low_2_a2,P = T2?,Same,1,2,low,132,0.91,82,1.55,132,0.92,Yes,quiteSure,fa,1.2058920860290527,NA
220,d25!8lo,False,205,1,equal,DT2_low_2_a2,P = T2?,Different,2,2,low,132,0.81,82,1.47,70,1.84,No,quiteSure,miss,1.3475229740142822,NA
221,d25!8lo,False,206,1,equal,ST2_low_4_a1,P = T2?,Same,2,1,low,112,1.18,70,1.74,70,1.46,Yes,sure,hit,1.01786208152771,NA
222,d25!8lo,False,207,1,equal,ST2_low_6_a2,P = T1?,Same,2,2,low,154,0.94,96,1.39,96,1.16,No,sure,cr,1.3819968700408936,NA
223,d25!8lo,False,208,1,equal,ST1_low_1_a1,P = T2?,Same,1,1,low,82,1.27,132,0.94,82,1.44,No,sure,cr,1.2296550273895264,NA
224,d25!8lo,False,209,1,equal,ST2_high_5_a2,P = T1?,Same,2,2,high,96,1.17,132,0.83,132,1.01,No,quiteSure,cr,1.4562580585479736,NA
225,d25!8lo,False,210,1,equal,ST1_high_3_a1,P = T1?,Same,1,1,high,70,1.55,96,1.11,70,1.55,Yes,quiteSure,hit,1.86710786819458,NA
226,d25!8lo,False,211,1,equal,ST2_high_5_a2,P = T2?,Same,2,2,high,96,1.37,132,0.81,132,1.0,Yes,sure,hit,1.383612871170044,NA
227,d25!8lo,False,212,1,equal,ST1_low_2_a2,P = T1?,Same,1,2,low,132,1.03,82,1.32,132,1.05,Yes,quiteSure,hit,2.161018133163452,NA
228,d25!8lo,False,213,1,equal,ST2_high_3_a2,P = T2?,Same,2,2,high,70,1.62,96,1.18,96,1.21,Yes,quiteSure,hit,1.132282018661499,NA
229,d25!8lo,False,214,1,equal,ST2_high_4_a1,P = T1?,Same,2,1,high,96,1.25,70,1.85,70,1.76,No,unsure,cr,1.49898099899292,NA
230,d25!8lo,False,215,1,equal,ST2_low_2_a1,P = T1?,Same,2,1,low,132,0.9,82,1.44,82,1.44,No,unsure,cr,1.3024487495422363,NA
231,d25!8lo,False,216,1,equal,ST2_low_3_a1,P = T1?,Same,2,1,low,70,1.71,112,1.1,112,1.2,Yes,unsure,fa,1.3617169857025146,NA
232,d25!8lo,False,217,1,equal,ST2_high_5_a1,P = T1?,Same,2,1,high,96,1.4,132,0.96,132,0.97,No,sure,cr,1.3695628643035889,NA
233,d25!8lo,False,218,1,equal,ST2_low_4_a1,P = T1?,Same,2,1,low,112,1.12,70,1.76,70,1.38,Yes,quiteSure,fa,1.166599988937378,NA
234,d25!8lo,False,219,1,equal,ST2_low_5_a1,P = T1?,Same,2,1,low,96,1.27,154,0.71,154,0.88,No,quiteSure,cr,2.0464870929718018,NA
235,d25!8lo,False,220,1,equal,ST2_low_5_a2,P = T1?,Same,2,2,low,96,1.31,154,0.79,154,0.89,No,sure,cr,1.234004020690918,NA
236,d25!8lo,False,221,1,equal,ST2_low_2_a2,P = T2?,Same,2,2,low,132,0.97,82,1.27,82,1.62,Yes,unsure,hit,1.287078857421875,NA
237,d25!8lo,False,222,1,equal,ST1_high_1_a2,P = T1?,Same,1,2,high,82,1.38,112,1.2,82,1.37,Yes,unsure,hit,1.7462210655212402,NA
238,d25!8lo,False,223,1,equal,ST1_low_4_a1,P = T1?,Same,1,1,low,112,1.12,70,1.46,112,0.99,Yes,unsure,hit,2.208653688430786,NA
239,d25!8lo,False,224,1,equal,ST2_high_5_a2,P = T1?,Same,2,2,high,96,1.12,132,1.03,132,0.79,No,sure,cr,1.2408397197723389,NA
240,d25!8lo,False,225,1,equal,ST1_low_6_a2,P = T1?,Same,1,2,low,154,0.94,96,1.16,154,0.87,No,quiteSure,miss,9.6863272190094,NA
241,d25!8lo,False,226,1,equal,ST1_high_1_a1,P = T2?,Same,1,1,high,82,1.59,112,1.23,82,1.58,Yes,quiteSure,fa,1.5719549655914307,NA
242,d25!8lo,False,227,1,equal,ST2_low_6_a1,P = T2?,Same,2,1,low,154,0.93,96,1.22,96,1.35,Yes,quiteSure,hit,2.892401933670044,NA
243,d25!8lo,False,228,1,equal,DT1_high_1_a1,P = T1?,Different,1,1,high,82,1.46,112,0.99,70,1.41,No,quiteSure,miss,1.4987869262695312,NA
244,d25!8lo,False,229,1,equal,ST1_high_2_a2,P = T2?,Same,1,2,high,112,1.02,82,1.24,112,1.03,Yes,quiteSure,fa,0.9384481906890869,NA
245,d25!8lo,False,230,1,equal,ST1_low_3_a1,P = T2?,Same,1,1,low,70,1.46,112,0.99,70,1.23,Yes,quiteSure,fa,1.0802040100097656,NA
246,d25!8lo,False,231,1,equal,ST2_high_4_a2,P = T2?,Same,2,2,high,96,1.21,70,1.79,70,1.67,No,quiteSure,miss,1.6429188251495361,NA
247,d25!8lo,False,232,1,equal,ST1_high_2_a2,P = T2?,Same,1,2,high,112,1.08,82,1.51,112,1.06,No,quiteSure,cr,2.13335919380188,NA
248,d25!8lo,False,233,1,equal,ST2_high_6_a2,P = T2?,Same,2,2,high,132,1.03,96,1.2,96,1.1,Yes,quiteSure,hit,1.2811241149902344,NA
249,d25!8lo,False,234,1,equal,ST1_high_5_a1,P = T2?,Same,1,1,high,96,1.33,132,0.82,96,1.26,Yes,unsure,fa,1.0664451122283936,NA
250,d25!8lo,False,235,1,equal,STb_8_a1,P = T2?,Same,0,1,None,180,0.85,180,0.94,180,0.75,Yes,sure,hit,0.9555919170379639,NA
251,d25!8lo,False,236,1,equal,ST1_low_5_a2,P = T1?,Same,1,2,low,96,1.29,154,0.8,96,1.32,Yes,unsure,hit,0.7135038375854492,NA
252,d25!8lo,False,237,1,equal,ST2_low_2_a1,P = T1?,Same,2,1,low,132,1.03,82,1.27,82,1.35,No,quiteSure,cr,0.9236562252044678,NA
253,d25!8lo,False,238,1,equal,ST1_high_4_a1,P = T1?,Same,1,1,high,96,1.21,70,1.58,96,1.29,Yes,unsure,hit,0.37167811393737793,NA
254,d25!8lo,False,239,1,equal,ST2_high_3_a1,P = T2?,Same,2,1,high,70,1.62,96,1.38,96,1.14,No,quiteSure,miss,0.9802138805389404,NA
255,d25!8lo,False,240,1,equal,DT1_high_3_a1,P = T1?,Different,1,1,high,70,1.78,96,1.43,60,1.51,Yes,sure,hit,1.0075089931488037,NA
256,d25!8lo,False,241,1,equal,ST1_high_6_a2,P = T1?,Same,1,2,high,132,1.06,96,1.42,132,1.02,Yes,quiteSure,hit,0.8600168228149414,NA
257,d25!8lo,False,242,1,equal,ST2_low_6_a2,P = T2?,Same,2,2,low,154,0.89,96,1.3,96,1.28,Yes,sure,hit,1.4391200542449951,NA
258,d25!8lo,False,243,1,equal,ST1_high_5_a1,P = T1?,Same,1,1,high,96,1.1,132,0.94,96,1.08,No,unsure,miss,1.8424110412597656,NA
259,d25!8lo,False,244,1,equal,ST1_high_1_a2,P = T1?,Same,1,2,high,82,1.6,112,1.23,82,1.46,Yes,unsure,hit,1.5741209983825684,NA
260,d25!8lo,False,245,1,equal,ST1_high_3_a2,P = T1?,Same,1,2,high,70,1.61,96,1.24,70,1.81,Yes,unsure,hit,1.5210399627685547,NA
261,d25!8lo,False,246,1,equal,STb_4_a1,P = T2?,Same,0,1,None,96,1.47,96,1.41,96,1.17,Yes,sure,hit,1.1593220233917236,NA
262,d25!8lo,False,247,1,equal,ST1_high_2_a2,P = T1?,Same,1,2,high,112,1.06,82,1.23,112,0.98,No,sure,miss,1.3961570262908936,NA
263,d25!8lo,False,248,1,equal,ST1_high_1_a2,P = T2?,Same,1,2,high,82,1.28,112,1.1,82,1.37,No,quiteSure,cr,1.4943208694458008,NA
264,d25!8lo,False,249,1,equal,ST1_low_5_a1,P = T2?,Same,1,1,low,96,1.26,154,0.75,96,1.38,No,unsure,cr,1.9298787117004395,NA
265,d25!8lo,False,250,1,equal,ST2_high_3_a1,P = T1?,Same,2,1,high,70,1.72,96,1.28,96,1.19,Yes,quiteSure,fa,0.3646879196166992,NA
266,d25!8lo,False,251,1,equal,ST1_low_2_a1,P = T2?,Same,1,1,low,132,0.8,82,1.61,132,1.03,No,sure,cr,1.3583040237426758,NA
267,d25!8lo,False,252,1,equal,ST2_low_5_a2,P = T1?,Same,2,2,low,96,1.06,154,0.82,154,0.94,No,sure,cr,1.310452938079834,NA
268,d25!8lo,False,253,1,equal,ST2_low_4_a1,P = T2?,Same,2,1,low,112,1.18,70,1.8,70,1.47,Yes,quiteSure,hit,0.6175529956817627,NA
269,d25!8lo,False,254,1,equal,ST1_high_4_a2,P = T1?,Same,1,2,high,96,1.11,70,1.53,96,1.18,Yes,quiteSure,hit,0.6286249160766602,NA
270,d25!8lo,False,255,1,equal,ST1_high_5_a2,P = T1?,Same,1,2,high,96,1.26,132,0.97,96,1.06,Yes,unsure,hit,1.8925509452819824,NA
271,d25!8lo,False,256,1,equal,ST2_high_3_a2,P = T1?,Same,2,2,high,70,1.68,96,1.28,96,1.28,Yes,quiteSure,fa,1.3288609981536865,NA
272,d25!8lo,False,257,1,equal,ST1_low_6_a2,P = T2?,Same,1,2,low,154,0.82,96,1.08,154,0.71,No,sure,cr,1.8694210052490234,NA
273,d25!8lo,False,258,1,equal,ST2_high_1_a2,P = T1?,Same,2,2,high,82,1.22,112,1.06,112,1.04,No,sure,cr,1.5096189975738525,NA
274,d25!8lo,False,259,1,equal,ST1_low_5_a2,P = T1?,Same,1,2,low,96,1.24,154,0.95,96,1.17,Yes,quiteSure,hit,1.5926740169525146,NA
275,d25!8lo,False,260,1,equal,ST2_low_1_a2,P = T1?,Same,2,2,low,82,1.4,132,1.0,132,1.03,No,sure,cr,1.111011028289795,NA
276,d25!8lo,False,261,1,equal,ST2_low_6_a1,P = T1?,Same,2,1,low,154,0.74,96,1.16,96,1.24,No,quiteSure,cr,1.30892014503479,NA
277,d25!8lo,False,262,1,equal,ST1_low_6_a1,P = T1?,Same,1,1,low,154,0.89,96,1.38,154,0.95,No,quiteSure,miss,1.365469217300415,NA
278,d25!8lo,False,263,1,equal,ST1_low_2_a1,P = T1?,Same,1,1,low,132,0.91,82,1.32,132,0.96,No,sure,miss,2.3804638385772705,NA
279,d25!8lo,False,264,1,equal,ST1_low_3_a2,P = T1?,Same,1,2,low,70,1.52,112,1.08,70,1.72,Yes,unsure,hit,1.842561960220337,NA
280,d25!8lo,False,265,1,equal,ST1_high_3_a2,P = T2?,Same,1,2,high,70,1.83,96,1.36,70,1.78,No,quiteSure,cr,2.0789060592651367,NA
281,d25!8lo,False,266,1,equal,ST1_high_1_a1,P = T1?,Same,1,1,high,82,1.55,112,0.98,82,1.34,Yes,sure,hit,1.2284789085388184,NA
282,d25!8lo,False,267,1,equal,STb_7_a2,P = T1?,Same,0,2,None,154,0.74,154,0.75,154,0.74,No,sure,miss,1.377676010131836,NA
283,d25!8lo,False,268,1,equal,ST2_low_6_a2,P = T1?,Same,2,2,low,154,0.75,96,1.11,96,1.36,No,sure,cr,1.289773941040039,NA
284,d25!8lo,False,269,1,equal,ST2_high_4_a2,P = T2?,Same,2,2,high,96,1.08,70,2.07,70,1.63,Yes,unsure,hit,0.8518199920654297,NA
285,d25!8lo,False,270,1,equal,ST2_high_6_a1,P = T1?,Same,2,1,high,132,1.03,96,1.16,96,1.34,Yes,sure,fa,0.9997477531433105,NA
286,d25!8lo,False,271,1,equal,ST2_low_6_a1,P = T1?,Same,2,1,low,154,0.87,96,1.32,96,1.27,Yes,unsure,fa,1.056150197982788,NA
287,d25!8lo,False,272,1,equal,ST2_high_5_a1,P = T2?,Same,2,1,high,96,1.28,132,1.04,132,0.89,No,unsure,miss,1.8106398582458496,NA
288,d25!8lo,False,273,1,equal,ST1_low_1_a2,P = T2?,Same,1,2,low,82,1.62,132,1.06,82,1.44,Yes,quiteSure,fa,1.927886962890625,NA
289,d25!8lo,False,274,1,equal,ST2_high_4_a1,P = T2?,Same,2,1,high,96,1.4,70,1.59,70,1.55,Yes,quiteSure,hit,2.734032154083252,NA
290,d25!8lo,False,275,1,equal,ST1_high_3_a2,P = T2?,Same,1,2,high,70,1.65,96,1.11,70,1.8,Yes,sure,fa,0.5176548957824707,NA
291,d25!8lo,False,276,1,equal,ST1_high_6_a1,P = T1?,Same,1,1,high,132,0.8,96,1.31,132,0.99,No,quiteSure,miss,1.5692689418792725,NA
292,d25!8lo,False,277,1,equal,ST2_low_3_a2,P = T1?,Same,2,2,low,70,1.74,112,1.17,112,1.18,No,quiteSure,cr,1.9072849750518799,NA
293,d25!8lo,False,278,1,equal,ST1_high_6_a1,P = T1?,Same,1,1,high,132,0.98,96,1.24,132,0.85,Yes,unsure,hit,0.6901876926422119,NA
294,d25!8lo,False,279,1,equal,ST1_low_6_a1,P = T1?,Same,1,1,low,154,0.73,96,1.09,154,0.76,Yes,sure,hit,1.0696468353271484,NA
295,d25!8lo,False,280,1,equal,ST2_low_4_a2,P = T1?,Same,2,2,low,112,1.11,70,1.47,70,1.38,No,sure,cr,1.358436107635498,NA
296,d25!8lo,False,281,1,equal,STb_4_a2,P = T2?,Same,0,2,None,96,1.08,96,1.28,96,1.17,Yes,sure,hit,1.8740558624267578,NA
297,d25!8lo,False,282,1,equal,ST2_high_6_a2,P = T1?,Same,2,2,high,132,0.8,96,1.25,96,1.34,No,quiteSure,cr,1.8348119258880615,NA
298,d25!8lo,False,283,1,equal,ST1_high_1_a1,P = T2?,Same,1,1,high,82,1.3,112,1.16,82,1.37,Yes,quiteSure,fa,1.0479681491851807,NA
299,d25!8lo,False,284,1,equal,ST2_high_4_a2,P = T1?,Same,2,2,high,96,1.28,70,1.84,70,1.64,No,quiteSure,cr,1.9341707229614258,NA
300,d25!8lo,False,285,1,equal,ST1_low_1_a1,P = T1?,Same,1,1,low,82,1.51,132,0.86,82,1.58,Yes,sure,hit,1.163780689239502,NA
301,d25!8lo,False,286,1,equal,ST2_high_6_a2,P = T1?,Same,2,2,high,132,0.96,96,1.3,96,1.39,No,unsure,cr,1.785762071609497,NA
302,d25!8lo,False,287,1,equal,ST1_low_4_a1,P = T1?,Same,1,1,low,112,0.96,70,1.71,112,0.96,Yes,sure,hit,0.4810011386871338,NA
303,d25!8lo,False,288,1,equal,ST2_low_2_a2,P = T2?,Same,2,2,low,132,0.87,82,1.43,82,1.3,No,quiteSure,miss,2.14089298248291,NA
304,d25!8lo,False,289,1,equal,ST1_high_2_a1,P = T2?,Same,1,1,high,112,1.05,82,1.56,112,0.94,No,quiteSure,cr,1.7146718502044678,NA
305,d25!8lo,False,290,1,equal,ST2_low_3_a1,P = T1?,Same,2,1,low,70,1.41,112,1.09,112,0.97,Yes,sure,fa,0.23857593536376953,NA
306,d25!8lo,False,291,1,equal,DT1_low_3_a1,P = T1?,Different,1,1,low,70,1.39,112,0.95,60,1.62,Yes,sure,hit,1.0531580448150635,NA
307,d25!8lo,False,292,1,equal,ST1_high_2_a2,P = T2?,Same,1,2,high,112,1.02,82,1.33,112,1.21,No,sure,cr,1.422053337097168,NA
308,d25!8lo,False,293,1,equal,STb_2_a2,P = T1?,Same,0,2,None,70,1.66,70,1.34,70,1.58,No,quiteSure,miss,2.5755350589752197,NA
309,d25!8lo,False,294,1,equal,ST2_low_4_a2,P = T1?,Same,2,2,low,112,1.02,70,1.56,70,1.7,Yes,quiteSure,fa,5.5440990924835205,NA
310,d25!8lo,False,295,1,equal,DT2_low_4_a2,P = T2?,Different,2,2,low,112,1.06,70,1.63,60,1.99,Yes,sure,hit,1.0110888481140137,NA
311,d25!8lo,False,296,1,equal,ST1_low_3_a1,P = T1?,Same,1,1,low,70,1.54,112,1.08,70,1.46,Yes,sure,hit,1.1048011779785156,NA
312,d25!8lo,False,297,1,equal,ST2_low_4_a1,P = T1?,Same,2,1,low,112,1.14,70,1.84,70,1.78,No,sure,cr,1.2533507347106934,NA
313,d25!8lo,False,298,1,equal,ST2_low_4_a2,P = T2?,Same,2,2,low,112,0.97,70,1.43,70,1.41,No,quiteSure,miss,1.8478538990020752,NA
314,d25!8lo,False,299,1,equal,STb_7_a2,P = T2?,Same,0,2,None,154,0.87,154,0.66,154,0.78,Yes,sure,hit,0.37847089767456055,NA
315,d25!8lo,False,300,1,equal,ST2_high_4_a2,P = T1?,Same,2,2,high,96,1.38,70,1.5,70,1.73,No,sure,cr,1.2260010242462158,NA
316,d25!8lo,False,301,1,equal,ST2_high_2_a2,P = T2?,Same,2,2,high,112,1.22,82,1.24,82,1.39,Yes,quiteSure,hit,2.6221518516540527,NA
317,d25!8lo,False,302,1,equal,ST2_low_3_a2,P = T2?,Same,2,2,low,70,1.41,112,1.2,112,1.08,Yes,sure,hit,0.6493732929229736,NA
318,d25!8lo,False,303,1,equal,ST1_high_3_a1,P = T1?,Same,1,1,high,70,1.61,96,1.11,70,1.41,No,quiteSure,miss,2.3004517555236816,NA
319,d25!8lo,False,304,1,equal,ST1_high_2_a1,P = T1?,Same,1,1,high,112,0.92,82,1.3,112,1.06,Yes,sure,hit,1.289397954940796,NA
320,d25!8lo,False,305,1,equal,ST2_low_2_a1,P = T1?,Same,2,1,low,132,1.0,82,1.41,82,1.22,No,quiteSure,cr,2.4668569564819336,NA
321,d25!8lo,False,306,1,equal,ST2_low_6_a1,P = T2?,Same,2,1,low,154,0.82,96,1.3,96,1.09,Yes,quiteSure,hit,1.8649442195892334,NA
322,d25!8lo,False,307,1,equal,DT1_low_2_a1,P = T1?,Different,1,1,low,132,0.79,82,1.39,154,0.81,Yes,unsure,hit,1.3054327964782715,NA
323,d25!8lo,False,308,1,equal,ST1_high_1_a2,P = T2?,Same,1,2,high,82,1.33,112,1.15,82,1.38,Yes,unsure,fa,1.474745750427246,NA
324,d25!8lo,False,309,1,equal,ST2_high_1_a2,P = T2?,Same,2,2,high,82,1.24,112,0.92,112,1.23,Yes,sure,hit,3.0603771209716797,NA
325,d25!8lo,False,310,1,equal,ST2_high_2_a2,P = T1?,Same,2,2,high,112,1.0,82,1.5,82,1.27,No,quiteSure,cr,1.4441070556640625,NA
326,d25!8lo,False,311,1,equal,ST2_low_2_a2,P = T2?,Same,2,2,low,132,0.91,82,1.53,82,1.3,Yes,sure,hit,1.1579828262329102,NA
327,d25!8lo,False,312,1,equal,STb_7_a1,P = T1?,Same,0,1,None,154,0.71,154,0.94,154,0.94,Yes,sure,hit,0.8040492534637451,NA
328,d25!8lo,False,313,1,equal,ST2_low_3_a1,P = T2?,Same,2,1,low,70,1.8,112,1.02,112,1.14,Yes,sure,hit,1.059798002243042,NA
329,d25!8lo,False,314,1,equal,STb_8_a1,P = T1?,Same,0,1,None,180,0.86,180,0.78,180,0.8,Yes,sure,hit,0.6241378784179688,NA
330,d25!8lo,False,315,1,equal,ST2_low_5_a2,P = T2?,Same,2,2,low,96,1.32,154,0.84,154,0.92,Yes,quiteSure,hit,0.9015371799468994,NA
331,d25!8lo,False,316,1,equal,ST1_low_4_a1,P = T2?,Same,1,1,low,112,1.0,70,1.65,112,1.0,No,unsure,cr,2.482469081878662,NA
332,d25!8lo,False,317,1,equal,ST1_low_1_a2,P = T1?,Same,1,2,low,82,1.56,132,0.83,82,1.52,Yes,sure,hit,1.0142593383789062,NA
333,d25!8lo,False,318,1,equal,ST2_high_2_a1,P = T2?,Same,2,1,high,112,1.04,82,1.58,82,1.23,Yes,quiteSure,hit,1.1516058444976807,NA
334,d25!8lo,False,319,1,equal,ST2_high_2_a1,P = T1?,Same,2,1,high,112,1.14,82,1.51,82,1.55,No,quiteSure,cr,1.2543532848358154,NA
335,d25!8lo,False,320,1,equal,ST1_low_4_a1,P = T2?,Same,1,1,low,112,1.11,70,1.53,112,1.19,No,sure,cr,1.7491400241851807,1.0
