,pcode,practice,trial,block,questionType,condition,question,PTS,TargetPosition,AccessoryPosition,TNS,T1_hz,T1_amp,T2_hz,T2_amp,P_hz,P_amp,response_dicho,response_rating,response_sdt,rt,P_correct
0,t#jc019,True,1,1,equal,STb_2_a2,P = T2?,Same,0,2,None,70,1.49,70,1.77,70,1.4,Yes,quiteSure,hit,2.4966657161712646,NA
1,t#jc019,True,2,1,equal,STb_8_a2,P = T1?,Same,0,2,None,180,0.81,180,0.91,180,0.94,Yes,quiteSure,hit,2.0248959064483643,NA
2,t#jc019,True,3,1,equal,STb_4_a1,P = T1?,Same,0,1,None,96,1.43,96,1.27,96,1.09,Yes,quiteSure,hit,1.6979527473449707,NA
3,t#jc019,True,4,1,equal,ST2_low_1_a2,P = T2?,Same,2,2,low,82,1.43,132,1.02,132,0.73,Yes,quiteSure,hit,1.8202564716339111,NA
4,t#jc019,True,5,1,equal,ST1_low_2_a2,P = T2?,Same,1,2,low,132,0.72,82,1.61,132,0.81,No,unsure,cr,2.4013607501983643,NA
5,t#jc019,True,6,1,equal,ST1_low_5_a1,P = T1?,Same,1,1,low,96,1.46,154,0.83,96,1.18,Yes,sure,hit,1.4393997192382812,NA
6,t#jc019,True,7,1,equal,ST1_low_4_a2,P = T2?,Same,1,2,low,112,1.15,70,1.59,112,0.93,No,sure,cr,2.1766786575317383,NA
7,t#jc019,True,8,1,equal,DT1_low_5_a1,P = T1?,Different,1,1,low,96,1.1,154,0.84,82,1.3,Yes,sure,hit,1.9845335483551025,NA
8,t#jc019,True,9,1,equal,ST2_high_3_a2,P = T1?,Same,2,2,high,70,1.79,96,1.34,96,1.2,No,unsure,cr,1.7252542972564697,NA
9,t#jc019,True,10,1,equal,DT2_high_3_a1,P = T2?,Different,2,1,high,70,1.71,96,1.14,112,1.13,Yes,quiteSure,hit,4.614136457443237,NA
10,t#jc019,True,11,1,equal,DT1_high_1_a1,P = T2?,Different,1,1,high,82,1.4,112,0.92,70,1.39,No,quiteSure,cr,1.8511698246002197,NA
11,t#jc019,True,12,1,equal,STb_4_a1,P = T2?,Same,0,1,None,96,1.24,96,1.31,96,1.34,No,sure,miss,1.7488298416137695,NA
12,t#jc019,True,13,1,equal,ST2_low_6_a1,P = T1?,Same,2,1,low,154,0.91,96,1.47,96,1.23,Yes,quiteSure,fa,2.9549787044525146,NA
13,t#jc019,True,14,1,equal,DT2_high_1_a2,P = T1?,Different,2,2,high,82,1.63,112,0.97,132,0.94,No,sure,cr,2.7619874477386475,NA
14,t#jc019,True,15,1,equal,ST1_high_2_a2,P = T1?,Same,1,2,high,112,1.27,82,1.73,112,1.16,Yes,sure,hit,1.7008213996887207,NA
15,t#jc019,True,16,1,equal,ST2_low_3_a2,P = T2?,Same,2,2,low,70,1.69,112,1.03,112,0.87,Yes,sure,hit,2.2621099948883057,0.75
16,t#jc019,False,1,1,equal,ST1_high_2_a2,P = T2?,Same,1,2,high,112,1.0,82,1.29,112,1.16,Yes,quiteSure,fa,3.31083083152771,NA
17,t#jc019,False,2,1,equal,ST2_high_4_a2,P = T2?,Same,2,2,high,96,1.38,70,1.54,70,1.62,Yes,quiteSure,hit,1.8244528770446777,NA
18,t#jc019,False,3,1,equal,ST1_low_5_a2,P = T1?,Same,1,2,low,96,1.22,154,0.78,96,1.3,Yes,quiteSure,hit,2.0671398639678955,NA
19,t#jc019,False,4,1,equal,ST1_high_2_a1,P = T2?,Same,1,1,high,112,1.17,82,1.27,112,1.12,No,quiteSure,cr,3.247006893157959,NA
20,t#jc019,False,5,1,equal,ST2_low_1_a1,P = T1?,Same,2,1,low,82,1.28,132,0.85,132,0.9,No,sure,cr,1.793743371963501,NA
21,t#jc019,False,6,1,equal,ST1_high_4_a1,P = T2?,Same,1,1,high,96,1.41,70,1.71,96,1.14,No,quiteSure,cr,4.186643600463867,NA
22,t#jc019,False,7,1,equal,ST2_high_4_a2,P = T1?,Same,2,2,high,96,1.43,70,1.38,70,1.73,No,quiteSure,cr,2.5114572048187256,NA
23,t#jc019,False,8,1,equal,ST2_low_5_a2,P = T2?,Same,2,2,low,96,1.34,154,0.94,154,0.93,Yes,sure,hit,2.423856496810913,NA
24,t#jc019,False,9,1,equal,ST2_low_4_a2,P = T2?,Same,2,2,low,112,1.22,70,1.44,70,1.69,Yes,sure,hit,1.9922528266906738,NA
25,t#jc019,False,10,1,equal,ST2_high_6_a2,P = T1?,Same,2,2,high,132,0.96,96,1.19,96,1.35,No,unsure,cr,12.34389042854309,NA
26,t#jc019,False,11,1,equal,ST1_low_4_a1,P = T1?,Same,1,1,low,112,1.2,70,1.52,112,1.12,Yes,sure,hit,1.9565718173980713,NA
27,t#jc019,False,12,1,equal,ST1_low_2_a2,P = T2?,Same,1,2,low,132,1.01,82,1.44,132,0.95,No,sure,cr,1.8893158435821533,NA
28,t#jc019,False,13,1,equal,DT1_high_4_a2,P = T2?,Different,1,2,high,96,1.31,70,1.8,112,1.0,Yes,unsure,fa,2.714914083480835,NA
29,t#jc019,False,14,1,equal,ST1_high_2_a2,P = T2?,Same,1,2,high,112,1.12,82,1.51,112,0.97,No,unsure,cr,2.3704683780670166,NA
30,t#jc019,False,15,1,equal,ST2_low_4_a2,P = T2?,Same,2,2,low,112,1.22,70,1.4,70,1.47,Yes,unsure,hit,2.030484914779663,NA
31,t#jc019,False,16,1,equal,ST1_low_5_a1,P = T2?,Same,1,1,low,96,1.22,154,0.82,96,1.39,No,unsure,cr,1.9101014137268066,NA
32,t#jc019,False,17,1,equal,ST1_low_2_a1,P = T1?,Same,1,1,low,132,1.01,82,1.36,132,0.94,Yes,quiteSure,hit,3.6589643955230713,NA
33,t#jc019,False,18,1,equal,ST2_high_3_a2,P = T1?,Same,2,2,high,70,1.82,96,1.31,96,1.19,No,quiteSure,cr,1.6088142395019531,NA
34,t#jc019,False,19,1,equal,STb_4_a1,P = T1?,Same,0,1,None,96,1.43,96,1.27,96,1.09,Yes,quiteSure,hit,2.0129196643829346,NA
35,t#jc019,False,20,1,equal,ST1_high_4_a1,P = T2?,Same,1,1,high,96,1.42,70,1.71,96,1.35,No,quiteSure,cr,1.7549972534179688,NA
36,t#jc019,False,21,1,equal,ST1_low_4_a2,P = T1?,Same,1,2,low,112,1.23,70,1.82,112,1.23,Yes,sure,hit,1.8973970413208008,NA
37,t#jc019,False,22,1,equal,STb_7_a2,P = T2?,Same,0,2,None,154,0.82,154,0.94,154,0.96,Yes,quiteSure,hit,2.183490514755249,NA
38,t#jc019,False,23,1,equal,ST1_high_3_a1,P = T2?,Same,1,1,high,70,1.73,96,1.18,70,1.45,No,quiteSure,cr,3.555323600769043,NA
39,t#jc019,False,24,1,equal,ST1_low_6_a1,P = T1?,Same,1,1,low,154,0.73,96,1.22,154,0.73,Yes,quiteSure,hit,1.5112838745117188,NA
40,t#jc019,False,25,1,equal,ST2_high_6_a1,P = T1?,Same,2,1,high,132,1.04,96,1.24,96,1.2,Yes,unsure,fa,8.874978065490723,NA
41,t#jc019,False,26,1,equal,ST2_high_6_a2,P = T2?,Same,2,2,high,132,0.79,96,1.24,96,1.35,Yes,quiteSure,hit,4.518496990203857,NA
42,t#jc019,False,27,1,equal,DT2_low_6_a1,P = T1?,Different,2,1,low,154,0.92,96,1.17,82,1.45,No,quiteSure,cr,3.446394443511963,NA
43,t#jc019,False,28,1,equal,ST2_low_4_a2,P = T1?,Same,2,2,low,112,1.21,70,1.69,70,1.82,No,sure,cr,5.922116279602051,NA
44,t#jc019,False,29,1,equal,ST1_high_1_a1,P = T2?,Same,1,1,high,82,1.49,112,0.92,82,1.35,No,unsure,cr,1.8386154174804688,NA
45,t#jc019,False,30,1,equal,DT2_high_1_a1,P = T1?,Different,2,1,high,82,1.4,112,1.01,132,1.06,No,sure,cr,1.5120136737823486,NA
46,t#jc019,False,31,1,equal,ST2_high_6_a1,P = T1?,Same,2,1,high,132,0.83,96,1.29,96,1.27,No,quiteSure,cr,1.3999671936035156,NA
47,t#jc019,False,32,1,equal,ST2_low_6_a2,P = T1?,Same,2,2,low,154,0.89,96,1.16,96,1.29,No,unsure,cr,3.0511786937713623,NA
48,t#jc019,False,33,1,equal,ST2_high_5_a2,P = T2?,Same,2,2,high,96,1.1,132,1.03,132,1.05,No,unsure,miss,5.95116925239563,NA
49,t#jc019,False,34,1,equal,ST2_high_4_a2,P = T1?,Same,2,2,high,96,1.34,70,1.73,70,1.65,No,unsure,cr,8.084985971450806,NA
50,t#jc019,False,35,1,equal,ST1_high_6_a2,P = T1?,Same,1,2,high,132,0.8,96,1.19,132,0.88,Yes,sure,hit,1.734652042388916,NA
51,t#jc019,False,36,1,equal,ST1_high_6_a2,P = T2?,Same,1,2,high,132,0.94,96,1.28,132,0.99,No,sure,cr,3.2445523738861084,NA
52,t#jc019,False,37,1,equal,ST1_high_2_a1,P = T1?,Same,1,1,high,112,1.15,82,1.3,112,1.12,Yes,sure,hit,2.2092392444610596,NA
53,t#jc019,False,38,1,equal,ST2_low_1_a2,P = T2?,Same,2,2,low,82,1.43,132,1.02,132,0.73,Yes,quiteSure,hit,1.8071222305297852,NA
54,t#jc019,False,39,1,equal,ST2_high_3_a1,P = T2?,Same,2,1,high,70,1.62,96,1.42,96,1.17,Yes,quiteSure,hit,2.2004382610321045,NA
55,t#jc019,False,40,1,equal,ST1_high_6_a1,P = T2?,Same,1,1,high,132,0.91,96,1.24,132,0.92,No,sure,cr,2.8171732425689697,NA
56,t#jc019,False,41,1,equal,ST2_low_3_a2,P = T1?,Same,2,2,low,70,1.5,112,1.12,112,1.12,No,sure,cr,3.1860029697418213,NA
57,t#jc019,False,42,1,equal,ST1_low_6_a2,P = T2?,Same,1,2,low,154,0.91,96,1.08,154,0.72,No,sure,cr,1.8640453815460205,NA
58,t#jc019,False,43,1,equal,ST1_high_5_a1,P = T1?,Same,1,1,high,96,1.31,132,0.87,96,1.18,Yes,quiteSure,hit,1.3783283233642578,NA
59,t#jc019,False,44,1,equal,ST1_low_4_a1,P = T2?,Same,1,1,low,112,0.95,70,1.56,112,0.92,No,sure,cr,1.9902327060699463,NA
60,t#jc019,False,45,1,equal,ST1_high_5_a2,P = T1?,Same,1,2,high,96,1.4,132,0.83,96,1.12,Yes,quiteSure,hit,1.3049700260162354,NA
61,t#jc019,False,46,1,equal,ST2_high_6_a1,P = T2?,Same,2,1,high,132,0.84,96,1.26,96,1.4,Yes,quiteSure,hit,1.7493531703948975,NA
62,t#jc019,False,47,1,equal,STb_7_a1,P = T1?,Same,0,1,None,154,0.94,154,0.85,154,0.8,No,quiteSure,miss,2.0246834754943848,NA
63,t#jc019,False,48,1,equal,ST2_high_5_a2,P = T1?,Same,2,2,high,96,1.19,132,1.04,132,0.91,Yes,unsure,fa,3.2367324829101562,NA
64,t#jc019,False,49,1,equal,ST1_low_2_a2,P = T1?,Same,1,2,low,132,1.02,82,1.52,132,0.85,Yes,quiteSure,hit,1.4707186222076416,NA
65,t#jc019,False,50,1,equal,STb_2_a2,P = T2?,Same,0,2,None,70,1.49,70,1.77,70,1.4,Yes,quiteSure,hit,1.9136366844177246,NA
66,t#jc019,False,51,1,equal,ST2_low_1_a2,P = T1?,Same,2,2,low,82,1.6,132,1.02,132,1.02,No,quiteSure,cr,3.2783806324005127,NA
67,t#jc019,False,52,1,equal,ST1_low_3_a2,P = T2?,Same,1,2,low,70,1.37,112,0.93,70,1.6,No,quiteSure,cr,2.601081132888794,NA
68,t#jc019,False,53,1,equal,ST1_high_3_a2,P = T1?,Same,1,2,high,70,1.65,96,1.32,70,1.63,Yes,sure,hit,1.3572216033935547,NA
69,t#jc019,False,54,1,equal,ST2_low_3_a2,P = T1?,Same,2,2,low,70,1.53,112,0.96,112,0.98,Yes,quiteSure,fa,1.4831843376159668,NA
70,t#jc019,False,55,1,equal,STb_2_a2,P = T1?,Same,0,2,None,70,1.72,70,1.49,70,1.85,Yes,quiteSure,hit,1.3259379863739014,NA
71,t#jc019,False,56,1,equal,ST1_high_5_a2,P = T2?,Same,1,2,high,96,1.25,132,0.9,96,1.22,No,unsure,cr,1.8058297634124756,NA
72,t#jc019,False,57,1,equal,ST1_high_6_a2,P = T1?,Same,1,2,high,132,1.0,96,1.22,132,0.79,Yes,quiteSure,hit,1.527038812637329,NA
73,t#jc019,False,58,1,equal,ST1_low_4_a1,P = T2?,Same,1,1,low,112,0.98,70,1.74,112,0.96,No,quiteSure,cr,1.862595796585083,NA
74,t#jc019,False,59,1,equal,ST1_high_1_a2,P = T2?,Same,1,2,high,82,1.37,112,1.17,82,1.46,No,unsure,cr,1.8961913585662842,NA
75,t#jc019,False,60,1,equal,ST1_high_5_a2,P = T2?,Same,1,2,high,96,1.14,132,0.99,96,1.3,No,quiteSure,cr,1.5650277137756348,NA
76,t#jc019,False,61,1,equal,ST2_low_6_a1,P = T1?,Same,2,1,low,154,0.73,96,1.12,96,1.39,No,quiteSure,cr,1.6730985641479492,NA
77,t#jc019,False,62,1,equal,ST1_low_3_a1,P = T1?,Same,1,1,low,70,1.58,112,1.16,70,1.66,Yes,quiteSure,hit,1.3059711456298828,NA
78,t#jc019,False,63,1,equal,ST1_high_5_a1,P = T2?,Same,1,1,high,96,1.25,132,1.03,96,1.19,No,quiteSure,cr,1.3743526935577393,NA
79,t#jc019,False,64,1,equal,ST2_low_3_a1,P = T1?,Same,2,1,low,70,1.51,112,1.12,112,1.24,No,sure,cr,1.5829412937164307,NA
80,t#jc019,False,65,1,equal,ST2_high_5_a2,P = T1?,Same,2,2,high,96,1.12,132,0.92,132,0.79,No,quiteSure,cr,2.9709150791168213,NA
81,t#jc019,False,66,1,equal,ST1_high_4_a1,P = T1?,Same,1,1,high,96,1.06,70,1.81,96,1.37,Yes,quiteSure,hit,1.4038867950439453,NA
82,t#jc019,False,67,1,equal,DT1_high_4_a2,P = T1?,Different,1,2,high,96,1.15,70,1.55,112,1.21,Yes,quiteSure,hit,1.2748992443084717,NA
83,t#jc019,False,68,1,equal,STb_5_a2,P = T1?,Same,0,2,None,112,1.03,112,0.92,112,1.21,No,unsure,miss,3.066265344619751,NA
84,t#jc019,False,69,1,equal,ST1_low_5_a1,P = T2?,Same,1,1,low,96,1.39,154,0.85,96,1.27,No,unsure,cr,4.289309978485107,NA
85,t#jc019,False,70,1,equal,ST1_low_3_a1,P = T2?,Same,1,1,low,70,1.78,112,1.14,70,1.59,No,sure,cr,1.9426372051239014,NA
86,t#jc019,False,71,1,equal,ST2_high_5_a2,P = T2?,Same,2,2,high,96,1.36,132,0.95,132,0.81,Yes,sure,hit,1.8439116477966309,NA
87,t#jc019,False,72,1,equal,STb_1_a2,P = T1?,Same,0,2,None,60,1.87,60,1.81,60,1.51,Yes,sure,hit,1.4261131286621094,NA
88,t#jc019,False,73,1,equal,ST1_low_2_a2,P = T2?,Same,1,2,low,132,0.72,82,1.61,132,0.81,No,sure,cr,1.583477258682251,NA
89,t#jc019,False,74,1,equal,ST2_low_1_a2,P = T2?,Same,2,2,low,82,1.51,132,0.95,132,0.87,Yes,sure,hit,3.3098268508911133,NA
90,t#jc019,False,75,1,equal,ST2_high_6_a1,P = T1?,Same,2,1,high,132,0.92,96,1.17,96,1.11,No,quiteSure,cr,4.298310279846191,NA
91,t#jc019,False,76,1,equal,ST2_low_1_a1,P = T2?,Same,2,1,low,82,1.59,132,1.01,132,0.99,Yes,sure,hit,1.949864149093628,NA
92,t#jc019,False,77,1,equal,ST2_high_6_a2,P = T1?,Same,2,2,high,132,0.96,96,1.2,96,1.37,No,unsure,cr,3.1311750411987305,NA
93,t#jc019,False,78,1,equal,ST2_high_2_a2,P = T1?,Same,2,2,high,112,1.18,82,1.55,82,1.36,Yes,quiteSure,fa,1.4451017379760742,NA
94,t#jc019,False,79,1,equal,ST2_low_5_a1,P = T2?,Same,2,1,low,96,1.14,154,0.74,154,0.71,Yes,sure,hit,1.8467726707458496,NA
95,t#jc019,False,80,1,equal,ST1_high_4_a2,P = T2?,Same,1,2,high,96,1.1,70,1.64,96,1.22,Yes,unsure,fa,2.069075345993042,NA
96,t#jc019,False,81,1,equal,ST2_low_4_a1,P = T1?,Same,2,1,low,112,1.22,70,1.42,70,1.4,No,sure,cr,2.60884952545166,NA
97,t#jc019,False,82,1,equal,ST1_low_5_a2,P = T1?,Same,1,2,low,96,1.27,154,0.92,96,1.3,No,unsure,miss,3.5028886795043945,NA
98,t#jc019,False,83,1,equal,ST2_low_2_a1,P = T2?,Same,2,1,low,132,0.9,82,1.5,82,1.63,Yes,sure,hit,2.5122838020324707,NA
99,t#jc019,False,84,1,equal,ST1_low_2_a1,P = T1?,Same,1,1,low,132,0.96,82,1.34,132,0.92,Yes,quiteSure,hit,4.560384035110474,NA
100,t#jc019,False,85,1,equal,ST1_high_4_a2,P = T1?,Same,1,2,high,96,1.32,70,1.59,96,1.36,Yes,quiteSure,hit,1.3197011947631836,NA
101,t#jc019,False,86,1,equal,ST1_low_1_a1,P = T1?,Same,1,1,low,82,1.36,132,0.94,82,1.55,Yes,sure,hit,1.1835095882415771,NA
102,t#jc019,False,87,1,equal,ST2_high_2_a2,P = T1?,Same,2,2,high,112,0.98,82,1.43,82,1.35,No,sure,cr,3.437730073928833,NA
103,t#jc019,False,88,1,equal,ST2_high_2_a2,P = T2?,Same,2,2,high,112,1.06,82,1.47,82,1.56,Yes,quiteSure,hit,1.460975170135498,NA
104,t#jc019,False,89,1,equal,ST2_low_5_a2,P = T2?,Same,2,2,low,96,1.2,154,0.74,154,0.71,Yes,quiteSure,hit,1.5673301219940186,NA
105,t#jc019,False,90,1,equal,DT1_high_1_a2,P = T2?,Different,1,2,high,82,1.35,112,1.09,70,1.7,No,sure,cr,2.644415855407715,NA
106,t#jc019,False,91,1,equal,DT1_high_2_a2,P = T2?,Different,1,2,high,112,1.22,82,1.25,132,0.84,No,unsure,cr,5.293102502822876,NA
107,t#jc019,False,92,1,equal,ST1_high_3_a2,P = T1?,Same,1,2,high,70,1.71,96,1.36,70,1.37,Yes,sure,hit,1.3801681995391846,NA
108,t#jc019,False,93,1,equal,ST2_low_6_a1,P = T2?,Same,2,1,low,154,0.77,96,1.14,96,1.1,Yes,sure,hit,1.479792833328247,NA
109,t#jc019,False,94,1,equal,ST2_high_2_a1,P = T1?,Same,2,1,high,112,1.11,82,1.28,82,1.33,No,sure,cr,3.481757402420044,NA
110,t#jc019,False,95,1,equal,ST1_low_4_a2,P = T2?,Same,1,2,low,112,1.15,70,1.59,112,0.93,No,sure,cr,1.4747016429901123,NA
111,t#jc019,False,96,1,equal,ST2_low_2_a2,P = T2?,Same,2,2,low,132,0.83,82,1.59,82,1.53,Yes,sure,hit,1.74586820602417,NA
112,t#jc019,False,97,1,equal,ST1_high_2_a2,P = T1?,Same,1,2,high,112,1.18,82,1.31,112,1.05,No,unsure,miss,2.3985605239868164,NA
113,t#jc019,False,98,1,equal,ST1_low_1_a2,P = T1?,Same,1,2,low,82,1.49,132,0.81,82,1.36,Yes,sure,hit,1.2646980285644531,NA
114,t#jc019,False,99,1,equal,ST2_high_4_a1,P = T2?,Same,2,1,high,96,1.23,70,1.78,70,1.84,Yes,sure,hit,2.080575704574585,NA
115,t#jc019,False,100,1,equal,ST1_high_5_a1,P = T2?,Same,1,1,high,96,1.17,132,0.87,96,1.28,No,unsure,cr,2.6341559886932373,NA
116,t#jc019,False,101,1,equal,ST1_low_1_a2,P = T1?,Same,1,2,low,82,1.56,132,0.95,82,1.27,Yes,sure,hit,3.122751474380493,NA
117,t#jc019,False,102,1,equal,ST1_low_3_a2,P = T1?,Same,1,2,low,70,1.85,112,1.23,70,1.8,Yes,sure,hit,1.4461429119110107,NA
118,t#jc019,False,103,1,equal,ST1_high_3_a2,P = T2?,Same,1,2,high,70,1.37,96,1.13,70,1.68,No,unsure,cr,1.965360403060913,NA
119,t#jc019,False,104,1,equal,ST2_high_5_a1,P = T1?,Same,2,1,high,96,1.06,132,0.93,132,0.93,No,quiteSure,cr,1.5734682083129883,NA
120,t#jc019,False,105,1,equal,ST1_low_6_a2,P = T2?,Same,1,2,low,154,0.88,96,1.21,154,0.72,No,sure,cr,1.7808120250701904,NA
121,t#jc019,False,106,1,equal,ST2_high_3_a2,P = T2?,Same,2,2,high,70,1.43,96,1.23,96,1.08,No,unsure,miss,6.506214141845703,NA
122,t#jc019,False,107,1,equal,STb_6_a2,P = T1?,Same,0,2,None,132,0.89,132,0.82,132,1.01,Yes,unsure,hit,1.4647791385650635,NA
123,t#jc019,False,108,1,equal,ST2_low_4_a1,P = T2?,Same,2,1,low,112,0.91,70,1.56,70,1.43,Yes,sure,hit,2.9673502445220947,NA
124,t#jc019,False,109,1,equal,ST1_high_1_a2,P = T1?,Same,1,2,high,82,1.22,112,0.97,82,1.53,Yes,unsure,hit,1.563910961151123,NA
125,t#jc019,False,110,1,equal,ST2_high_5_a1,P = T1?,Same,2,1,high,96,1.07,132,0.93,132,0.97,No,sure,cr,1.9184913635253906,NA
126,t#jc019,False,111,1,equal,ST2_high_6_a2,P = T1?,Same,2,2,high,132,1.04,96,1.38,96,1.25,No,sure,cr,5.346310377120972,NA
127,t#jc019,False,112,1,equal,ST1_low_6_a2,P = T1?,Same,1,2,low,154,0.84,96,1.26,154,0.86,Yes,quiteSure,hit,2.439838409423828,NA
128,t#jc019,False,113,1,equal,ST1_low_1_a2,P = T2?,Same,1,2,low,82,1.51,132,1.03,82,1.61,No,quiteSure,cr,2.3911702632904053,NA
129,t#jc019,False,114,1,equal,ST2_high_6_a2,P = T2?,Same,2,2,high,132,1.05,96,1.34,96,1.38,Yes,quiteSure,hit,1.8930408954620361,NA
130,t#jc019,False,115,1,equal,ST2_low_5_a1,P = T2?,Same,2,1,low,96,1.21,154,0.79,154,0.79,Yes,sure,hit,1.7776355743408203,NA
131,t#jc019,False,116,1,equal,ST1_low_2_a2,P = T1?,Same,1,2,low,132,1.02,82,1.43,132,0.93,Yes,sure,hit,1.571305274963379,NA
132,t#jc019,False,117,1,equal,ST2_low_2_a2,P = T1?,Same,2,2,low,132,0.94,82,1.26,82,1.53,No,sure,cr,2.644460439682007,NA
133,t#jc019,False,118,1,equal,ST1_low_5_a1,P = T2?,Same,1,1,low,96,1.2,154,0.74,96,1.1,No,sure,cr,3.9663407802581787,NA
134,t#jc019,False,119,1,equal,ST2_high_2_a2,P = T2?,Same,2,2,high,112,0.95,82,1.32,82,1.49,Yes,sure,hit,1.5323989391326904,NA
135,t#jc019,False,120,1,equal,ST1_low_3_a2,P = T2?,Same,1,2,low,70,1.71,112,0.92,70,1.78,No,sure,cr,1.7275402545928955,NA
136,t#jc019,False,121,1,equal,ST1_high_5_a2,P = T1?,Same,1,2,high,96,1.1,132,0.96,96,1.27,Yes,quiteSure,hit,3.608973979949951,NA
137,t#jc019,False,122,1,equal,ST2_low_3_a2,P = T1?,Same,2,2,low,70,1.72,112,0.96,112,1.12,No,quiteSure,cr,2.657561779022217,NA
138,t#jc019,False,123,1,equal,ST1_low_6_a2,P = T1?,Same,1,2,low,154,0.93,96,1.29,154,0.71,Yes,quiteSure,hit,1.5250763893127441,NA
139,t#jc019,False,124,1,equal,ST2_high_1_a1,P = T1?,Same,2,1,high,82,1.35,112,1.02,112,1.04,Yes,unsure,fa,1.3187694549560547,NA
140,t#jc019,False,125,1,equal,ST1_low_6_a2,P = T1?,Same,1,2,low,154,0.72,96,1.15,154,0.79,Yes,quiteSure,hit,2.3863964080810547,NA
141,t#jc019,False,126,1,equal,ST1_high_4_a2,P = T2?,Same,1,2,high,96,1.07,70,1.75,96,1.17,Yes,unsure,fa,1.8090147972106934,NA
142,t#jc019,False,127,1,equal,ST2_high_3_a2,P = T2?,Same,2,2,high,70,1.51,96,1.4,96,1.06,Yes,unsure,hit,1.3491089344024658,NA
143,t#jc019,False,128,1,equal,ST1_low_2_a1,P = T1?,Same,1,1,low,132,0.81,82,1.44,132,0.98,Yes,unsure,hit,4.986455202102661,NA
144,t#jc019,False,129,1,equal,ST2_high_4_a1,P = T1?,Same,2,1,high,96,1.07,70,1.81,70,1.39,No,quiteSure,cr,4.940244674682617,NA
145,t#jc019,False,130,1,equal,ST1_high_2_a2,P = T2?,Same,1,2,high,112,1.02,82,1.47,112,0.99,No,quiteSure,cr,2.7578651905059814,NA
146,t#jc019,False,131,1,equal,ST2_high_2_a2,P = T1?,Same,2,2,high,112,1.12,82,1.42,82,1.26,No,unsure,cr,3.347992420196533,NA
147,t#jc019,False,132,1,equal,ST1_high_3_a1,P = T2?,Same,1,1,high,70,1.63,96,1.07,70,1.67,No,sure,cr,3.049894094467163,NA
148,t#jc019,False,133,1,equal,ST1_low_4_a2,P = T1?,Same,1,2,low,112,1.23,70,1.74,112,1.07,Yes,unsure,hit,2.308851957321167,NA
149,t#jc019,False,134,1,equal,STb_6_a1,P = T1?,Same,0,1,None,132,1.06,132,0.9,132,1.06,Yes,sure,hit,1.2601816654205322,NA
150,t#jc019,False,135,1,equal,ST2_high_5_a1,P = T1?,Same,2,1,high,96,1.29,132,0.86,132,1.01,Yes,sure,fa,1.608217477798462,NA
151,t#jc019,False,136,1,equal,ST1_low_6_a1,P = T1?,Same,1,1,low,154,0.86,96,1.35,154,0.94,Yes,sure,hit,1.3371326923370361,NA
152,t#jc019,False,137,1,equal,ST1_high_6_a1,P = T1?,Same,1,1,high,132,0.92,96,1.19,132,0.88,Yes,quiteSure,hit,1.5031235218048096,NA
153,t#jc019,False,138,1,equal,STb_3_a2,P = T2?,Same,0,2,None,82,1.42,82,1.5,82,1.24,Yes,quiteSure,hit,2.1749892234802246,NA
154,t#jc019,False,139,1,equal,ST2_low_1_a1,P = T1?,Same,2,1,low,82,1.62,132,0.83,132,0.85,No,quiteSure,cr,2.1079611778259277,NA
155,t#jc019,False,140,1,equal,ST2_low_4_a2,P = T1?,Same,2,2,low,112,1.14,70,1.37,70,1.67,Yes,quiteSure,fa,2.71589994430542,NA
156,t#jc019,False,141,1,equal,ST1_low_3_a1,P = T1?,Same,1,1,low,70,1.48,112,1.17,70,1.64,Yes,sure,hit,2.3710579872131348,NA
157,t#jc019,False,142,1,equal,ST1_high_3_a1,P = T2?,Same,1,1,high,70,1.83,96,1.36,70,1.58,No,quiteSure,cr,6.087885141372681,NA
158,t#jc019,False,143,1,equal,ST2_high_1_a2,P = T2?,Same,2,2,high,82,1.51,112,1.01,112,1.11,Yes,quiteSure,hit,1.6260943412780762,NA
159,t#jc019,False,144,1,equal,ST1_low_4_a1,P = T1?,Same,1,1,low,112,1.06,70,1.85,112,1.05,Yes,sure,hit,1.1682415008544922,NA
160,t#jc019,False,145,1,equal,ST1_high_5_a1,P = T1?,Same,1,1,high,96,1.19,132,0.92,96,1.3,Yes,sure,hit,1.215524673461914,NA
161,t#jc019,False,146,1,equal,ST2_low_5_a1,P = T1?,Same,2,1,low,96,1.32,154,0.75,154,0.85,No,unsure,cr,1.6857175827026367,NA
162,t#jc019,False,147,1,equal,ST1_high_1_a2,P = T2?,Same,1,2,high,82,1.23,112,1.23,82,1.53,No,sure,cr,2.413748025894165,NA
163,t#jc019,False,148,1,equal,ST1_low_6_a2,P = T2?,Same,1,2,low,154,0.79,96,1.12,154,0.9,No,sure,cr,3.3763623237609863,NA
164,t#jc019,False,149,1,equal,ST2_high_2_a1,P = T1?,Same,2,1,high,112,0.93,82,1.39,82,1.43,No,sure,cr,2.267171621322632,NA
165,t#jc019,False,150,1,equal,ST2_low_5_a2,P = T1?,Same,2,2,low,96,1.42,154,0.92,154,0.85,No,unsure,cr,3.176839590072632,NA
166,t#jc019,False,151,1,equal,ST1_low_4_a2,P = T2?,Same,1,2,low,112,1.0,70,1.53,112,1.14,No,sure,cr,1.4001681804656982,NA
167,t#jc019,False,152,1,equal,ST2_low_4_a2,P = T2?,Same,2,2,low,112,1.02,70,1.68,70,1.81,Yes,sure,hit,2.983912706375122,NA
168,t#jc019,False,153,1,equal,ST1_low_5_a1,P = T1?,Same,1,1,low,96,1.07,154,0.73,96,1.11,Yes,sure,hit,1.3274140357971191,NA
169,t#jc019,False,154,1,equal,ST2_low_2_a2,P = T1?,Same,2,2,low,132,0.85,82,1.27,82,1.57,No,sure,cr,1.5822851657867432,NA
170,t#jc019,False,155,1,equal,ST2_low_6_a1,P = T2?,Same,2,1,low,154,0.76,96,1.1,96,1.2,Yes,sure,hit,1.667222261428833,NA
171,t#jc019,False,156,1,equal,ST2_high_2_a1,P = T2?,Same,2,1,high,112,0.94,82,1.52,82,1.35,Yes,sure,hit,1.3231394290924072,NA
172,t#jc019,False,157,1,equal,ST2_high_2_a1,P = T2?,Same,2,1,high,112,1.07,82,1.5,82,1.22,Yes,sure,hit,1.3184375762939453,NA
173,t#jc019,False,158,1,equal,STb_3_a1,P = T2?,Same,0,1,None,82,1.42,82,1.51,82,1.62,Yes,sure,hit,1.7119297981262207,NA
174,t#jc019,False,159,1,equal,ST1_low_1_a1,P = T2?,Same,1,1,low,82,1.49,132,0.89,82,1.48,No,sure,cr,1.5302743911743164,NA
175,t#jc019,False,160,1,equal,ST2_high_4_a1,P = T1?,Same,2,1,high,96,1.08,70,1.67,70,1.68,Yes,quiteSure,fa,1.4360508918762207,NA
176,t#jc019,False,161,1,equal,ST1_low_6_a1,P = T2?,Same,1,1,low,154,0.8,96,1.15,154,0.92,No,quiteSure,cr,1.5946567058563232,NA
177,t#jc019,False,162,1,equal,ST2_high_1_a2,P = T1?,Same,2,2,high,82,1.55,112,1.09,112,1.03,Yes,unsure,fa,3.364377975463867,NA
178,t#jc019,False,163,1,equal,ST2_low_2_a2,P = T2?,Same,2,2,low,132,0.94,82,1.36,82,1.4,Yes,sure,hit,3.5971858501434326,NA
179,t#jc019,False,164,1,equal,ST2_high_5_a1,P = T2?,Same,2,1,high,96,1.23,132,0.94,132,0.86,Yes,sure,hit,2.3756489753723145,NA
180,t#jc019,False,165,1,equal,ST2_low_3_a1,P = T1?,Same,2,1,low,70,1.81,112,1.01,112,1.01,Yes,unsure,fa,1.5823748111724854,NA
181,t#jc019,False,166,1,equal,ST2_high_2_a2,P = T2?,Same,2,2,high,112,1.22,82,1.49,82,1.31,Yes,sure,hit,1.9177448749542236,NA
182,t#jc019,False,167,1,equal,ST2_high_3_a1,P = T1?,Same,2,1,high,70,1.42,96,1.38,96,1.22,Yes,unsure,fa,1.4003381729125977,NA
183,t#jc019,False,168,1,equal,ST1_low_1_a2,P = T1?,Same,1,2,low,82,1.35,132,0.82,82,1.28,Yes,sure,hit,1.8584885597229004,NA
184,t#jc019,False,169,1,equal,ST1_high_5_a2,P = T1?,Same,1,2,high,96,1.12,132,0.93,96,1.29,Yes,sure,hit,1.1024956703186035,NA
185,t#jc019,False,170,1,equal,STb_5_a2,P = T2?,Same,0,2,None,112,1.15,112,1.22,112,1.12,Yes,sure,hit,1.135613203048706,NA
186,t#jc019,False,171,1,equal,DT2_low_6_a2,P = T1?,Different,2,2,low,154,0.91,96,1.21,82,1.35,No,sure,cr,2.186598777770996,NA
187,t#jc019,False,172,1,equal,ST2_low_5_a1,P = T1?,Same,2,1,low,96,1.28,154,0.94,154,0.74,No,sure,cr,2.597651481628418,NA
188,t#jc019,False,173,1,equal,ST1_high_4_a1,P = T1?,Same,1,1,high,96,1.13,70,1.85,96,1.29,Yes,sure,hit,1.7143173217773438,NA
189,t#jc019,False,174,1,equal,ST2_low_5_a1,P = T1?,Same,2,1,low,96,1.09,154,0.94,154,0.91,No,sure,cr,1.7993454933166504,NA
190,t#jc019,False,175,1,equal,ST1_low_6_a1,P = T2?,Same,1,1,low,154,0.91,96,1.42,154,0.72,No,sure,cr,2.8368074893951416,NA
191,t#jc019,False,176,1,equal,ST2_high_1_a2,P = T1?,Same,2,2,high,82,1.64,112,1.11,112,1.18,No,unsure,cr,1.973980188369751,NA
192,t#jc019,False,177,1,equal,ST1_low_1_a2,P = T2?,Same,1,2,low,82,1.29,132,0.99,82,1.56,No,sure,cr,1.370020866394043,NA
193,t#jc019,False,178,1,equal,ST1_low_2_a1,P = T2?,Same,1,1,low,132,1.01,82,1.63,132,0.83,No,sure,cr,1.2786133289337158,NA
194,t#jc019,False,179,1,equal,ST2_high_5_a1,P = T2?,Same,2,1,high,96,1.1,132,0.91,132,0.96,Yes,sure,hit,1.4143807888031006,NA
195,t#jc019,False,180,1,equal,ST2_high_6_a2,P = T2?,Same,2,2,high,132,0.93,96,1.36,96,1.2,Yes,sure,hit,1.3468220233917236,NA
196,t#jc019,False,181,1,equal,ST2_high_6_a1,P = T2?,Same,2,1,high,132,1.04,96,1.08,96,1.37,Yes,sure,hit,1.4754307270050049,NA
197,t#jc019,False,182,1,equal,ST2_low_5_a2,P = T1?,Same,2,2,low,96,1.4,154,0.79,154,0.76,No,sure,cr,2.458590030670166,NA
198,t#jc019,False,183,1,equal,ST1_low_3_a1,P = T1?,Same,1,1,low,70,1.45,112,1.01,70,1.37,Yes,sure,hit,1.2052807807922363,NA
199,t#jc019,False,184,1,equal,ST1_low_1_a1,P = T2?,Same,1,1,low,82,1.55,132,0.92,82,1.29,No,sure,cr,2.95084285736084,NA
200,t#jc019,False,185,1,equal,ST2_high_4_a2,P = T2?,Same,2,2,high,96,1.22,70,1.81,70,1.82,Yes,sure,hit,2.5062479972839355,NA
201,t#jc019,False,186,1,equal,ST2_high_1_a1,P = T1?,Same,2,1,high,82,1.34,112,1.02,112,0.93,Yes,sure,fa,1.3725042343139648,NA
202,t#jc019,False,187,1,equal,ST2_high_3_a1,P = T2?,Same,2,1,high,70,1.38,96,1.42,96,1.26,Yes,sure,hit,1.5308845043182373,NA
203,t#jc019,False,188,1,equal,ST1_high_4_a2,P = T2?,Same,1,2,high,96,1.26,70,1.48,96,1.13,Yes,sure,fa,1.508953332901001,NA
204,t#jc019,False,189,1,equal,ST2_high_3_a1,P = T2?,Same,2,1,high,70,1.85,96,1.13,96,1.18,Yes,quiteSure,hit,1.2891430854797363,NA
205,t#jc019,False,190,1,equal,ST1_high_1_a2,P = T1?,Same,1,2,high,82,1.34,112,0.98,82,1.31,Yes,sure,hit,1.105159044265747,NA
206,t#jc019,False,191,1,equal,ST2_low_5_a2,P = T2?,Same,2,2,low,96,1.34,154,0.84,154,0.79,Yes,sure,hit,1.1174554824829102,NA
207,t#jc019,False,192,1,equal,ST1_high_2_a1,P = T2?,Same,1,1,high,112,1.21,82,1.37,112,1.14,No,unsure,cr,3.512526512145996,NA
208,t#jc019,False,193,1,equal,ST2_low_4_a1,P = T2?,Same,2,1,low,112,1.06,70,1.63,70,1.58,Yes,sure,hit,3.4158642292022705,NA
209,t#jc019,False,194,1,equal,ST1_high_4_a1,P = T1?,Same,1,1,high,96,1.33,70,1.76,96,1.41,Yes,quiteSure,hit,1.448040246963501,NA
210,t#jc019,False,195,1,equal,ST1_high_6_a2,P = T2?,Same,1,2,high,132,0.98,96,1.15,132,1.05,No,sure,cr,2.0412096977233887,NA
211,t#jc019,False,196,1,equal,ST2_low_1_a1,P = T2?,Same,2,1,low,82,1.24,132,0.87,132,1.02,No,sure,miss,2.387441396713257,NA
212,t#jc019,False,197,1,equal,DT2_low_2_a2,P = T2?,Different,2,2,low,132,0.97,82,1.39,70,1.65,Yes,sure,hit,1.4606449604034424,NA
213,t#jc019,False,198,1,equal,ST1_low_1_a1,P = T1?,Same,1,1,low,82,1.34,132,0.9,82,1.54,No,unsure,miss,7.626073122024536,NA
214,t#jc019,False,199,1,equal,ST1_high_3_a1,P = T1?,Same,1,1,high,70,1.48,96,1.19,70,1.64,Yes,unsure,hit,1.3849899768829346,NA
215,t#jc019,False,200,1,equal,ST1_high_6_a2,P = T2?,Same,1,2,high,132,1.04,96,1.06,132,1.01,No,sure,cr,1.6351120471954346,NA
216,t#jc019,False,201,1,equal,ST2_low_2_a1,P = T2?,Same,2,1,low,132,0.94,82,1.24,82,1.59,Yes,quiteSure,hit,1.2146892547607422,NA
217,t#jc019,False,202,1,equal,ST2_high_1_a1,P = T2?,Same,2,1,high,82,1.28,112,0.97,112,1.14,Yes,unsure,hit,4.697974920272827,NA
218,t#jc019,False,203,1,equal,ST1_high_3_a2,P = T2?,Same,1,2,high,70,1.45,96,1.09,70,1.6,Yes,unsure,fa,4.522858381271362,NA
219,t#jc019,False,204,1,equal,ST2_low_3_a1,P = T1?,Same,2,1,low,70,1.57,112,1.14,112,0.94,No,quiteSure,cr,1.796316385269165,NA
220,t#jc019,False,205,1,equal,ST1_low_3_a2,P = T2?,Same,1,2,low,70,1.59,112,1.02,70,1.74,No,quiteSure,cr,2.773322820663452,NA
221,t#jc019,False,206,1,equal,ST2_low_4_a1,P = T2?,Same,2,1,low,112,1.15,70,1.84,70,1.4,Yes,sure,hit,1.616739273071289,NA
222,t#jc019,False,207,1,equal,ST1_high_1_a2,P = T2?,Same,1,2,high,82,1.28,112,1.22,82,1.34,No,sure,cr,3.3877830505371094,NA
223,t#jc019,False,208,1,equal,ST2_low_5_a2,P = T1?,Same,2,2,low,96,1.19,154,0.76,154,0.77,No,sure,cr,1.8101463317871094,NA
224,t#jc019,False,209,1,equal,ST2_low_1_a2,P = T1?,Same,2,2,low,82,1.38,132,1.01,132,0.86,No,sure,cr,2.0743799209594727,NA
225,t#jc019,False,210,1,equal,ST1_high_1_a2,P = T1?,Same,1,2,high,82,1.55,112,1.15,82,1.51,Yes,sure,hit,1.3881540298461914,NA
226,t#jc019,False,211,1,equal,ST2_low_4_a1,P = T1?,Same,2,1,low,112,1.18,70,1.74,70,1.55,No,sure,cr,4.555809020996094,NA
227,t#jc019,False,212,1,equal,ST2_high_4_a1,P = T2?,Same,2,1,high,96,1.08,70,1.53,70,1.44,Yes,sure,hit,3.423311710357666,NA
228,t#jc019,False,213,1,equal,ST2_low_4_a2,P = T1?,Same,2,2,low,112,1.22,70,1.5,70,1.69,No,sure,cr,2.519779682159424,NA
229,t#jc019,False,214,1,equal,ST2_low_5_a1,P = T2?,Same,2,1,low,96,1.27,154,0.81,154,0.81,Yes,sure,hit,1.4743833541870117,NA
230,t#jc019,False,215,1,equal,ST1_low_5_a2,P = T2?,Same,1,2,low,96,1.28,154,0.84,96,1.38,No,sure,cr,1.6028947830200195,NA
231,t#jc019,False,216,1,equal,ST1_low_5_a1,P = T1?,Same,1,1,low,96,1.34,154,0.78,96,1.35,Yes,sure,hit,2.0607850551605225,NA
232,t#jc019,False,217,1,equal,STb_8_a2,P = T2?,Same,0,2,None,180,0.75,180,0.9,180,0.71,Yes,sure,hit,0.9733555316925049,NA
233,t#jc019,False,218,1,equal,ST2_low_1_a1,P = T1?,Same,2,1,low,82,1.49,132,0.91,132,0.91,No,sure,cr,1.497497797012329,NA
234,t#jc019,False,219,1,equal,DT2_high_4_a2,P = T2?,Different,2,2,high,96,1.23,70,1.47,60,1.95,Yes,sure,hit,2.007455825805664,NA
235,t#jc019,False,220,1,equal,ST2_high_3_a1,P = T1?,Same,2,1,high,70,1.48,96,1.29,96,1.4,No,unsure,cr,2.019928455352783,NA
236,t#jc019,False,221,1,equal,ST2_high_3_a2,P = T1?,Same,2,2,high,70,1.79,96,1.34,96,1.2,Yes,quiteSure,fa,1.787017822265625,NA
237,t#jc019,False,222,1,equal,ST2_low_2_a1,P = T1?,Same,2,1,low,132,0.95,82,1.34,82,1.51,No,sure,cr,3.168501615524292,NA
238,t#jc019,False,223,1,equal,ST2_low_6_a2,P = T2?,Same,2,2,low,154,0.84,96,1.07,96,1.13,Yes,sure,hit,2.692737102508545,NA
239,t#jc019,False,224,1,equal,ST2_low_2_a2,P = T2?,Same,2,2,low,132,0.85,82,1.5,82,1.52,Yes,sure,hit,2.2756481170654297,NA
240,t#jc019,False,225,1,equal,ST1_low_6_a1,P = T2?,Same,1,1,low,154,0.92,96,1.33,154,0.77,No,sure,cr,3.4283604621887207,NA
241,t#jc019,False,226,1,equal,ST2_low_3_a1,P = T2?,Same,2,1,low,70,1.77,112,1.17,112,1.11,Yes,sure,hit,1.4827289581298828,NA
242,t#jc019,False,227,1,equal,ST2_high_1_a2,P = T2?,Same,2,2,high,82,1.57,112,1.04,112,1.01,Yes,quiteSure,hit,1.37276291847229,NA
243,t#jc019,False,228,1,equal,ST1_high_2_a2,P = T1?,Same,1,2,high,112,1.17,82,1.26,112,1.12,Yes,sure,hit,1.4336917400360107,NA
244,t#jc019,False,229,1,equal,ST1_high_5_a1,P = T2?,Same,1,1,high,96,1.32,132,0.85,96,1.39,No,quiteSure,cr,1.8590319156646729,NA
245,t#jc019,False,230,1,equal,ST2_high_5_a2,P = T2?,Same,2,2,high,96,1.26,132,0.87,132,0.97,Yes,unsure,hit,1.6331031322479248,NA
246,t#jc019,False,231,1,equal,ST2_low_2_a1,P = T1?,Same,2,1,low,132,0.88,82,1.37,82,1.37,No,sure,cr,3.097917318344116,NA
247,t#jc019,False,232,1,equal,ST2_low_6_a1,P = T2?,Same,2,1,low,154,0.88,96,1.42,96,1.28,Yes,sure,hit,1.8080532550811768,NA
248,t#jc019,False,233,1,equal,ST1_low_1_a2,P = T2?,Same,1,2,low,82,1.48,132,1.03,82,1.28,No,sure,cr,1.477970838546753,NA
249,t#jc019,False,234,1,equal,ST2_low_6_a1,P = T1?,Same,2,1,low,154,0.91,96,1.47,96,1.23,No,sure,cr,1.6012864112854004,NA
250,t#jc019,False,235,1,equal,ST2_low_2_a1,P = T1?,Same,2,1,low,132,0.86,82,1.61,82,1.4,No,sure,cr,1.7403419017791748,NA
251,t#jc019,False,236,1,equal,ST2_high_3_a1,P = T1?,Same,2,1,high,70,1.44,96,1.11,96,1.21,Yes,sure,fa,1.2937307357788086,NA
252,t#jc019,False,237,1,equal,ST1_high_1_a1,P = T1?,Same,1,1,high,82,1.47,112,1.12,82,1.35,Yes,sure,hit,1.3861629962921143,NA
253,t#jc019,False,238,1,equal,ST2_high_3_a2,P = T1?,Same,2,2,high,70,1.71,96,1.23,96,1.15,Yes,unsure,fa,1.3416202068328857,NA
254,t#jc019,False,239,1,equal,STb_1_a1,P = T1?,Same,0,1,None,60,1.89,60,2.03,60,1.53,Yes,unsure,hit,1.2231614589691162,NA
255,t#jc019,False,240,1,equal,ST1_low_3_a2,P = T1?,Same,1,2,low,70,1.77,112,1.15,70,1.38,Yes,unsure,hit,2.5005412101745605,NA
256,t#jc019,False,241,1,equal,ST1_high_1_a1,P = T1?,Same,1,1,high,82,1.42,112,0.96,82,1.48,Yes,unsure,hit,1.154414176940918,NA
257,t#jc019,False,242,1,equal,ST1_low_2_a1,P = T2?,Same,1,1,low,132,1.05,82,1.42,132,0.8,No,sure,cr,2.5829622745513916,NA
258,t#jc019,False,243,1,equal,DT2_low_4_a2,P = T2?,Different,2,2,low,112,1.19,70,1.49,60,1.76,Yes,sure,hit,1.842419147491455,NA
259,t#jc019,False,244,1,equal,ST1_low_1_a1,P = T2?,Same,1,1,low,82,1.25,132,0.89,82,1.55,No,sure,cr,1.684194564819336,NA
260,t#jc019,False,245,1,equal,ST2_low_4_a1,P = T1?,Same,2,1,low,112,1.15,70,1.84,70,1.49,No,sure,cr,1.8908190727233887,NA
261,t#jc019,False,246,1,equal,ST1_low_4_a1,P = T2?,Same,1,1,low,112,0.98,70,1.45,112,1.16,No,sure,cr,1.45786714553833,NA
262,t#jc019,False,247,1,equal,ST1_high_6_a1,P = T1?,Same,1,1,high,132,0.99,96,1.12,132,0.99,Yes,sure,hit,1.1628799438476562,NA
263,t#jc019,False,248,1,equal,ST2_high_5_a2,P = T1?,Same,2,2,high,96,1.4,132,1.04,132,0.96,Yes,unsure,fa,2.6017158031463623,NA
264,t#jc019,False,249,1,equal,ST2_low_3_a1,P = T2?,Same,2,1,low,70,1.84,112,0.93,112,1.07,Yes,quiteSure,hit,4.300836563110352,NA
265,t#jc019,False,250,1,equal,ST1_high_6_a2,P = T1?,Same,1,2,high,132,1.0,96,1.37,132,0.81,Yes,quiteSure,hit,1.2801916599273682,NA
266,t#jc019,False,251,1,equal,ST1_high_4_a1,P = T2?,Same,1,1,high,96,1.41,70,1.77,96,1.16,No,sure,cr,2.686084747314453,NA
267,t#jc019,False,252,1,equal,ST2_high_4_a1,P = T2?,Same,2,1,high,96,1.18,70,1.61,70,1.38,Yes,sure,hit,1.270103931427002,NA
268,t#jc019,False,253,1,equal,ST1_low_2_a1,P = T2?,Same,1,1,low,132,0.94,82,1.36,132,0.93,No,sure,cr,2.010514974594116,NA
269,t#jc019,False,254,1,equal,ST1_low_3_a2,P = T1?,Same,1,2,low,70,1.4,112,0.93,70,1.49,Yes,unsure,hit,2.865004062652588,NA
270,t#jc019,False,255,1,equal,ST2_high_1_a1,P = T1?,Same,2,1,high,82,1.57,112,1.08,112,1.13,No,unsure,cr,3.599252462387085,NA
271,t#jc019,False,256,1,equal,ST1_high_5_a1,P = T1?,Same,1,1,high,96,1.33,132,1.01,96,1.3,No,unsure,miss,2.5994279384613037,NA
272,t#jc019,False,257,1,equal,ST1_high_4_a2,P = T1?,Same,1,2,high,96,1.37,70,1.39,96,1.33,No,unsure,miss,2.386997938156128,NA
273,t#jc019,False,258,1,equal,ST1_low_4_a1,P = T1?,Same,1,1,low,112,1.02,70,1.48,112,0.97,Yes,unsure,hit,2.2071073055267334,NA
274,t#jc019,False,259,1,equal,DT1_high_5_a1,P = T1?,Different,1,1,high,96,1.11,132,1.02,82,1.27,Yes,unsure,hit,2.500023365020752,NA
275,t#jc019,False,260,1,equal,ST2_high_6_a1,P = T2?,Same,2,1,high,132,0.91,96,1.08,96,1.06,Yes,sure,hit,1.7089159488677979,NA
276,t#jc019,False,261,1,equal,ST2_low_6_a2,P = T2?,Same,2,2,low,154,0.83,96,1.07,96,1.39,Yes,quiteSure,hit,1.281522512435913,NA
277,t#jc019,False,262,1,equal,ST2_high_4_a2,P = T1?,Same,2,2,high,96,1.21,70,1.74,70,1.72,No,sure,cr,1.808537244796753,NA
278,t#jc019,False,263,1,equal,ST2_low_2_a2,P = T1?,Same,2,2,low,132,0.9,82,1.52,82,1.3,No,sure,cr,1.3889069557189941,NA
279,t#jc019,False,264,1,equal,ST1_high_6_a1,P = T2?,Same,1,1,high,132,0.82,96,1.39,132,0.82,No,unsure,cr,2.2166976928710938,NA
280,t#jc019,False,265,1,equal,ST2_high_1_a1,P = T2?,Same,2,1,high,82,1.26,112,1.06,112,1.1,Yes,unsure,hit,1.3792545795440674,NA
281,t#jc019,False,266,1,equal,ST2_low_1_a2,P = T1?,Same,2,2,low,82,1.39,132,0.9,132,0.96,No,unsure,cr,1.9435172080993652,NA
282,t#jc019,False,267,1,equal,ST2_low_3_a2,P = T2?,Same,2,2,low,70,1.69,112,1.03,112,0.87,Yes,quiteSure,hit,3.119668483734131,NA
283,t#jc019,False,268,1,equal,ST1_high_2_a2,P = T1?,Same,1,2,high,112,1.27,82,1.73,112,1.16,Yes,sure,hit,1.5837419033050537,NA
284,t#jc019,False,269,1,equal,ST1_high_2_a1,P = T1?,Same,1,1,high,112,1.11,82,1.3,112,0.96,No,unsure,miss,4.112446308135986,NA
285,t#jc019,False,270,1,equal,ST1_high_4_a2,P = T1?,Same,1,2,high,96,1.33,70,1.72,96,1.06,Yes,unsure,hit,2.53991436958313,NA
286,t#jc019,False,271,1,equal,STb_6_a1,P = T2?,Same,0,1,None,132,1.01,132,1.04,132,0.87,Yes,unsure,hit,2.075502395629883,NA
287,t#jc019,False,272,1,equal,ST1_low_4_a2,P = T1?,Same,1,2,low,112,1.02,70,1.6,112,1.07,Yes,sure,hit,1.303666114807129,NA
288,t#jc019,False,273,1,equal,ST2_high_3_a2,P = T2?,Same,2,2,high,70,1.76,96,1.37,96,1.35,Yes,unsure,hit,1.6019089221954346,NA
289,t#jc019,False,274,1,equal,DT1_low_4_a1,P = T2?,Different,1,1,low,112,1.06,70,1.51,132,0.94,No,sure,cr,3.3731987476348877,NA
290,t#jc019,False,275,1,equal,ST1_low_4_a2,P = T2?,Same,1,2,low,112,0.97,70,1.72,112,1.08,No,sure,cr,2.9718267917633057,NA
291,t#jc019,False,276,1,equal,ST2_low_6_a2,P = T1?,Same,2,2,low,154,0.9,96,1.42,96,1.32,No,unsure,cr,2.696284532546997,NA
292,t#jc019,False,277,1,equal,DT1_high_2_a1,P = T2?,Different,1,1,high,112,0.92,82,1.5,132,0.9,No,unsure,cr,3.055032968521118,NA
293,t#jc019,False,278,1,equal,ST1_low_5_a2,P = T2?,Same,1,2,low,96,1.16,154,0.82,96,1.26,No,quiteSure,cr,3.342207908630371,NA
294,t#jc019,False,279,1,equal,ST2_high_1_a2,P = T1?,Same,2,2,high,82,1.57,112,0.99,112,1.11,No,sure,cr,2.4119789600372314,NA
295,t#jc019,False,280,1,equal,STb_5_a1,P = T2?,Same,0,1,None,112,1.06,112,1.1,112,1.06,Yes,quiteSure,hit,1.3909146785736084,NA
296,t#jc019,False,281,1,equal,ST2_high_4_a1,P = T1?,Same,2,1,high,96,1.15,70,1.58,70,1.82,No,sure,cr,2.658102512359619,NA
297,t#jc019,False,282,1,equal,ST2_low_3_a2,P = T2?,Same,2,2,low,70,1.52,112,1.18,112,0.92,Yes,quiteSure,hit,1.806464672088623,NA
298,t#jc019,False,283,1,equal,ST1_high_3_a1,P = T1?,Same,1,1,high,70,1.79,96,1.08,70,1.4,Yes,unsure,hit,1.7432036399841309,NA
299,t#jc019,False,284,1,equal,ST1_high_1_a1,P = T1?,Same,1,1,high,82,1.37,112,1.1,82,1.64,Yes,unsure,hit,1.2301969528198242,NA
300,t#jc019,False,285,1,equal,ST2_high_4_a2,P = T2?,Same,2,2,high,96,1.28,70,1.37,70,1.62,Yes,quiteSure,hit,1.7910480499267578,NA
301,t#jc019,False,286,1,equal,ST1_low_3_a1,P = T2?,Same,1,1,low,70,1.4,112,1.17,70,1.57,No,sure,cr,2.3195736408233643,NA
302,t#jc019,False,287,1,equal,ST2_low_6_a1,P = T1?,Same,2,1,low,154,0.86,96,1.16,96,1.25,No,unsure,cr,2.0561745166778564,NA
303,t#jc019,False,288,1,equal,ST2_high_1_a1,P = T2?,Same,2,1,high,82,1.47,112,0.99,112,0.97,Yes,sure,hit,1.460707426071167,NA
304,t#jc019,False,289,1,equal,ST1_low_2_a2,P = T2?,Same,1,2,low,132,0.99,82,1.34,132,0.87,No,sure,cr,2.243608236312866,NA
305,t#jc019,False,290,1,equal,ST2_low_3_a2,P = T2?,Same,2,2,low,70,1.54,112,1.11,112,1.1,Yes,unsure,hit,1.6228840351104736,NA
306,t#jc019,False,291,1,equal,ST1_high_6_a1,P = T1?,Same,1,1,high,132,0.97,96,1.19,132,0.95,Yes,quiteSure,hit,1.839869737625122,NA
307,t#jc019,False,292,1,equal,ST1_high_6_a1,P = T2?,Same,1,1,high,132,0.97,96,1.34,132,0.93,No,sure,cr,1.4368271827697754,NA
308,t#jc019,False,293,1,equal,ST2_high_5_a1,P = T2?,Same,2,1,high,96,1.14,132,0.87,132,0.89,Yes,sure,hit,1.8567252159118652,NA
309,t#jc019,False,294,1,equal,ST1_high_3_a1,P = T1?,Same,1,1,high,70,1.63,96,1.33,70,1.75,Yes,sure,hit,2.115320920944214,NA
310,t#jc019,False,295,1,equal,ST2_low_2_a1,P = T2?,Same,2,1,low,132,1.04,82,1.38,82,1.22,Yes,sure,hit,1.2638659477233887,NA
311,t#jc019,False,296,1,equal,ST1_high_1_a1,P = T2?,Same,1,1,high,82,1.21,112,1.01,82,1.49,No,unsure,cr,2.574195623397827,NA
312,t#jc019,False,297,1,equal,ST2_low_1_a2,P = T2?,Same,2,2,low,82,1.25,132,1.04,132,0.84,Yes,sure,hit,1.561051607131958,NA
313,t#jc019,False,298,1,equal,ST2_high_2_a1,P = T1?,Same,2,1,high,112,0.94,82,1.35,82,1.26,Yes,unsure,fa,1.299410343170166,NA
314,t#jc019,False,299,1,equal,ST1_low_1_a1,P = T1?,Same,1,1,low,82,1.59,132,0.97,82,1.63,Yes,sure,hit,1.3146255016326904,NA
315,t#jc019,False,300,1,equal,ST1_low_5_a2,P = T2?,Same,1,2,low,96,1.42,154,0.73,96,1.06,No,sure,cr,1.9708526134490967,NA
316,t#jc019,False,301,1,equal,ST1_low_5_a2,P = T1?,Same,1,2,low,96,1.29,154,0.83,96,1.24,Yes,sure,hit,2.26027250289917,NA
317,t#jc019,False,302,1,equal,ST1_low_3_a1,P = T2?,Same,1,1,low,70,1.54,112,1.17,70,1.58,No,sure,cr,1.303971529006958,NA
318,t#jc019,False,303,1,equal,DT2_low_3_a2,P = T1?,Different,2,2,low,70,1.82,112,0.99,132,0.94,No,unsure,cr,1.7274456024169922,NA
319,t#jc019,False,304,1,equal,DT1_high_1_a1,P = T1?,Different,1,1,high,82,1.22,112,1.19,70,1.83,Yes,sure,hit,2.371140718460083,NA
320,t#jc019,False,305,1,equal,ST1_low_2_a2,P = T1?,Same,1,2,low,132,1.03,82,1.59,132,0.85,Yes,sure,hit,1.0832009315490723,NA
321,t#jc019,False,306,1,equal,ST2_high_1_a2,P = T2?,Same,2,2,high,82,1.33,112,1.14,112,1.22,Yes,sure,hit,1.238018274307251,NA
322,t#jc019,False,307,1,equal,ST1_high_2_a1,P = T1?,Same,1,1,high,112,1.02,82,1.43,112,1.16,Yes,sure,hit,1.0988445281982422,NA
323,t#jc019,False,308,1,equal,ST2_high_2_a1,P = T2?,Same,2,1,high,112,0.95,82,1.22,82,1.36,Yes,sure,hit,1.8164350986480713,NA
324,t#jc019,False,309,1,equal,ST2_low_6_a2,P = T2?,Same,2,2,low,154,0.86,96,1.36,96,1.4,Yes,sure,hit,1.6036522388458252,NA
325,t#jc019,False,310,1,equal,ST2_low_3_a1,P = T2?,Same,2,1,low,70,1.44,112,1.1,112,0.94,Yes,sure,hit,1.2097046375274658,NA
326,t#jc019,False,311,1,equal,ST2_low_1_a1,P = T2?,Same,2,1,low,82,1.4,132,1.02,132,0.79,Yes,sure,hit,1.1349902153015137,NA
327,t#jc019,False,312,1,equal,ST1_low_5_a1,P = T1?,Same,1,1,low,96,1.46,154,0.83,96,1.18,Yes,sure,hit,3.5958073139190674,NA
328,t#jc019,False,313,1,equal,ST1_high_3_a2,P = T1?,Same,1,2,high,70,1.7,96,1.16,70,1.46,Yes,sure,hit,1.5114219188690186,NA
329,t#jc019,False,314,1,equal,ST1_high_5_a2,P = T2?,Same,1,2,high,96,1.41,132,0.88,96,1.12,No,unsure,cr,1.6688547134399414,NA
330,t#jc019,False,315,1,equal,ST2_low_6_a2,P = T1?,Same,2,2,low,154,0.71,96,1.22,96,1.2,Yes,sure,fa,1.2914845943450928,NA
331,t#jc019,False,316,1,equal,ST1_high_1_a1,P = T2?,Same,1,1,high,82,1.37,112,1.18,82,1.3,No,sure,cr,1.4710617065429688,NA
332,t#jc019,False,317,1,equal,ST1_high_3_a2,P = T2?,Same,1,2,high,70,1.56,96,1.25,70,1.43,No,sure,cr,1.4212746620178223,NA
333,t#jc019,False,318,1,equal,DT1_high_6_a2,P = T1?,Different,1,2,high,132,0.96,96,1.26,154,0.88,Yes,unsure,hit,2.8411684036254883,NA
334,t#jc019,False,319,1,equal,ST1_low_6_a1,P = T1?,Same,1,1,low,154,0.85,96,1.31,154,0.82,Yes,unsure,hit,1.1218807697296143,NA
335,t#jc019,False,320,1,equal,ST1_high_2_a1,P = T2?,Same,1,1,high,112,1.21,82,1.39,112,0.98,No,sure,cr,1.472168207168579,0.75
