,pcode,practice,trial,block,questionType,condition,question,PTS,TargetPosition,AccessoryPosition,TNS,T1_hz,T1_amp,T2_hz,T2_amp,P_hz,P_amp,response_dicho,response_rating,response_sdt,rt,P_correct
0,w0ep#21,True,1,1,equal,DT1_high_5_a2,P = T1?,Different,1,2,high,96,1.26,132,0.94,82,1.29,No,quiteSure,miss,3.59818172454834,NA
1,w0ep#21,True,2,1,equal,ST1_low_4_a1,P = T2?,Same,1,1,low,112,1.01,70,1.76,112,1.28,No,quiteSure,cr,2.65726900100708,NA
2,w0ep#21,True,3,1,equal,ST1_high_2_a1,P = T1?,Same,1,1,high,112,0.9,82,1.41,112,1.09,Yes,quiteSure,hit,1.9810011386871338,NA
3,w0ep#21,True,4,1,equal,DT2_high_4_a2,P = T2?,Different,2,2,high,96,1.41,70,1.78,60,2.02,Yes,quiteSure,hit,1.352097988128662,NA
4,w0ep#21,True,5,1,equal,STb_7_a2,P = T1?,Same,0,2,None,154,0.97,154,0.91,154,0.9,Yes,sure,hit,1.4371402263641357,NA
5,w0ep#21,True,6,1,equal,ST1_low_4_a2,P = T2?,Same,1,2,low,112,1.17,70,1.36,112,1.03,No,quiteSure,cr,1.5983009338378906,NA
6,w0ep#21,True,7,1,equal,DT2_low_3_a2,P = T2?,Different,2,2,low,70,1.67,112,1.22,132,0.92,No,quiteSure,miss,2.410675287246704,NA
7,w0ep#21,True,8,1,equal,ST2_high_1_a1,P = T2?,Same,2,1,high,82,1.25,112,0.99,112,1.14,Yes,quiteSure,hit,1.3514378070831299,NA
8,w0ep#21,True,9,1,equal,STb_4_a2,P = T2?,Same,0,2,None,96,1.09,96,1.35,96,1.28,Yes,quiteSure,hit,1.4423160552978516,NA
9,w0ep#21,True,10,1,equal,STb_5_a2,P = T2?,Same,0,2,None,112,1.01,112,1.22,112,1.01,Yes,quiteSure,hit,0.9704480171203613,NA
10,w0ep#21,True,11,1,equal,ST2_low_5_a1,P = T1?,Same,2,1,low,96,1.32,154,0.76,154,0.8,No,quiteSure,cr,1.668666124343872,NA
11,w0ep#21,True,12,1,equal,DT2_high_3_a1,P = T1?,Different,2,1,high,70,1.54,96,1.28,112,0.98,No,quiteSure,cr,1.5094728469848633,NA
12,w0ep#21,True,13,1,equal,ST2_low_3_a2,P = T1?,Same,2,2,low,70,1.59,112,1.26,112,0.93,No,quiteSure,cr,1.91373610496521,NA
13,w0ep#21,True,14,1,equal,ST2_high_4_a1,P = T2?,Same,2,1,high,96,1.08,70,1.37,70,1.65,Yes,quiteSure,hit,1.3977530002593994,NA
14,w0ep#21,True,15,1,equal,STb_3_a1,P = T1?,Same,0,1,None,82,1.48,82,1.84,82,1.65,Yes,quiteSure,hit,1.7544569969177246,NA
15,w0ep#21,True,16,1,equal,ST1_high_6_a2,P = T1?,Same,1,2,high,132,1.01,96,1.44,132,0.87,Yes,quiteSure,hit,1.126211166381836,0.75
16,w0ep#21,False,1,1,equal,ST2_low_3_a1,P = T1?,Same,2,1,low,70,1.8,112,1.12,112,1.13,No,sure,cr,1.7616171836853027,NA
17,w0ep#21,False,2,1,equal,ST1_low_3_a2,P = T1?,Same,1,2,low,70,1.55,112,1.05,70,1.47,Yes,quiteSure,hit,1.911280870437622,NA
18,w0ep#21,False,3,1,equal,ST1_low_3_a1,P = T2?,Same,1,1,low,70,1.58,112,1.16,70,1.78,No,quiteSure,cr,1.4460878372192383,NA
19,w0ep#21,False,4,1,equal,ST1_low_5_a1,P = T1?,Same,1,1,low,96,1.18,154,0.86,96,1.38,Yes,quiteSure,hit,1.3247718811035156,NA
20,w0ep#21,False,5,1,equal,ST1_low_5_a1,P = T1?,Same,1,1,low,96,1.4,154,0.84,96,1.08,Yes,sure,hit,2.7457029819488525,NA
21,w0ep#21,False,6,1,equal,ST1_high_2_a1,P = T2?,Same,1,1,high,112,1.22,82,1.27,112,1.04,No,sure,cr,2.204843044281006,NA
22,w0ep#21,False,7,1,equal,ST1_low_3_a1,P = T1?,Same,1,1,low,70,1.55,112,1.0,70,1.37,Yes,quiteSure,hit,1.9139230251312256,NA
23,w0ep#21,False,8,1,equal,ST2_low_6_a2,P = T2?,Same,2,2,low,154,0.8,96,1.34,96,1.19,Yes,sure,hit,2.4967353343963623,NA
24,w0ep#21,False,9,1,equal,ST2_high_5_a1,P = T1?,Same,2,1,high,96,1.21,132,0.91,132,1.03,No,sure,cr,4.906342029571533,NA
25,w0ep#21,False,10,1,equal,ST1_high_4_a1,P = T1?,Same,1,1,high,96,1.1,70,1.56,96,1.06,Yes,quiteSure,hit,1.8462021350860596,NA
26,w0ep#21,False,11,1,equal,ST1_high_4_a2,P = T2?,Same,1,2,high,96,1.15,70,1.8,96,1.06,No,sure,cr,3.3941519260406494,NA
27,w0ep#21,False,12,1,equal,ST1_high_1_a1,P = T1?,Same,1,1,high,82,1.34,112,0.94,82,1.5,No,sure,miss,2.0903379917144775,NA
28,w0ep#21,False,13,1,equal,ST1_high_2_a2,P = T1?,Same,1,2,high,112,1.2,82,1.56,112,1.18,Yes,quiteSure,hit,1.530864953994751,NA
29,w0ep#21,False,14,1,equal,ST2_low_2_a2,P = T1?,Same,2,2,low,132,0.81,82,1.5,82,1.37,No,sure,cr,1.5748522281646729,NA
30,w0ep#21,False,15,1,equal,ST1_low_3_a1,P = T1?,Same,1,1,low,70,1.6,112,1.16,70,1.54,Yes,quiteSure,hit,3.8453662395477295,NA
31,w0ep#21,False,16,1,equal,ST2_high_6_a2,P = T1?,Same,2,2,high,132,0.83,96,1.32,96,1.08,No,sure,cr,4.793241024017334,NA
32,w0ep#21,False,17,1,equal,ST2_low_3_a1,P = T1?,Same,2,1,low,70,1.8,112,1.05,112,1.19,No,sure,cr,2.294451951980591,NA
33,w0ep#21,False,18,1,equal,ST2_high_3_a1,P = T2?,Same,2,1,high,70,1.84,96,1.19,96,1.32,Yes,sure,hit,1.462846040725708,NA
34,w0ep#21,False,19,1,equal,ST2_low_5_a2,P = T2?,Same,2,2,low,96,1.42,154,0.89,154,0.86,Yes,sure,hit,1.9564058780670166,NA
35,w0ep#21,False,20,1,equal,STb_1_a2,P = T2?,Same,0,2,None,60,1.95,60,1.84,60,1.78,Yes,sure,hit,2.187559127807617,NA
36,w0ep#21,False,21,1,equal,ST2_low_1_a2,P = T2?,Same,2,2,low,82,1.23,132,1.03,132,0.89,Yes,unsure,hit,2.8528449535369873,NA
37,w0ep#21,False,22,1,equal,ST1_high_6_a1,P = T1?,Same,1,1,high,132,0.93,96,1.29,132,1.04,Yes,unsure,hit,2.2685046195983887,NA
38,w0ep#21,False,23,1,equal,ST1_high_6_a2,P = T1?,Same,1,2,high,132,1.01,96,1.44,132,0.87,Yes,quiteSure,hit,2.181421995162964,NA
39,w0ep#21,False,24,1,equal,DT1_low_6_a1,P = T2?,Different,1,1,low,154,0.93,96,1.4,180,0.93,No,sure,cr,2.361294746398926,NA
40,w0ep#21,False,25,1,equal,ST2_low_4_a1,P = T1?,Same,2,1,low,112,1.09,70,1.61,70,1.73,No,sure,cr,3.691930055618286,NA
41,w0ep#21,False,26,1,equal,ST2_high_2_a1,P = T2?,Same,2,1,high,112,1.21,82,1.36,82,1.43,Yes,sure,hit,1.6420817375183105,NA
42,w0ep#21,False,27,1,equal,ST2_low_5_a2,P = T1?,Same,2,2,low,96,1.29,154,0.81,154,0.95,No,sure,cr,4.205703973770142,NA
43,w0ep#21,False,28,1,equal,ST2_low_6_a1,P = T1?,Same,2,1,low,154,0.94,96,1.28,96,1.38,No,sure,cr,3.781597137451172,NA
44,w0ep#21,False,29,1,equal,ST1_low_1_a1,P = T2?,Same,1,1,low,82,1.39,132,1.01,82,1.31,No,sure,cr,4.210257053375244,NA
45,w0ep#21,False,30,1,equal,ST2_low_1_a2,P = T1?,Same,2,2,low,82,1.47,132,0.88,132,0.8,No,sure,cr,2.4093329906463623,NA
46,w0ep#21,False,31,1,equal,STb_5_a1,P = T2?,Same,0,1,None,112,1.23,112,1.07,112,1.2,Yes,sure,hit,1.5725860595703125,NA
47,w0ep#21,False,32,1,equal,ST1_high_1_a1,P = T2?,Same,1,1,high,82,1.22,112,1.12,82,1.61,No,sure,cr,3.9342846870422363,NA
48,w0ep#21,False,33,1,equal,DT2_high_1_a2,P = T2?,Different,2,2,high,82,1.6,112,1.06,132,0.95,No,sure,miss,1.326462984085083,NA
49,w0ep#21,False,34,1,equal,ST1_high_5_a1,P = T2?,Same,1,1,high,96,1.33,132,1.05,96,1.06,No,sure,cr,1.2142341136932373,NA
50,w0ep#21,False,35,1,equal,ST1_high_1_a2,P = T1?,Same,1,2,high,82,1.24,112,0.91,82,1.24,Yes,unsure,hit,3.6892948150634766,NA
51,w0ep#21,False,36,1,equal,ST2_high_3_a2,P = T1?,Same,2,2,high,70,1.84,96,1.15,96,1.34,No,sure,cr,4.814654111862183,NA
52,w0ep#21,False,37,1,equal,ST1_low_1_a1,P = T1?,Same,1,1,low,82,1.26,132,0.82,82,1.55,Yes,quiteSure,hit,1.5306990146636963,NA
53,w0ep#21,False,38,1,equal,ST1_low_2_a1,P = T1?,Same,1,1,low,132,0.79,82,1.4,132,0.79,Yes,quiteSure,hit,4.679100751876831,NA
54,w0ep#21,False,39,1,equal,ST1_low_1_a2,P = T1?,Same,1,2,low,82,1.23,132,0.88,82,1.42,Yes,unsure,hit,4.249689817428589,NA
55,w0ep#21,False,40,1,equal,ST1_high_3_a2,P = T1?,Same,1,2,high,70,1.38,96,1.26,70,1.69,Yes,unsure,hit,3.171515941619873,NA
56,w0ep#21,False,41,1,equal,ST1_low_6_a1,P = T2?,Same,1,1,low,154,0.75,96,1.27,154,0.95,No,sure,cr,4.612717866897583,NA
57,w0ep#21,False,42,1,equal,ST2_high_5_a2,P = T1?,Same,2,2,high,96,1.14,132,1.01,132,1.04,No,sure,cr,4.926734685897827,NA
58,w0ep#21,False,43,1,equal,ST1_high_5_a1,P = T1?,Same,1,1,high,96,1.42,132,0.81,96,1.28,Yes,quiteSure,hit,4.141979932785034,NA
59,w0ep#21,False,44,1,equal,ST2_low_6_a1,P = T2?,Same,2,1,low,154,0.84,96,1.2,96,1.33,Yes,sure,hit,1.4156339168548584,NA
60,w0ep#21,False,45,1,equal,ST2_high_3_a2,P = T2?,Same,2,2,high,70,1.47,96,1.33,96,1.27,Yes,sure,hit,1.3766751289367676,NA
61,w0ep#21,False,46,1,equal,ST1_low_6_a1,P = T1?,Same,1,1,low,154,0.79,96,1.33,154,0.9,Yes,quiteSure,hit,2.294858932495117,NA
62,w0ep#21,False,47,1,equal,ST2_high_4_a1,P = T1?,Same,2,1,high,96,1.09,70,1.45,70,1.58,No,sure,cr,2.903225898742676,NA
63,w0ep#21,False,48,1,equal,ST1_high_3_a1,P = T1?,Same,1,1,high,70,1.43,96,1.23,70,1.64,Yes,quiteSure,hit,2.2677619457244873,NA
64,w0ep#21,False,49,1,equal,ST1_low_1_a1,P = T2?,Same,1,1,low,82,1.4,132,0.82,82,1.3,No,sure,cr,2.4537320137023926,NA
65,w0ep#21,False,50,1,equal,ST1_low_2_a2,P = T2?,Same,1,2,low,132,0.9,82,1.3,132,1.03,No,sure,cr,2.269648790359497,NA
66,w0ep#21,False,51,1,equal,ST1_low_6_a2,P = T2?,Same,1,2,low,154,0.77,96,1.23,154,0.75,No,sure,cr,2.587736129760742,NA
67,w0ep#21,False,52,1,equal,ST2_high_1_a1,P = T1?,Same,2,1,high,82,1.38,112,1.0,112,1.01,No,sure,cr,4.070482015609741,NA
68,w0ep#21,False,53,1,equal,DT1_low_4_a2,P = T1?,Different,1,2,low,112,1.13,70,1.81,132,1.02,No,sure,miss,1.3728630542755127,NA
69,w0ep#21,False,54,1,equal,ST2_high_5_a1,P = T1?,Same,2,1,high,96,1.36,132,1.05,132,0.81,No,sure,cr,2.2729132175445557,NA
70,w0ep#21,False,55,1,equal,ST1_high_3_a1,P = T2?,Same,1,1,high,70,1.55,96,1.41,70,1.48,No,sure,cr,1.8439500331878662,NA
71,w0ep#21,False,56,1,equal,ST2_high_2_a2,P = T2?,Same,2,2,high,112,1.01,82,1.61,82,1.25,Yes,quiteSure,hit,1.5295238494873047,NA
72,w0ep#21,False,57,1,equal,ST1_low_6_a2,P = T1?,Same,1,2,low,154,0.79,96,1.26,154,0.88,Yes,quiteSure,hit,2.8860111236572266,NA
73,w0ep#21,False,58,1,equal,ST2_low_6_a1,P = T2?,Same,2,1,low,154,0.85,96,1.39,96,1.1,Yes,sure,hit,1.3244719505310059,NA
74,w0ep#21,False,59,1,equal,ST1_low_4_a1,P = T1?,Same,1,1,low,112,1.22,70,1.57,112,0.94,Yes,quiteSure,hit,2.699320077896118,NA
75,w0ep#21,False,60,1,equal,ST2_low_1_a2,P = T2?,Same,2,2,low,82,1.37,132,0.86,132,0.89,Yes,quiteSure,hit,1.5734658241271973,NA
76,w0ep#21,False,61,1,equal,ST2_low_1_a2,P = T1?,Same,2,2,low,82,1.58,132,1.06,132,0.97,No,sure,cr,2.898611068725586,NA
77,w0ep#21,False,62,1,equal,ST1_high_3_a1,P = T2?,Same,1,1,high,70,1.7,96,1.31,70,1.75,No,sure,cr,3.3330259323120117,NA
78,w0ep#21,False,63,1,equal,ST1_high_2_a2,P = T2?,Same,1,2,high,112,1.05,82,1.6,112,0.92,No,sure,cr,2.3820059299468994,NA
79,w0ep#21,False,64,1,equal,ST1_high_1_a1,P = T1?,Same,1,1,high,82,1.32,112,1.22,82,1.48,Yes,quiteSure,hit,9.153396844863892,NA
80,w0ep#21,False,65,1,equal,ST1_high_1_a1,P = T1?,Same,1,1,high,82,1.32,112,1.2,82,1.29,Yes,unsure,hit,5.806176662445068,NA
81,w0ep#21,False,66,1,equal,ST2_high_3_a1,P = T1?,Same,2,1,high,70,1.68,96,1.22,96,1.07,No,sure,cr,4.544195890426636,NA
82,w0ep#21,False,67,1,equal,ST1_high_3_a2,P = T1?,Same,1,2,high,70,1.42,96,1.2,70,1.62,Yes,sure,hit,1.326920986175537,NA
83,w0ep#21,False,68,1,equal,ST2_high_4_a2,P = T1?,Same,2,2,high,96,1.12,70,1.77,70,1.51,No,sure,cr,1.4405019283294678,NA
84,w0ep#21,False,69,1,equal,ST2_low_3_a1,P = T2?,Same,2,1,low,70,1.73,112,1.18,112,1.0,Yes,sure,hit,1.6433510780334473,NA
85,w0ep#21,False,70,1,equal,ST2_high_1_a1,P = T2?,Same,2,1,high,82,1.62,112,1.18,112,1.08,Yes,sure,hit,1.260221242904663,NA
86,w0ep#21,False,71,1,equal,ST2_high_4_a2,P = T2?,Same,2,2,high,96,1.31,70,1.85,70,1.75,Yes,sure,hit,1.2388269901275635,NA
87,w0ep#21,False,72,1,equal,ST1_high_6_a1,P = T2?,Same,1,1,high,132,1.04,96,1.15,132,0.83,No,sure,cr,1.7090110778808594,NA
88,w0ep#21,False,73,1,equal,ST1_low_6_a2,P = T1?,Same,1,2,low,154,0.74,96,1.12,154,0.92,Yes,quiteSure,hit,2.609589099884033,NA
89,w0ep#21,False,74,1,equal,ST2_low_2_a2,P = T2?,Same,2,2,low,132,0.92,82,1.32,82,1.33,Yes,unsure,hit,2.539224863052368,NA
90,w0ep#21,False,75,1,equal,ST2_low_4_a1,P = T1?,Same,2,1,low,112,0.99,70,1.78,70,1.79,No,sure,cr,4.565659046173096,NA
91,w0ep#21,False,76,1,equal,ST1_low_4_a1,P = T2?,Same,1,1,low,112,1.21,70,1.72,112,0.94,No,sure,cr,5.218745946884155,NA
92,w0ep#21,False,77,1,equal,ST2_high_6_a1,P = T1?,Same,2,1,high,132,1.01,96,1.16,96,1.36,No,sure,cr,4.115267276763916,NA
93,w0ep#21,False,78,1,equal,ST1_high_1_a2,P = T2?,Same,1,2,high,82,1.47,112,1.21,82,1.35,No,sure,cr,2.291127920150757,NA
94,w0ep#21,False,79,1,equal,ST2_high_6_a2,P = T1?,Same,2,2,high,132,1.0,96,1.27,96,1.25,No,sure,cr,2.8770859241485596,NA
95,w0ep#21,False,80,1,equal,DT2_low_2_a2,P = T1?,Different,2,2,low,132,0.82,82,1.54,70,1.47,No,quiteSure,cr,5.28634786605835,NA
96,w0ep#21,False,81,1,equal,ST1_high_4_a2,P = T1?,Same,1,2,high,96,1.36,70,1.81,96,1.41,Yes,quiteSure,hit,4.163653135299683,NA
97,w0ep#21,False,82,1,equal,ST2_high_4_a1,P = T2?,Same,2,1,high,96,1.13,70,1.6,70,1.79,Yes,sure,hit,1.4367320537567139,NA
98,w0ep#21,False,83,1,equal,ST2_high_3_a1,P = T2?,Same,2,1,high,70,1.68,96,1.31,96,1.27,Yes,sure,hit,1.2811031341552734,NA
99,w0ep#21,False,84,1,equal,ST2_high_6_a2,P = T2?,Same,2,2,high,132,0.95,96,1.32,96,1.12,Yes,unsure,hit,1.9596359729766846,NA
100,w0ep#21,False,85,1,equal,ST2_low_3_a1,P = T2?,Same,2,1,low,70,1.62,112,1.2,112,1.2,Yes,sure,hit,1.0821709632873535,NA
101,w0ep#21,False,86,1,equal,ST1_high_5_a1,P = T2?,Same,1,1,high,96,1.24,132,0.81,96,1.19,No,sure,cr,1.4181621074676514,NA
102,w0ep#21,False,87,1,equal,ST1_low_5_a1,P = T2?,Same,1,1,low,96,1.11,154,0.89,96,1.36,No,sure,cr,2.3450069427490234,NA
103,w0ep#21,False,88,1,equal,ST2_low_5_a2,P = T2?,Same,2,2,low,96,1.2,154,0.78,154,0.91,Yes,sure,hit,1.4589598178863525,NA
104,w0ep#21,False,89,1,equal,ST1_high_5_a2,P = T2?,Same,1,2,high,96,1.17,132,0.96,96,1.27,No,sure,cr,1.171431064605713,NA
105,w0ep#21,False,90,1,equal,ST2_high_6_a2,P = T2?,Same,2,2,high,132,1.05,96,1.14,96,1.31,Yes,sure,hit,1.171095848083496,NA
106,w0ep#21,False,91,1,equal,DT2_low_3_a1,P = T1?,Different,2,1,low,70,1.48,112,1.01,132,0.96,No,quiteSure,cr,1.9370548725128174,NA
107,w0ep#21,False,92,1,equal,ST2_low_5_a2,P = T1?,Same,2,2,low,96,1.22,154,0.88,154,0.87,No,sure,cr,5.063731908798218,NA
108,w0ep#21,False,93,1,equal,ST2_low_1_a2,P = T1?,Same,2,2,low,82,1.5,132,0.93,132,0.99,No,sure,cr,1.2815639972686768,NA
109,w0ep#21,False,94,1,equal,ST1_high_1_a2,P = T2?,Same,1,2,high,82,1.48,112,1.0,82,1.26,No,sure,cr,2.1330502033233643,NA
110,w0ep#21,False,95,1,equal,ST1_high_4_a2,P = T1?,Same,1,2,high,96,1.11,70,1.76,96,1.37,Yes,sure,hit,1.7514660358428955,NA
111,w0ep#21,False,96,1,equal,DT2_low_3_a2,P = T1?,Different,2,2,low,70,1.62,112,1.19,132,0.99,No,sure,cr,2.069126844406128,NA
112,w0ep#21,False,97,1,equal,DT1_high_6_a2,P = T2?,Different,1,2,high,132,0.96,96,1.31,154,0.72,No,sure,cr,1.5084621906280518,NA
113,w0ep#21,False,98,1,equal,ST2_high_4_a1,P = T2?,Same,2,1,high,96,1.08,70,1.37,70,1.65,Yes,sure,hit,1.1257517337799072,NA
114,w0ep#21,False,99,1,equal,ST1_high_4_a1,P = T2?,Same,1,1,high,96,1.4,70,1.65,96,1.12,No,sure,cr,1.6219110488891602,NA
115,w0ep#21,False,100,1,equal,ST1_low_1_a2,P = T1?,Same,1,2,low,82,1.56,132,0.97,82,1.29,Yes,sure,hit,1.39152193069458,NA
116,w0ep#21,False,101,1,equal,ST1_high_5_a2,P = T1?,Same,1,2,high,96,1.32,132,0.91,96,1.22,Yes,unsure,hit,2.0052080154418945,NA
117,w0ep#21,False,102,1,equal,ST2_low_4_a2,P = T2?,Same,2,2,low,112,1.08,70,1.79,70,1.49,Yes,sure,hit,1.193986177444458,NA
118,w0ep#21,False,103,1,equal,ST1_high_2_a1,P = T1?,Same,1,1,high,112,1.04,82,1.49,112,1.2,Yes,unsure,hit,1.8191719055175781,NA
119,w0ep#21,False,104,1,equal,STb_2_a1,P = T1?,Same,0,1,None,70,1.48,70,1.48,70,1.56,Yes,sure,hit,1.8665399551391602,NA
120,w0ep#21,False,105,1,equal,ST2_high_5_a1,P = T2?,Same,2,1,high,96,1.06,132,0.9,132,0.84,Yes,sure,hit,1.0664467811584473,NA
121,w0ep#21,False,106,1,equal,ST2_high_6_a2,P = T2?,Same,2,2,high,132,0.85,96,1.09,96,1.07,Yes,sure,hit,1.7294068336486816,NA
122,w0ep#21,False,107,1,equal,ST2_high_6_a1,P = T2?,Same,2,1,high,132,0.9,96,1.22,96,1.36,Yes,sure,hit,1.2327380180358887,NA
123,w0ep#21,False,108,1,equal,STb_7_a2,P = T1?,Same,0,2,None,154,0.97,154,0.91,154,0.9,Yes,sure,hit,1.0574331283569336,NA
124,w0ep#21,False,109,1,equal,ST2_low_2_a1,P = T2?,Same,2,1,low,132,0.85,82,1.26,82,1.35,Yes,sure,hit,1.0791563987731934,NA
125,w0ep#21,False,110,1,equal,ST2_high_6_a1,P = T2?,Same,2,1,high,132,0.9,96,1.19,96,1.23,Yes,sure,hit,1.0140767097473145,NA
126,w0ep#21,False,111,1,equal,ST1_low_5_a2,P = T1?,Same,1,2,low,96,1.19,154,0.94,96,1.41,Yes,quiteSure,hit,4.186411142349243,NA
127,w0ep#21,False,112,1,equal,ST2_high_1_a1,P = T1?,Same,2,1,high,82,1.35,112,1.01,112,1.14,No,sure,cr,1.4131200313568115,NA
128,w0ep#21,False,113,1,equal,STb_1_a1,P = T1?,Same,0,1,None,60,1.92,60,1.82,60,2.0,Yes,sure,hit,0.7488930225372314,NA
129,w0ep#21,False,114,1,equal,ST2_high_5_a1,P = T2?,Same,2,1,high,96,1.25,132,0.83,132,0.95,Yes,quiteSure,hit,2.091921806335449,NA
130,w0ep#21,False,115,1,equal,ST2_low_2_a1,P = T2?,Same,2,1,low,132,0.99,82,1.52,82,1.26,Yes,sure,hit,1.1478090286254883,NA
131,w0ep#21,False,116,1,equal,ST2_high_5_a2,P = T1?,Same,2,2,high,96,1.14,132,0.98,132,1.05,No,sure,cr,2.0912930965423584,NA
132,w0ep#21,False,117,1,equal,STb_5_a1,P = T1?,Same,0,1,None,112,1.0,112,1.17,112,1.12,Yes,sure,hit,0.5627310276031494,NA
133,w0ep#21,False,118,1,equal,ST1_low_5_a2,P = T2?,Same,1,2,low,96,1.12,154,0.88,96,1.06,No,sure,cr,1.278770923614502,NA
134,w0ep#21,False,119,1,equal,ST2_low_4_a2,P = T1?,Same,2,2,low,112,0.98,70,1.81,70,1.47,No,sure,cr,1.2562589645385742,NA
135,w0ep#21,False,120,1,equal,ST2_low_6_a2,P = T2?,Same,2,2,low,154,0.83,96,1.28,96,1.32,Yes,sure,hit,1.1015162467956543,NA
136,w0ep#21,False,121,1,equal,ST2_high_4_a1,P = T1?,Same,2,1,high,96,1.25,70,1.68,70,1.5,No,sure,cr,1.5738999843597412,NA
137,w0ep#21,False,122,1,equal,ST1_low_6_a1,P = T1?,Same,1,1,low,154,0.82,96,1.26,154,0.75,Yes,sure,hit,1.143183708190918,NA
138,w0ep#21,False,123,1,equal,ST1_low_1_a2,P = T2?,Same,1,2,low,82,1.35,132,1.04,82,1.37,No,sure,cr,1.5726158618927002,NA
139,w0ep#21,False,124,1,equal,ST2_low_2_a1,P = T1?,Same,2,1,low,132,1.04,82,1.27,82,1.39,No,sure,cr,1.0779290199279785,NA
140,w0ep#21,False,125,1,equal,ST1_high_6_a2,P = T1?,Same,1,2,high,132,1.05,96,1.16,132,0.89,Yes,sure,hit,1.034095048904419,NA
141,w0ep#21,False,126,1,equal,ST1_high_2_a2,P = T2?,Same,1,2,high,112,1.16,82,1.56,112,1.04,No,quiteSure,cr,1.4425079822540283,NA
142,w0ep#21,False,127,1,equal,ST2_low_2_a2,P = T2?,Same,2,2,low,132,0.94,82,1.57,82,1.46,Yes,sure,hit,1.057021141052246,NA
143,w0ep#21,False,128,1,equal,ST1_high_3_a2,P = T1?,Same,1,2,high,70,1.39,96,1.22,70,1.72,Yes,sure,hit,1.2361509799957275,NA
144,w0ep#21,False,129,1,equal,ST1_low_5_a2,P = T2?,Same,1,2,low,96,1.33,154,0.86,96,1.35,No,sure,cr,1.0344882011413574,NA
145,w0ep#21,False,130,1,equal,ST2_low_5_a1,P = T2?,Same,2,1,low,96,1.15,154,0.92,154,0.73,Yes,sure,hit,1.1011841297149658,NA
146,w0ep#21,False,131,1,equal,ST2_low_3_a2,P = T1?,Same,2,2,low,70,1.59,112,1.26,112,0.93,No,sure,cr,1.4829702377319336,NA
147,w0ep#21,False,132,1,equal,ST2_low_2_a1,P = T2?,Same,2,1,low,132,0.87,82,1.45,82,1.29,Yes,sure,hit,0.8767988681793213,NA
148,w0ep#21,False,133,1,equal,ST1_low_6_a2,P = T2?,Same,1,2,low,154,0.73,96,1.25,154,0.86,No,sure,cr,3.760359048843384,NA
149,w0ep#21,False,134,1,equal,ST2_high_2_a1,P = T1?,Same,2,1,high,112,0.95,82,1.28,82,1.46,No,sure,cr,1.3252298831939697,NA
150,w0ep#21,False,135,1,equal,ST2_high_3_a2,P = T2?,Same,2,2,high,70,1.64,96,1.42,96,1.11,Yes,sure,hit,1.150583028793335,NA
151,w0ep#21,False,136,1,equal,STb_3_a1,P = T1?,Same,0,1,None,82,1.48,82,1.84,82,1.65,Yes,sure,hit,0.8333220481872559,NA
152,w0ep#21,False,137,1,equal,ST2_low_6_a2,P = T1?,Same,2,2,low,154,0.92,96,1.3,96,1.22,No,sure,cr,1.5738370418548584,NA
153,w0ep#21,False,138,1,equal,ST1_high_4_a2,P = T2?,Same,1,2,high,96,1.1,70,1.84,96,1.34,No,sure,cr,1.1306722164154053,NA
154,w0ep#21,False,139,1,equal,ST2_high_6_a2,P = T1?,Same,2,2,high,132,1.0,96,1.24,96,1.17,No,sure,cr,1.2629249095916748,NA
155,w0ep#21,False,140,1,equal,ST1_high_3_a2,P = T2?,Same,1,2,high,70,1.45,96,1.31,70,1.75,No,sure,cr,1.3724770545959473,NA
156,w0ep#21,False,141,1,equal,ST2_high_1_a1,P = T2?,Same,2,1,high,82,1.25,112,0.99,112,1.14,No,quiteSure,miss,1.8170442581176758,NA
157,w0ep#21,False,142,1,equal,ST2_high_4_a1,P = T2?,Same,2,1,high,96,1.06,70,1.5,70,1.46,Yes,sure,hit,1.1025652885437012,NA
158,w0ep#21,False,143,1,equal,ST2_low_3_a1,P = T2?,Same,2,1,low,70,1.73,112,0.92,112,1.14,Yes,sure,hit,1.1453430652618408,NA
159,w0ep#21,False,144,1,equal,ST2_high_2_a1,P = T1?,Same,2,1,high,112,1.07,82,1.31,82,1.52,No,sure,cr,0.9655508995056152,NA
160,w0ep#21,False,145,1,equal,STb_8_a1,P = T1?,Same,0,1,None,180,0.81,180,0.91,180,0.81,Yes,sure,hit,0.5865070819854736,NA
161,w0ep#21,False,146,1,equal,ST2_low_2_a2,P = T1?,Same,2,2,low,132,0.97,82,1.52,82,1.51,No,sure,cr,1.0123789310455322,NA
162,w0ep#21,False,147,1,equal,ST1_high_6_a2,P = T2?,Same,1,2,high,132,0.98,96,1.3,132,0.96,No,sure,cr,0.9905447959899902,NA
163,w0ep#21,False,148,1,equal,ST2_low_3_a1,P = T1?,Same,2,1,low,70,1.84,112,1.13,112,1.02,No,sure,cr,2.2499818801879883,NA
164,w0ep#21,False,149,1,equal,ST1_low_4_a2,P = T1?,Same,1,2,low,112,1.01,70,1.58,112,0.92,Yes,sure,hit,1.1917130947113037,NA
165,w0ep#21,False,150,1,equal,ST2_low_1_a1,P = T2?,Same,2,1,low,82,1.6,132,1.01,132,0.83,Yes,sure,hit,0.971121072769165,NA
166,w0ep#21,False,151,1,equal,ST1_high_2_a1,P = T1?,Same,1,1,high,112,0.9,82,1.41,112,1.09,Yes,sure,hit,0.9220640659332275,NA
167,w0ep#21,False,152,1,equal,ST2_high_5_a2,P = T2?,Same,2,2,high,96,1.38,132,0.97,132,0.93,Yes,sure,hit,0.8764243125915527,NA
168,w0ep#21,False,153,1,equal,ST2_high_4_a2,P = T1?,Same,2,2,high,96,1.16,70,1.4,70,1.57,No,sure,cr,0.9442992210388184,NA
169,w0ep#21,False,154,1,equal,ST1_high_6_a1,P = T1?,Same,1,1,high,132,0.91,96,1.36,132,0.83,Yes,sure,hit,0.9675419330596924,NA
170,w0ep#21,False,155,1,equal,ST1_low_3_a2,P = T1?,Same,1,2,low,70,1.4,112,1.07,70,1.71,Yes,quiteSure,hit,1.2353909015655518,NA
171,w0ep#21,False,156,1,equal,ST1_low_3_a2,P = T2?,Same,1,2,low,70,1.53,112,0.98,70,1.6,No,sure,cr,1.0403108596801758,NA
172,w0ep#21,False,157,1,equal,ST1_high_3_a1,P = T2?,Same,1,1,high,70,1.75,96,1.28,70,1.71,No,sure,cr,1.1018428802490234,NA
173,w0ep#21,False,158,1,equal,ST1_low_6_a1,P = T2?,Same,1,1,low,154,0.79,96,1.06,154,0.79,No,sure,cr,1.2367618083953857,NA
174,w0ep#21,False,159,1,equal,ST1_low_1_a2,P = T2?,Same,1,2,low,82,1.64,132,0.86,82,1.55,No,sure,cr,1.2457189559936523,NA
175,w0ep#21,False,160,1,equal,ST1_high_2_a2,P = T1?,Same,1,2,high,112,1.19,82,1.58,112,0.93,Yes,quiteSure,hit,1.3345308303833008,NA
176,w0ep#21,False,161,1,equal,ST2_high_1_a2,P = T1?,Same,2,2,high,82,1.39,112,1.13,112,1.09,No,sure,cr,0.9273998737335205,NA
177,w0ep#21,False,162,1,equal,ST1_low_5_a2,P = T1?,Same,1,2,low,96,1.16,154,0.82,96,1.4,Yes,quiteSure,hit,1.8700079917907715,NA
178,w0ep#21,False,163,1,equal,ST1_low_4_a2,P = T2?,Same,1,2,low,112,1.15,70,1.43,112,0.99,No,sure,cr,1.2450532913208008,NA
179,w0ep#21,False,164,1,equal,ST1_high_1_a2,P = T1?,Same,1,2,high,82,1.37,112,1.22,82,1.36,Yes,quiteSure,hit,1.2606391906738281,NA
180,w0ep#21,False,165,1,equal,ST1_low_4_a1,P = T1?,Same,1,1,low,112,1.11,70,1.48,112,1.15,Yes,sure,hit,1.031996726989746,NA
181,w0ep#21,False,166,1,equal,ST1_high_1_a1,P = T2?,Same,1,1,high,82,1.34,112,0.99,82,1.24,No,sure,cr,1.843277931213379,NA
182,w0ep#21,False,167,1,equal,STb_7_a2,P = T2?,Same,0,2,None,154,0.89,154,0.93,154,0.72,Yes,sure,hit,0.5412018299102783,NA
183,w0ep#21,False,168,1,equal,ST2_low_5_a1,P = T1?,Same,2,1,low,96,1.09,154,0.91,154,0.81,No,sure,cr,1.2847011089324951,NA
184,w0ep#21,False,169,1,equal,ST1_high_4_a1,P = T1?,Same,1,1,high,96,1.1,70,1.59,96,1.32,Yes,sure,hit,0.9217751026153564,NA
185,w0ep#21,False,170,1,equal,ST2_low_3_a2,P = T2?,Same,2,2,low,70,1.51,112,1.09,112,1.21,Yes,sure,hit,0.9478592872619629,NA
186,w0ep#21,False,171,1,equal,STb_2_a1,P = T2?,Same,0,1,None,70,1.77,70,1.56,70,1.68,Yes,sure,hit,0.5630106925964355,NA
187,w0ep#21,False,172,1,equal,ST1_high_1_a2,P = T1?,Same,1,2,high,82,1.56,112,1.11,82,1.61,Yes,unsure,hit,2.2078661918640137,NA
188,w0ep#21,False,173,1,equal,ST1_high_1_a2,P = T2?,Same,1,2,high,82,1.34,112,1.14,82,1.47,No,sure,cr,1.7562167644500732,NA
189,w0ep#21,False,174,1,equal,ST2_low_1_a1,P = T2?,Same,2,1,low,82,1.53,132,0.87,132,0.83,Yes,sure,hit,1.1223690509796143,NA
190,w0ep#21,False,175,1,equal,DT2_high_4_a1,P = T2?,Different,2,1,high,96,1.31,70,1.64,60,1.61,No,unsure,miss,3.3757529258728027,NA
191,w0ep#21,False,176,1,equal,ST1_high_6_a1,P = T2?,Same,1,1,high,132,0.99,96,1.1,132,0.81,No,sure,cr,1.2565910816192627,NA
192,w0ep#21,False,177,1,equal,ST1_low_5_a2,P = T2?,Same,1,2,low,96,1.42,154,0.77,96,1.25,No,sure,cr,0.9778017997741699,NA
193,w0ep#21,False,178,1,equal,ST2_high_3_a2,P = T1?,Same,2,2,high,70,1.64,96,1.16,96,1.11,No,sure,cr,1.1025581359863281,NA
194,w0ep#21,False,179,1,equal,ST1_high_1_a1,P = T2?,Same,1,1,high,82,1.47,112,1.05,82,1.24,No,sure,cr,1.1471972465515137,NA
195,w0ep#21,False,180,1,equal,ST1_low_1_a1,P = T1?,Same,1,1,low,82,1.41,132,1.05,82,1.25,Yes,sure,hit,1.8433270454406738,NA
196,w0ep#21,False,181,1,equal,ST2_low_4_a2,P = T2?,Same,2,2,low,112,1.06,70,1.4,70,1.52,Yes,sure,hit,2.0036370754241943,NA
197,w0ep#21,False,182,1,equal,ST2_high_3_a2,P = T2?,Same,2,2,high,70,1.77,96,1.2,96,1.36,Yes,sure,hit,0.9659960269927979,NA
198,w0ep#21,False,183,1,equal,ST2_high_5_a2,P = T1?,Same,2,2,high,96,1.33,132,0.87,132,0.8,No,sure,cr,0.9911282062530518,NA
199,w0ep#21,False,184,1,equal,ST1_low_2_a1,P = T2?,Same,1,1,low,132,0.96,82,1.31,132,0.9,No,sure,cr,0.9947977066040039,NA
200,w0ep#21,False,185,1,equal,ST2_high_5_a1,P = T2?,Same,2,1,high,96,1.23,132,0.83,132,0.88,Yes,sure,hit,0.8792688846588135,NA
201,w0ep#21,False,186,1,equal,ST1_low_4_a1,P = T2?,Same,1,1,low,112,1.03,70,1.58,112,1.16,No,sure,cr,1.0809497833251953,NA
202,w0ep#21,False,187,1,equal,ST2_low_4_a1,P = T2?,Same,2,1,low,112,1.13,70,1.64,70,1.43,Yes,sure,hit,0.8298239707946777,NA
203,w0ep#21,False,188,1,equal,ST2_high_1_a2,P = T1?,Same,2,2,high,82,1.31,112,0.95,112,1.19,No,sure,cr,1.7826738357543945,NA
204,w0ep#21,False,189,1,equal,ST2_low_1_a1,P = T1?,Same,2,1,low,82,1.57,132,0.9,132,0.82,No,sure,cr,1.43985915184021,NA
205,w0ep#21,False,190,1,equal,ST2_low_5_a1,P = T2?,Same,2,1,low,96,1.16,154,0.72,154,0.72,Yes,sure,hit,0.9954209327697754,NA
206,w0ep#21,False,191,1,equal,ST1_low_6_a2,P = T1?,Same,1,2,low,154,0.79,96,1.16,154,0.79,Yes,sure,hit,0.9002046585083008,NA
207,w0ep#21,False,192,1,equal,ST2_low_4_a2,P = T2?,Same,2,2,low,112,1.23,70,1.61,70,1.62,Yes,sure,hit,1.4821810722351074,NA
208,w0ep#21,False,193,1,equal,ST2_high_5_a2,P = T2?,Same,2,2,high,96,1.43,132,0.8,132,0.93,Yes,sure,hit,0.9700489044189453,NA
209,w0ep#21,False,194,1,equal,ST2_high_2_a1,P = T2?,Same,2,1,high,112,1.1,82,1.3,82,1.23,Yes,sure,hit,0.7867791652679443,NA
210,w0ep#21,False,195,1,equal,ST1_low_2_a2,P = T1?,Same,1,2,low,132,1.04,82,1.35,132,1.02,Yes,sure,hit,1.284106969833374,NA
211,w0ep#21,False,196,1,equal,ST2_high_2_a2,P = T1?,Same,2,2,high,112,1.01,82,1.55,82,1.23,No,sure,cr,0.9440622329711914,NA
212,w0ep#21,False,197,1,equal,ST1_low_4_a1,P = T1?,Same,1,1,low,112,1.07,70,1.6,112,1.2,Yes,sure,hit,1.0994300842285156,NA
213,w0ep#21,False,198,1,equal,ST1_low_3_a1,P = T2?,Same,1,1,low,70,1.63,112,1.14,70,1.68,No,sure,cr,3.0150389671325684,NA
214,w0ep#21,False,199,1,equal,ST1_high_3_a2,P = T2?,Same,1,2,high,70,1.39,96,1.28,70,1.8,No,sure,cr,1.0804879665374756,NA
215,w0ep#21,False,200,1,equal,ST1_low_6_a1,P = T1?,Same,1,1,low,154,0.72,96,1.27,154,0.78,Yes,quiteSure,hit,1.6216528415679932,NA
216,w0ep#21,False,201,1,equal,ST2_high_1_a2,P = T2?,Same,2,2,high,82,1.23,112,0.96,112,1.18,Yes,sure,hit,0.9239320755004883,NA
217,w0ep#21,False,202,1,equal,ST2_low_5_a2,P = T1?,Same,2,2,low,96,1.18,154,0.9,154,0.85,No,sure,cr,0.9441242218017578,NA
218,w0ep#21,False,203,1,equal,ST2_low_1_a1,P = T2?,Same,2,1,low,82,1.22,132,0.97,132,0.91,Yes,sure,hit,0.8540561199188232,NA
219,w0ep#21,False,204,1,equal,ST2_high_1_a1,P = T2?,Same,2,1,high,82,1.23,112,1.06,112,1.18,Yes,sure,hit,0.8338308334350586,NA
220,w0ep#21,False,205,1,equal,ST1_high_3_a2,P = T2?,Same,1,2,high,70,1.83,96,1.13,70,1.55,No,sure,cr,2.788541078567505,NA
221,w0ep#21,False,206,1,equal,ST1_low_1_a2,P = T1?,Same,1,2,low,82,1.23,132,0.97,82,1.38,Yes,sure,hit,1.1485989093780518,NA
222,w0ep#21,False,207,1,equal,ST2_low_5_a1,P = T2?,Same,2,1,low,96,1.08,154,0.86,154,0.74,Yes,sure,hit,0.8319659233093262,NA
223,w0ep#21,False,208,1,equal,ST2_high_2_a1,P = T1?,Same,2,1,high,112,1.11,82,1.46,82,1.63,No,sure,cr,1.6898608207702637,NA
224,w0ep#21,False,209,1,equal,ST1_high_5_a2,P = T2?,Same,1,2,high,96,1.41,132,0.79,96,1.09,No,sure,cr,0.9187450408935547,NA
225,w0ep#21,False,210,1,equal,DT1_low_4_a2,P = T2?,Different,1,2,low,112,0.92,70,1.8,132,0.98,No,sure,cr,6.342023849487305,NA
226,w0ep#21,False,211,1,equal,ST2_low_2_a2,P = T2?,Same,2,2,low,132,0.81,82,1.44,82,1.44,Yes,sure,hit,0.8139419555664062,NA
227,w0ep#21,False,212,1,equal,ST1_high_5_a2,P = T1?,Same,1,2,high,96,1.18,132,0.83,96,1.4,Yes,sure,hit,0.8314528465270996,NA
228,w0ep#21,False,213,1,equal,ST1_low_2_a2,P = T2?,Same,1,2,low,132,1.03,82,1.41,132,0.93,No,sure,cr,0.8108270168304443,NA
229,w0ep#21,False,214,1,equal,ST1_low_4_a2,P = T2?,Same,1,2,low,112,1.13,70,1.4,112,0.95,No,sure,cr,1.1483161449432373,NA
230,w0ep#21,False,215,1,equal,DT1_high_4_a1,P = T2?,Different,1,1,high,96,1.25,70,1.78,112,1.12,No,sure,cr,4.248900651931763,NA
231,w0ep#21,False,216,1,equal,ST2_high_1_a1,P = T1?,Same,2,1,high,82,1.39,112,1.12,112,1.1,No,sure,cr,0.9209702014923096,NA
232,w0ep#21,False,217,1,equal,STb_7_a1,P = T2?,Same,0,1,None,154,0.72,154,0.86,154,0.85,Yes,sure,hit,0.18303704261779785,NA
233,w0ep#21,False,218,1,equal,STb_7_a1,P = T1?,Same,0,1,None,154,0.91,154,0.79,154,0.89,Yes,sure,hit,0.2481977939605713,NA
234,w0ep#21,False,219,1,equal,ST2_low_6_a2,P = T1?,Same,2,2,low,154,0.81,96,1.32,96,1.37,No,sure,cr,1.172325849533081,NA
235,w0ep#21,False,220,1,equal,ST2_low_6_a1,P = T1?,Same,2,1,low,154,0.82,96,1.23,96,1.06,No,sure,cr,0.8052449226379395,NA
236,w0ep#21,False,221,1,equal,ST1_high_2_a2,P = T1?,Same,1,2,high,112,1.03,82,1.43,112,0.95,Yes,sure,hit,0.83162522315979,NA
237,w0ep#21,False,222,1,equal,ST1_high_4_a1,P = T2?,Same,1,1,high,96,1.12,70,1.41,96,1.25,Yes,unsure,fa,0.3628849983215332,NA
238,w0ep#21,False,223,1,equal,ST2_high_1_a2,P = T2?,Same,2,2,high,82,1.3,112,0.94,112,1.14,Yes,sure,hit,2.7007510662078857,NA
239,w0ep#21,False,224,1,equal,ST2_high_1_a2,P = T2?,Same,2,2,high,82,1.5,112,1.06,112,1.01,Yes,sure,hit,0.8984758853912354,NA
240,w0ep#21,False,225,1,equal,ST2_low_3_a2,P = T1?,Same,2,2,low,70,1.74,112,1.1,112,0.96,No,sure,cr,1.2619919776916504,NA
241,w0ep#21,False,226,1,equal,ST1_high_4_a2,P = T1?,Same,1,2,high,96,1.35,70,1.54,96,1.29,Yes,sure,hit,0.8548600673675537,NA
242,w0ep#21,False,227,1,equal,ST1_high_2_a1,P = T2?,Same,1,1,high,112,1.02,82,1.36,112,0.97,No,sure,cr,1.0115039348602295,NA
243,w0ep#21,False,228,1,equal,ST1_high_5_a1,P = T1?,Same,1,1,high,96,1.12,132,0.9,96,1.37,Yes,quiteSure,hit,1.80019211769104,NA
244,w0ep#21,False,229,1,equal,STb_6_a2,P = T2?,Same,0,2,None,132,1.05,132,0.79,132,0.83,Yes,sure,hit,0.37969303131103516,NA
245,w0ep#21,False,230,1,equal,ST1_low_5_a1,P = T1?,Same,1,1,low,96,1.21,154,0.93,96,1.33,Yes,sure,hit,0.9462921619415283,NA
246,w0ep#21,False,231,1,equal,DT1_high_4_a2,P = T2?,Different,1,2,high,96,1.28,70,1.4,112,0.99,No,sure,cr,2.8327789306640625,NA
247,w0ep#21,False,232,1,equal,ST1_high_6_a1,P = T1?,Same,1,1,high,132,1.0,96,1.07,132,0.93,No,sure,miss,2.429173231124878,NA
248,w0ep#21,False,233,1,equal,ST1_low_3_a2,P = T1?,Same,1,2,low,70,1.75,112,1.17,70,1.65,Yes,sure,hit,0.8349549770355225,NA
249,w0ep#21,False,234,1,equal,ST1_high_2_a1,P = T2?,Same,1,1,high,112,1.09,82,1.36,112,1.2,No,sure,cr,1.3287091255187988,NA
250,w0ep#21,False,235,1,equal,ST1_low_2_a2,P = T2?,Same,1,2,low,132,0.85,82,1.46,132,0.89,No,sure,cr,1.2845242023468018,NA
251,w0ep#21,False,236,1,equal,ST1_high_2_a1,P = T1?,Same,1,1,high,112,1.09,82,1.53,112,1.18,Yes,sure,hit,0.8773679733276367,NA
252,w0ep#21,False,237,1,equal,ST1_high_3_a1,P = T1?,Same,1,1,high,70,1.62,96,1.09,70,1.5,Yes,sure,hit,0.9422760009765625,NA
253,w0ep#21,False,238,1,equal,ST1_low_2_a2,P = T1?,Same,1,2,low,132,0.85,82,1.49,132,0.91,Yes,sure,hit,0.8517682552337646,NA
254,w0ep#21,False,239,1,equal,ST1_high_5_a1,P = T2?,Same,1,1,high,96,1.3,132,0.84,96,1.43,No,sure,cr,1.6009070873260498,NA
255,w0ep#21,False,240,1,equal,ST1_high_5_a1,P = T1?,Same,1,1,high,96,1.14,132,0.79,96,1.07,Yes,sure,hit,0.8101387023925781,NA
256,w0ep#21,False,241,1,equal,ST1_low_6_a2,P = T2?,Same,1,2,low,154,0.84,96,1.17,154,0.9,No,sure,cr,1.3524229526519775,NA
257,w0ep#21,False,242,1,equal,DT1_high_5_a1,P = T2?,Different,1,1,high,96,1.41,132,0.94,82,1.39,No,sure,cr,0.7840681076049805,NA
258,w0ep#21,False,243,1,equal,STb_3_a2,P = T2?,Same,0,2,None,82,1.39,82,1.43,82,1.37,Yes,sure,hit,0.24498486518859863,NA
259,w0ep#21,False,244,1,equal,ST1_low_2_a1,P = T1?,Same,1,1,low,132,0.85,82,1.48,132,0.83,Yes,sure,hit,0.9945847988128662,NA
260,w0ep#21,False,245,1,equal,ST1_low_1_a1,P = T2?,Same,1,1,low,82,1.39,132,0.94,82,1.28,No,sure,cr,2.67789888381958,NA
261,w0ep#21,False,246,1,equal,ST2_low_6_a1,P = T2?,Same,2,1,low,154,0.78,96,1.35,96,1.16,Yes,sure,hit,0.9650211334228516,NA
262,w0ep#21,False,247,1,equal,ST1_low_6_a1,P = T2?,Same,1,1,low,154,0.77,96,1.23,154,0.72,No,sure,cr,1.1238079071044922,NA
263,w0ep#21,False,248,1,equal,ST2_high_3_a1,P = T2?,Same,2,1,high,70,1.57,96,1.25,96,1.16,Yes,sure,hit,0.8564620018005371,NA
264,w0ep#21,False,249,1,equal,ST2_high_3_a1,P = T1?,Same,2,1,high,70,1.77,96,1.36,96,1.16,No,sure,cr,0.878741979598999,NA
265,w0ep#21,False,250,1,equal,DT2_low_6_a1,P = T1?,Different,2,1,low,154,0.96,96,1.08,82,1.36,No,sure,cr,0.853691816329956,NA
266,w0ep#21,False,251,1,equal,ST2_high_6_a1,P = T1?,Same,2,1,high,132,0.87,96,1.36,96,1.31,No,sure,cr,0.9679648876190186,NA
267,w0ep#21,False,252,1,equal,DT1_high_1_a1,P = T1?,Different,1,1,high,82,1.27,112,1.21,70,1.42,Yes,sure,hit,1.7343881130218506,NA
268,w0ep#21,False,253,1,equal,ST1_low_5_a2,P = T1?,Same,1,2,low,96,1.19,154,0.83,96,1.08,Yes,quiteSure,hit,1.7338361740112305,NA
269,w0ep#21,False,254,1,equal,ST2_low_6_a2,P = T2?,Same,2,2,low,154,0.9,96,1.1,96,1.21,Yes,sure,hit,0.8759891986846924,NA
270,w0ep#21,False,255,1,equal,ST2_low_3_a2,P = T1?,Same,2,2,low,70,1.5,112,1.22,112,0.95,No,sure,cr,1.033344030380249,NA
271,w0ep#21,False,256,1,equal,STb_1_a1,P = T2?,Same,0,1,None,60,1.72,60,1.52,60,2.0,Yes,sure,hit,1.9552388191223145,NA
272,w0ep#21,False,257,1,equal,ST1_low_4_a1,P = T2?,Same,1,1,low,112,1.01,70,1.76,112,1.28,No,sure,cr,1.215925693511963,NA
273,w0ep#21,False,258,1,equal,ST1_low_2_a1,P = T2?,Same,1,1,low,132,0.91,82,1.44,132,1.02,No,sure,cr,1.0145542621612549,NA
274,w0ep#21,False,259,1,equal,ST1_low_1_a2,P = T2?,Same,1,2,low,82,1.57,132,0.99,82,1.48,No,sure,cr,1.05572509765625,NA
275,w0ep#21,False,260,1,equal,DT2_low_6_a2,P = T1?,Different,2,2,low,154,0.77,96,1.3,82,1.59,No,sure,cr,3.3511688709259033,NA
276,w0ep#21,False,261,1,equal,ST1_low_3_a2,P = T2?,Same,1,2,low,70,1.49,112,1.01,70,1.66,No,sure,cr,1.2394740581512451,NA
277,w0ep#21,False,262,1,equal,ST2_low_4_a2,P = T1?,Same,2,2,low,112,1.0,70,1.85,70,1.47,No,sure,cr,2.3357887268066406,NA
278,w0ep#21,False,263,1,equal,ST2_high_4_a2,P = T1?,Same,2,2,high,96,1.15,70,1.75,70,1.55,No,sure,cr,0.9880919456481934,NA
279,w0ep#21,False,264,1,equal,ST2_high_4_a1,P = T1?,Same,2,1,high,96,1.41,70,1.51,70,1.55,No,sure,cr,0.9223721027374268,NA
280,w0ep#21,False,265,1,equal,ST2_high_2_a2,P = T1?,Same,2,2,high,112,1.17,82,1.46,82,1.44,No,sure,cr,0.8800978660583496,NA
281,w0ep#21,False,266,1,equal,ST2_low_1_a1,P = T1?,Same,2,1,low,82,1.31,132,0.79,132,0.81,No,sure,cr,0.8991982936859131,NA
282,w0ep#21,False,267,1,equal,ST2_low_1_a1,P = T1?,Same,2,1,low,82,1.53,132,0.81,132,0.95,No,sure,cr,0.9002859592437744,NA
283,w0ep#21,False,268,1,equal,ST2_high_5_a1,P = T1?,Same,2,1,high,96,1.35,132,0.86,132,0.83,No,sure,cr,1.2375211715698242,NA
284,w0ep#21,False,269,1,equal,ST2_low_6_a2,P = T1?,Same,2,2,low,154,0.9,96,1.3,96,1.35,No,sure,cr,2.13875412940979,NA
285,w0ep#21,False,270,1,equal,ST2_low_4_a1,P = T1?,Same,2,1,low,112,1.17,70,1.46,70,1.66,No,sure,cr,0.9354162216186523,NA
286,w0ep#21,False,271,1,equal,ST2_high_3_a1,P = T1?,Same,2,1,high,70,1.64,96,1.16,96,1.06,No,sure,cr,0.8756701946258545,NA
287,w0ep#21,False,272,1,equal,ST2_low_2_a2,P = T1?,Same,2,2,low,132,1.06,82,1.39,82,1.45,No,sure,cr,0.9677989482879639,NA
288,w0ep#21,False,273,1,equal,ST1_high_6_a2,P = T2?,Same,1,2,high,132,0.91,96,1.17,132,0.8,No,sure,cr,2.1120707988739014,NA
289,w0ep#21,False,274,1,equal,ST1_low_3_a1,P = T1?,Same,1,1,low,70,1.4,112,1.12,70,1.43,Yes,sure,hit,1.39320707321167,NA
290,w0ep#21,False,275,1,equal,ST2_high_3_a2,P = T1?,Same,2,2,high,70,1.64,96,1.34,96,1.12,No,sure,cr,1.1689872741699219,NA
291,w0ep#21,False,276,1,equal,STb_2_a2,P = T1?,Same,0,2,None,70,1.44,70,1.46,70,1.68,Yes,sure,hit,0.20146512985229492,NA
292,w0ep#21,False,277,1,equal,ST2_high_6_a1,P = T2?,Same,2,1,high,132,0.87,96,1.37,96,1.15,Yes,sure,hit,3.4645702838897705,NA
293,w0ep#21,False,278,1,equal,ST1_low_2_a2,P = T1?,Same,1,2,low,132,1.02,82,1.52,132,0.94,Yes,sure,hit,1.9846899509429932,NA
294,w0ep#21,False,279,1,equal,ST2_low_1_a2,P = T2?,Same,2,2,low,82,1.56,132,0.92,132,0.84,Yes,sure,hit,0.9041318893432617,NA
295,w0ep#21,False,280,1,equal,ST1_high_4_a1,P = T1?,Same,1,1,high,96,1.18,70,1.48,96,1.38,Yes,sure,hit,1.0821070671081543,NA
296,w0ep#21,False,281,1,equal,ST1_high_2_a2,P = T2?,Same,1,2,high,112,1.2,82,1.43,112,1.08,No,sure,cr,1.27982497215271,NA
297,w0ep#21,False,282,1,equal,ST1_high_6_a2,P = T2?,Same,1,2,high,132,1.05,96,1.07,132,1.03,No,sure,cr,1.2831511497497559,NA
298,w0ep#21,False,283,1,equal,ST2_high_2_a2,P = T2?,Same,2,2,high,112,1.12,82,1.44,82,1.56,Yes,sure,hit,2.269713878631592,NA
299,w0ep#21,False,284,1,equal,ST1_low_4_a2,P = T1?,Same,1,2,low,112,1.03,70,1.8,112,0.92,Yes,sure,hit,1.0575671195983887,NA
300,w0ep#21,False,285,1,equal,ST1_high_5_a2,P = T2?,Same,1,2,high,96,1.11,132,0.98,96,1.17,No,sure,cr,1.0783629417419434,NA
301,w0ep#21,False,286,1,equal,ST1_low_3_a1,P = T2?,Same,1,1,low,70,1.75,112,0.97,70,1.56,No,sure,cr,1.0137379169464111,NA
302,w0ep#21,False,287,1,equal,ST2_high_1_a2,P = T1?,Same,2,2,high,82,1.42,112,1.2,112,0.98,No,sure,cr,0.8785622119903564,NA
303,w0ep#21,False,288,1,equal,ST1_high_4_a1,P = T2?,Same,1,1,high,96,1.19,70,1.54,96,1.22,No,sure,cr,0.9247570037841797,NA
304,w0ep#21,False,289,1,equal,ST1_low_2_a1,P = T2?,Same,1,1,low,132,0.86,82,1.5,132,0.99,No,sure,cr,1.0118300914764404,NA
305,w0ep#21,False,290,1,equal,ST2_high_4_a2,P = T2?,Same,2,2,high,96,1.09,70,1.52,70,1.62,Yes,sure,hit,1.9569091796875,NA
306,w0ep#21,False,291,1,equal,ST2_high_2_a1,P = T2?,Same,2,1,high,112,0.97,82,1.44,82,1.38,Yes,sure,hit,0.8549251556396484,NA
307,w0ep#21,False,292,1,equal,ST2_high_6_a1,P = T1?,Same,2,1,high,132,1.02,96,1.19,96,1.15,No,sure,cr,1.5737261772155762,NA
308,w0ep#21,False,293,1,equal,ST2_low_2_a1,P = T1?,Same,2,1,low,132,1.04,82,1.23,82,1.33,No,sure,cr,0.9482018947601318,NA
309,w0ep#21,False,294,1,equal,ST2_low_4_a1,P = T2?,Same,2,1,low,112,1.09,70,1.82,70,1.84,Yes,sure,hit,0.8961169719696045,NA
310,w0ep#21,False,295,1,equal,ST2_low_6_a1,P = T1?,Same,2,1,low,154,0.82,96,1.24,96,1.28,No,sure,cr,1.3311231136322021,NA
311,w0ep#21,False,296,1,equal,ST1_low_2_a1,P = T1?,Same,1,1,low,132,1.0,82,1.55,132,0.91,Yes,sure,hit,0.9909851551055908,NA
312,w0ep#21,False,297,1,equal,ST2_high_2_a2,P = T1?,Same,2,2,high,112,1.03,82,1.31,82,1.53,No,sure,cr,0.8581130504608154,NA
313,w0ep#21,False,298,1,equal,ST1_high_3_a1,P = T1?,Same,1,1,high,70,1.71,96,1.29,70,1.4,Yes,sure,hit,1.0569651126861572,NA
314,w0ep#21,False,299,1,equal,ST2_low_5_a1,P = T1?,Same,2,1,low,96,1.32,154,0.76,154,0.8,No,sure,cr,0.8310718536376953,NA
315,w0ep#21,False,300,1,equal,ST1_low_1_a1,P = T1?,Same,1,1,low,82,1.47,132,0.93,82,1.26,Yes,sure,hit,0.831475019454956,NA
316,w0ep#21,False,301,1,equal,ST2_high_4_a2,P = T2?,Same,2,2,high,96,1.23,70,1.72,70,1.77,Yes,sure,hit,0.8099920749664307,NA
317,w0ep#21,False,302,1,equal,DT2_high_5_a1,P = T1?,Different,2,1,high,96,1.15,132,0.81,154,0.91,No,sure,cr,0.4916369915008545,NA
318,w0ep#21,False,303,1,equal,ST1_low_5_a1,P = T2?,Same,1,1,low,96,1.4,154,0.94,96,1.22,No,sure,cr,1.2358520030975342,NA
319,w0ep#21,False,304,1,equal,ST2_low_3_a2,P = T2?,Same,2,2,low,70,1.58,112,0.97,112,0.96,Yes,sure,hit,0.6521048545837402,NA
320,w0ep#21,False,305,1,equal,ST2_low_4_a2,P = T1?,Same,2,2,low,112,0.98,70,1.82,70,1.59,No,sure,cr,0.8598239421844482,NA
321,w0ep#21,False,306,1,equal,ST2_low_5_a1,P = T1?,Same,2,1,low,96,1.28,154,0.96,154,0.92,No,sure,cr,0.85748291015625,NA
322,w0ep#21,False,307,1,equal,ST1_low_4_a2,P = T1?,Same,1,2,low,112,1.17,70,1.71,112,1.22,Yes,sure,hit,1.2357118129730225,NA
323,w0ep#21,False,308,1,equal,ST1_high_5_a2,P = T1?,Same,1,2,high,96,1.36,132,0.96,96,1.21,Yes,sure,hit,1.4434659481048584,NA
324,w0ep#21,False,309,1,equal,ST1_low_5_a1,P = T2?,Same,1,1,low,96,1.22,154,0.76,96,1.1,No,sure,cr,1.147961139678955,NA
325,w0ep#21,False,310,1,equal,ST1_low_4_a2,P = T2?,Same,1,2,low,112,1.17,70,1.36,112,1.03,No,sure,cr,0.8529729843139648,NA
326,w0ep#21,False,311,1,equal,ST2_low_5_a2,P = T2?,Same,2,2,low,96,1.4,154,0.77,154,0.75,Yes,sure,hit,1.5531790256500244,NA
327,w0ep#21,False,312,1,equal,ST2_low_4_a1,P = T2?,Same,2,1,low,112,1.02,70,1.8,70,1.61,Yes,sure,hit,0.8126919269561768,NA
328,w0ep#21,False,313,1,equal,ST1_low_3_a2,P = T2?,Same,1,2,low,70,1.62,112,0.94,70,1.37,No,sure,cr,1.1162011623382568,NA
329,w0ep#21,False,314,1,equal,ST1_high_6_a2,P = T1?,Same,1,2,high,132,1.04,96,1.36,132,0.88,Yes,sure,hit,1.1919586658477783,NA
330,w0ep#21,False,315,1,equal,ST1_high_6_a1,P = T2?,Same,1,1,high,132,1.04,96,1.2,132,1.04,No,sure,cr,0.9437558650970459,NA
331,w0ep#21,False,316,1,equal,ST2_high_5_a2,P = T2?,Same,2,2,high,96,1.06,132,0.93,132,0.86,Yes,sure,hit,1.1697378158569336,NA
332,w0ep#21,False,317,1,equal,ST1_high_4_a2,P = T2?,Same,1,2,high,96,1.12,70,1.62,96,1.27,No,sure,cr,1.7747910022735596,NA
333,w0ep#21,False,318,1,equal,ST2_low_2_a1,P = T1?,Same,2,1,low,132,0.91,82,1.27,82,1.41,No,sure,cr,1.012073040008545,NA
334,w0ep#21,False,319,1,equal,ST2_low_3_a2,P = T2?,Same,2,2,low,70,1.42,112,1.13,112,1.16,Yes,sure,hit,1.0969061851501465,NA
335,w0ep#21,False,320,1,equal,ST2_high_2_a2,P = T2?,Same,2,2,high,112,0.98,82,1.45,82,1.47,Yes,sure,hit,0.8312170505523682,1.0
