,pcode,practice,trial,block,questionType,condition,question,PTS,TargetPosition,AccessoryPosition,TNS,T1_hz,T1_amp,T2_hz,T2_amp,P_hz,P_amp,response_dicho,response_rating,response_sdt,rt,P_correct
0,#49uet5,True,1,2,unequal,STb_6_a2,P != T1?,Same,0,2,None,132,0.97,132,0.85,132,0.92,No,quiteSure,cr,3.03186297416687,NA
1,#49uet5,True,2,2,unequal,STb_1_a1,P != T2?,Same,0,1,None,60,1.73,60,1.69,60,1.78,No,quiteSure,cr,1.4596929550170898,NA
2,#49uet5,True,3,2,unequal,DT1_low_1_a2,P != T2?,Different,1,2,low,82,1.61,132,0.96,70,1.77,Yes,quiteSure,hit,2.376678943634033,NA
3,#49uet5,True,4,2,unequal,ST2_high_4_a2,P != T1?,Same,2,2,high,96,1.24,70,1.78,70,1.47,Yes,quiteSure,hit,1.6299891471862793,NA
4,#49uet5,True,5,2,unequal,ST1_low_6_a1,P != T1?,Same,1,1,low,154,0.93,96,1.28,154,0.77,No,quiteSure,cr,1.6062028408050537,NA
5,#49uet5,True,6,2,unequal,DT1_high_1_a1,P != T2?,Different,1,1,high,82,1.33,112,0.97,70,1.73,Yes,quiteSure,hit,1.6770081520080566,NA
6,#49uet5,True,7,2,unequal,ST2_low_6_a1,P != T2?,Same,2,1,low,154,0.73,96,1.16,96,1.06,No,quiteSure,cr,1.9030110836029053,NA
7,#49uet5,True,8,2,unequal,ST2_high_5_a1,P != T1?,Same,2,1,high,96,1.38,132,0.9,132,1.03,Yes,quiteSure,hit,1.3167800903320312,NA
8,#49uet5,True,9,2,unequal,DT1_high_6_a1,P != T1?,Different,1,1,high,132,0.8,96,1.14,154,0.73,No,quiteSure,cr,2.3929617404937744,NA
9,#49uet5,True,10,2,unequal,ST2_low_1_a2,P != T2?,Same,2,2,low,82,1.75,132,1.04,132,1.1,No,quiteSure,cr,2.0826938152313232,NA
10,#49uet5,True,11,2,unequal,STb_4_a1,P != T1?,Same,0,1,None,96,0.98,96,1.18,96,1.38,No,quiteSure,cr,1.0636982917785645,NA
11,#49uet5,True,12,2,unequal,ST1_low_2_a2,P != T1?,Same,1,2,low,132,0.93,82,1.39,132,1.03,No,quiteSure,cr,1.1176657676696777,NA
12,#49uet5,True,13,2,unequal,DT1_high_1_a1,P != T1?,Different,1,1,high,82,1.48,112,1.06,70,1.79,No,quiteSure,cr,1.532240867614746,NA
13,#49uet5,True,14,2,unequal,ST1_high_1_a2,P != T2?,Same,1,2,high,82,1.36,112,0.88,82,1.84,Yes,quiteSure,hit,1.2754600048065186,NA
14,#49uet5,True,15,2,unequal,ST1_low_1_a2,P != T2?,Same,1,2,low,82,1.25,132,0.84,82,1.39,Yes,sure,hit,1.7708361148834229,NA
15,#49uet5,True,16,2,unequal,STb_8_a1,P != T2?,Same,0,1,None,180,0.86,180,0.7,180,0.87,No,sure,cr,1.0679168701171875,1.0
16,#49uet5,False,1,2,unequal,ST2_low_1_a1,P != T1?,Same,2,1,low,82,1.37,132,0.91,132,1.0,Yes,sure,hit,1.5598499774932861,NA
17,#49uet5,False,2,2,unequal,ST2_low_5_a2,P != T2?,Same,2,2,low,96,1.11,154,0.71,154,0.92,No,sure,cr,1.154623031616211,NA
18,#49uet5,False,3,2,unequal,DT2_low_4_a2,P != T2?,Different,2,2,low,112,1.02,70,1.38,60,1.72,No,quiteSure,cr,1.4730520248413086,NA
19,#49uet5,False,4,2,unequal,ST2_low_4_a2,P != T2?,Same,2,2,low,112,1.2,70,1.72,70,1.78,No,sure,cr,1.6040709018707275,NA
20,#49uet5,False,5,2,unequal,DT1_low_5_a1,P != T2?,Different,1,1,low,96,1.19,154,0.94,82,1.27,Yes,sure,hit,1.4062089920043945,NA
21,#49uet5,False,6,2,unequal,ST2_high_4_a2,P != T2?,Same,2,2,high,96,1.08,70,1.59,70,1.44,No,sure,cr,2.7323079109191895,NA
22,#49uet5,False,7,2,unequal,ST2_high_5_a1,P != T2?,Same,2,1,high,96,1.26,132,0.84,132,0.96,No,sure,cr,2.531881093978882,NA
23,#49uet5,False,8,2,unequal,ST1_high_1_a2,P != T1?,Same,1,2,high,82,1.57,112,1.01,82,1.37,No,unsure,cr,2.576824188232422,NA
24,#49uet5,False,9,2,unequal,ST2_high_1_a2,P != T1?,Same,2,2,high,82,1.44,112,0.99,112,1.09,Yes,sure,hit,1.3155651092529297,NA
25,#49uet5,False,10,2,unequal,ST2_low_6_a2,P != T1?,Same,2,2,low,154,0.89,96,1.24,96,1.13,Yes,sure,hit,1.1600580215454102,NA
26,#49uet5,False,11,2,unequal,ST2_low_5_a2,P != T1?,Same,2,2,low,96,1.35,154,0.73,154,0.82,Yes,sure,hit,0.9765241146087646,NA
27,#49uet5,False,12,2,unequal,ST2_high_3_a2,P != T1?,Same,2,2,high,70,1.74,96,1.19,96,1.34,Yes,quiteSure,hit,0.9773778915405273,NA
28,#49uet5,False,13,2,unequal,ST1_high_4_a2,P != T1?,Same,1,2,high,96,1.26,70,1.56,96,1.19,No,unsure,cr,1.3613131046295166,NA
29,#49uet5,False,14,2,unequal,ST2_low_3_a2,P != T2?,Same,2,2,low,70,1.7,112,1.04,112,1.16,No,quiteSure,cr,1.2951490879058838,NA
30,#49uet5,False,15,2,unequal,ST2_low_2_a1,P != T1?,Same,2,1,low,132,0.8,82,1.49,82,1.31,Yes,sure,hit,1.2463760375976562,NA
31,#49uet5,False,16,2,unequal,ST1_low_2_a1,P != T2?,Same,1,1,low,132,0.95,82,1.24,132,0.87,Yes,quiteSure,hit,1.0899159908294678,NA
32,#49uet5,False,17,2,unequal,ST2_high_6_a1,P != T1?,Same,2,1,high,132,1.04,96,1.41,96,1.25,Yes,quiteSure,hit,1.0475220680236816,NA
33,#49uet5,False,18,2,unequal,ST1_high_2_a2,P != T2?,Same,1,2,high,112,1.21,82,1.52,112,1.0,Yes,quiteSure,hit,1.0202081203460693,NA
34,#49uet5,False,19,2,unequal,ST2_high_1_a1,P != T1?,Same,2,1,high,82,1.57,112,1.18,112,1.15,Yes,sure,hit,1.0403618812561035,NA
35,#49uet5,False,20,2,unequal,ST2_low_4_a1,P != T2?,Same,2,1,low,112,1.1,70,1.74,70,1.45,No,quiteSure,cr,1.2734930515289307,NA
36,#49uet5,False,21,2,unequal,ST1_high_6_a1,P != T2?,Same,1,1,high,132,1.05,96,1.28,132,0.96,Yes,quiteSure,hit,1.1111118793487549,NA
37,#49uet5,False,22,2,unequal,ST2_low_2_a2,P != T1?,Same,2,2,low,132,1.02,82,1.25,82,1.5,Yes,quiteSure,hit,1.0686001777648926,NA
38,#49uet5,False,23,2,unequal,ST2_low_1_a2,P != T2?,Same,2,2,low,82,1.75,132,1.04,132,1.1,No,quiteSure,cr,1.04649019241333,NA
39,#49uet5,False,24,2,unequal,ST2_low_4_a2,P != T1?,Same,2,2,low,112,1.13,70,1.66,70,1.66,Yes,sure,hit,1.0494272708892822,NA
40,#49uet5,False,25,2,unequal,ST1_low_2_a1,P != T1?,Same,1,1,low,132,0.94,82,1.52,132,0.96,No,quiteSure,cr,1.6774282455444336,NA
41,#49uet5,False,26,2,unequal,ST2_high_1_a1,P != T1?,Same,2,1,high,82,1.62,112,1.15,112,1.0,Yes,quiteSure,hit,1.00095796585083,NA
42,#49uet5,False,27,2,unequal,ST1_high_1_a1,P != T2?,Same,1,1,high,82,1.59,112,0.95,82,1.37,Yes,quiteSure,hit,1.118669033050537,NA
43,#49uet5,False,28,2,unequal,ST1_high_3_a1,P != T1?,Same,1,1,high,70,1.45,96,1.32,70,1.62,No,quiteSure,cr,1.8545987606048584,NA
44,#49uet5,False,29,2,unequal,ST2_low_6_a2,P != T2?,Same,2,2,low,154,0.83,96,1.07,96,1.08,No,quiteSure,cr,1.025109052658081,NA
45,#49uet5,False,30,2,unequal,STb_5_a1,P != T1?,Same,0,1,None,112,1.16,112,1.12,112,0.96,No,quiteSure,cr,1.785301923751831,NA
46,#49uet5,False,31,2,unequal,ST2_high_4_a1,P != T2?,Same,2,1,high,96,1.37,70,1.8,70,1.6,No,unsure,cr,1.5164859294891357,NA
47,#49uet5,False,32,2,unequal,ST1_high_3_a1,P != T1?,Same,1,1,high,70,1.81,96,1.08,70,1.5,No,quiteSure,cr,1.4487230777740479,NA
48,#49uet5,False,33,2,unequal,ST2_high_6_a2,P != T2?,Same,2,2,high,132,0.81,96,1.34,96,1.42,No,quiteSure,cr,1.3379948139190674,NA
49,#49uet5,False,34,2,unequal,ST1_high_6_a1,P != T1?,Same,1,1,high,132,0.86,96,1.24,132,0.79,No,quiteSure,cr,1.0076961517333984,NA
50,#49uet5,False,35,2,unequal,ST2_low_3_a1,P != T2?,Same,2,1,low,70,1.55,112,1.1,112,1.13,No,quiteSure,cr,1.179452896118164,NA
51,#49uet5,False,36,2,unequal,ST2_low_3_a2,P != T2?,Same,2,2,low,70,1.81,112,1.14,112,1.06,No,quiteSure,cr,1.5620551109313965,NA
52,#49uet5,False,37,2,unequal,ST1_high_2_a1,P != T2?,Same,1,1,high,112,1.04,82,1.46,112,1.09,Yes,sure,hit,1.206813097000122,NA
53,#49uet5,False,38,2,unequal,ST1_high_4_a1,P != T1?,Same,1,1,high,96,1.29,70,1.8,96,1.33,No,quiteSure,cr,0.9803709983825684,NA
54,#49uet5,False,39,2,unequal,ST1_low_3_a2,P != T1?,Same,1,2,low,70,1.48,112,1.11,70,1.72,No,quiteSure,cr,1.088763952255249,NA
55,#49uet5,False,40,2,unequal,ST2_low_6_a2,P != T2?,Same,2,2,low,154,0.72,96,1.08,96,1.2,No,quiteSure,cr,1.0244219303131104,NA
56,#49uet5,False,41,2,unequal,ST2_low_5_a1,P != T2?,Same,2,1,low,96,1.33,154,0.85,154,0.8,No,quiteSure,cr,1.0246589183807373,NA
57,#49uet5,False,42,2,unequal,STb_8_a1,P != T2?,Same,0,1,None,180,0.86,180,0.7,180,0.87,No,sure,cr,0.8185732364654541,NA
58,#49uet5,False,43,2,unequal,ST2_high_2_a1,P != T2?,Same,2,1,high,112,1.18,82,1.56,82,1.63,No,quiteSure,cr,0.8220241069793701,NA
59,#49uet5,False,44,2,unequal,ST2_high_1_a2,P != T2?,Same,2,2,high,82,1.61,112,0.92,112,1.23,No,quiteSure,cr,0.8028757572174072,NA
60,#49uet5,False,45,2,unequal,ST2_low_4_a1,P != T1?,Same,2,1,low,112,0.97,70,1.69,70,1.63,Yes,sure,hit,1.6338400840759277,NA
61,#49uet5,False,46,2,unequal,ST1_high_3_a2,P != T2?,Same,1,2,high,70,1.68,96,1.4,70,1.64,Yes,sure,hit,1.2294552326202393,NA
62,#49uet5,False,47,2,unequal,ST1_low_3_a2,P != T2?,Same,1,2,low,70,1.37,112,1.08,70,1.6,Yes,sure,hit,1.1338820457458496,NA
63,#49uet5,False,48,2,unequal,ST1_low_3_a1,P != T1?,Same,1,1,low,70,1.4,112,0.96,70,1.77,No,quiteSure,cr,1.154392957687378,NA
64,#49uet5,False,49,2,unequal,ST1_high_1_a1,P != T1?,Same,1,1,high,82,1.33,112,0.92,82,1.54,No,quiteSure,cr,3.563343048095703,NA
65,#49uet5,False,50,2,unequal,ST2_low_6_a1,P != T1?,Same,2,1,low,154,0.87,96,1.08,96,1.09,No,quiteSure,miss,0.9336318969726562,NA
66,#49uet5,False,51,2,unequal,ST2_low_3_a2,P != T1?,Same,2,2,low,70,1.82,112,1.15,112,1.06,Yes,sure,hit,1.1529781818389893,NA
67,#49uet5,False,52,2,unequal,ST2_high_4_a2,P != T1?,Same,2,2,high,96,1.35,70,1.4,70,1.83,Yes,quiteSure,hit,0.8839190006256104,NA
68,#49uet5,False,53,2,unequal,ST2_high_2_a1,P != T2?,Same,2,1,high,112,1.19,82,1.32,82,1.54,No,quiteSure,cr,1.312551736831665,NA
69,#49uet5,False,54,2,unequal,ST2_low_6_a2,P != T2?,Same,2,2,low,154,0.81,96,1.07,96,1.34,No,quiteSure,cr,1.159365177154541,NA
70,#49uet5,False,55,2,unequal,ST1_low_2_a2,P != T2?,Same,1,2,low,132,0.84,82,1.45,132,0.79,Yes,sure,hit,2.223587989807129,NA
71,#49uet5,False,56,2,unequal,ST1_high_2_a1,P != T1?,Same,1,1,high,112,1.16,82,1.5,112,1.02,No,unsure,cr,2.8185601234436035,NA
72,#49uet5,False,57,2,unequal,ST1_high_1_a1,P != T1?,Same,1,1,high,82,1.34,112,0.95,82,1.43,No,quiteSure,cr,1.3607990741729736,NA
73,#49uet5,False,58,2,unequal,ST1_low_6_a2,P != T2?,Same,1,2,low,154,0.85,96,1.31,154,0.73,Yes,quiteSure,hit,1.31156587600708,NA
74,#49uet5,False,59,2,unequal,ST1_low_3_a2,P != T2?,Same,1,2,low,70,1.77,112,0.99,70,1.72,Yes,sure,hit,1.0884180068969727,NA
75,#49uet5,False,60,2,unequal,ST1_high_5_a1,P != T2?,Same,1,1,high,96,1.33,132,0.81,96,1.37,Yes,sure,hit,0.8399207592010498,NA
76,#49uet5,False,61,2,unequal,ST2_low_6_a1,P != T1?,Same,2,1,low,154,0.85,96,1.07,96,1.08,No,unsure,miss,2.9597487449645996,NA
77,#49uet5,False,62,2,unequal,ST2_high_5_a2,P != T2?,Same,2,2,high,96,1.34,132,0.88,132,0.94,No,quiteSure,cr,1.023447036743164,NA
78,#49uet5,False,63,2,unequal,ST1_low_2_a1,P != T2?,Same,1,1,low,132,0.92,82,1.51,132,0.98,Yes,sure,hit,1.087402105331421,NA
79,#49uet5,False,64,2,unequal,DT1_low_1_a2,P != T2?,Different,1,2,low,82,1.61,132,0.96,70,1.77,Yes,sure,hit,1.1848959922790527,NA
80,#49uet5,False,65,2,unequal,ST2_high_2_a1,P != T2?,Same,2,1,high,112,0.96,82,1.29,82,1.39,No,quiteSure,cr,1.2465429306030273,NA
81,#49uet5,False,66,2,unequal,ST2_low_5_a2,P != T2?,Same,2,2,low,96,1.33,154,0.85,154,0.87,No,quiteSure,cr,0.8787429332733154,NA
82,#49uet5,False,67,2,unequal,ST2_low_2_a1,P != T2?,Same,2,1,low,132,0.86,82,1.48,82,1.26,No,quiteSure,cr,0.7990779876708984,NA
83,#49uet5,False,68,2,unequal,ST2_high_4_a2,P != T2?,Same,2,2,high,96,1.29,70,1.38,70,1.82,No,quiteSure,cr,0.8904650211334229,NA
84,#49uet5,False,69,2,unequal,ST1_low_1_a2,P != T1?,Same,1,2,low,82,1.51,132,0.85,82,1.49,No,quiteSure,cr,0.9798662662506104,NA
85,#49uet5,False,70,2,unequal,ST1_low_3_a1,P != T1?,Same,1,1,low,70,1.5,112,1.0,70,1.74,No,quiteSure,cr,1.0209050178527832,NA
86,#49uet5,False,71,2,unequal,ST2_high_5_a2,P != T2?,Same,2,2,high,96,1.41,132,0.89,132,0.81,No,quiteSure,cr,0.8253152370452881,NA
87,#49uet5,False,72,2,unequal,ST2_high_4_a2,P != T1?,Same,2,2,high,96,1.24,70,1.78,70,1.47,No,sure,miss,1.3403220176696777,NA
88,#49uet5,False,73,2,unequal,STb_1_a1,P != T1?,Same,0,1,None,60,1.65,60,1.78,60,1.58,No,unsure,cr,1.4288482666015625,NA
89,#49uet5,False,74,2,unequal,ST1_high_6_a1,P != T2?,Same,1,1,high,132,1.04,96,1.4,132,0.94,No,sure,miss,1.0423851013183594,NA
90,#49uet5,False,75,2,unequal,ST1_high_2_a1,P != T1?,Same,1,1,high,112,1.04,82,1.23,112,1.01,No,quiteSure,cr,0.8924651145935059,NA
91,#49uet5,False,76,2,unequal,DT2_high_4_a2,P != T1?,Different,2,2,high,96,1.07,70,1.59,60,1.65,No,quiteSure,miss,2.285057783126831,NA
92,#49uet5,False,77,2,unequal,ST1_low_5_a2,P != T2?,Same,1,2,low,96,1.19,154,0.79,96,1.16,No,quiteSure,miss,1.3811309337615967,NA
93,#49uet5,False,78,2,unequal,STb_7_a1,P != T2?,Same,0,1,None,154,0.72,154,0.85,154,0.84,No,quiteSure,cr,0.7775280475616455,NA
94,#49uet5,False,79,2,unequal,ST2_high_3_a2,P != T1?,Same,2,2,high,70,1.41,96,1.1,96,1.37,No,quiteSure,miss,1.730238914489746,NA
95,#49uet5,False,80,2,unequal,ST2_low_3_a1,P != T2?,Same,2,1,low,70,1.54,112,1.15,112,1.21,No,quiteSure,cr,0.995764970779419,NA
96,#49uet5,False,81,2,unequal,ST1_low_1_a1,P != T2?,Same,1,1,low,82,1.26,132,0.89,82,1.52,Yes,sure,hit,2.6012380123138428,NA
97,#49uet5,False,82,2,unequal,DT2_high_2_a1,P != T1?,Different,2,1,high,112,1.02,82,1.28,70,1.81,Yes,sure,hit,2.0130040645599365,NA
98,#49uet5,False,83,2,unequal,ST1_low_1_a1,P != T1?,Same,1,1,low,82,1.59,132,1.04,82,1.55,No,unsure,cr,2.0099117755889893,NA
99,#49uet5,False,84,2,unequal,STb_7_a2,P != T2?,Same,0,2,None,154,0.71,154,0.77,154,0.91,No,unsure,cr,1.0424578189849854,NA
100,#49uet5,False,85,2,unequal,ST1_high_1_a2,P != T2?,Same,1,2,high,82,1.36,112,0.88,82,1.84,Yes,quiteSure,hit,2.0566978454589844,NA
101,#49uet5,False,86,2,unequal,ST1_high_4_a1,P != T1?,Same,1,1,high,96,1.1,70,1.58,96,1.37,No,unsure,cr,2.351691961288452,NA
102,#49uet5,False,87,2,unequal,DT1_low_1_a1,P != T2?,Different,1,1,low,82,1.6,132,1.0,70,1.75,Yes,quiteSure,hit,3.3373398780822754,NA
103,#49uet5,False,88,2,unequal,ST1_high_6_a2,P != T1?,Same,1,2,high,132,0.91,96,1.12,132,0.82,No,quiteSure,cr,1.543962001800537,NA
104,#49uet5,False,89,2,unequal,ST1_low_4_a2,P != T2?,Same,1,2,low,112,1.0,70,1.51,112,1.16,Yes,sure,hit,1.0485949516296387,NA
105,#49uet5,False,90,2,unequal,ST1_low_2_a2,P != T1?,Same,1,2,low,132,0.93,82,1.39,132,1.03,No,quiteSure,cr,0.9116537570953369,NA
106,#49uet5,False,91,2,unequal,ST1_low_4_a1,P != T2?,Same,1,1,low,112,1.03,70,1.45,112,1.05,No,quiteSure,miss,0.8266351222991943,NA
107,#49uet5,False,92,2,unequal,ST1_high_2_a1,P != T2?,Same,1,1,high,112,1.06,82,1.53,112,0.95,Yes,quiteSure,hit,1.656825065612793,NA
108,#49uet5,False,93,2,unequal,ST2_low_1_a2,P != T1?,Same,2,2,low,82,1.62,132,1.0,132,0.97,Yes,sure,hit,0.9318399429321289,NA
109,#49uet5,False,94,2,unequal,ST1_high_3_a1,P != T2?,Same,1,1,high,70,1.41,96,1.32,70,1.45,Yes,quiteSure,hit,1.001805067062378,NA
110,#49uet5,False,95,2,unequal,ST1_low_1_a1,P != T1?,Same,1,1,low,82,1.22,132,0.95,82,1.51,No,quiteSure,cr,0.9291839599609375,NA
111,#49uet5,False,96,2,unequal,ST1_low_6_a1,P != T1?,Same,1,1,low,154,0.77,96,1.39,154,0.87,No,unsure,cr,2.917296886444092,NA
112,#49uet5,False,97,2,unequal,ST1_low_4_a1,P != T1?,Same,1,1,low,112,1.23,70,1.68,112,0.95,No,quiteSure,cr,1.609084129333496,NA
113,#49uet5,False,98,2,unequal,DT1_low_3_a2,P != T2?,Different,1,2,low,70,1.65,112,1.09,60,1.57,Yes,sure,hit,1.244323968887329,NA
114,#49uet5,False,99,2,unequal,ST2_low_3_a1,P != T1?,Same,2,1,low,70,1.53,112,1.11,112,1.18,Yes,sure,hit,1.0199742317199707,NA
115,#49uet5,False,100,2,unequal,ST1_high_1_a2,P != T1?,Same,1,2,high,82,1.63,112,0.93,82,1.27,No,quiteSure,cr,0.9121670722961426,NA
116,#49uet5,False,101,2,unequal,ST2_low_2_a2,P != T2?,Same,2,2,low,132,0.9,82,1.58,82,1.27,No,quiteSure,cr,0.9513542652130127,NA
117,#49uet5,False,102,2,unequal,ST1_low_1_a2,P != T2?,Same,1,2,low,82,1.26,132,1.01,82,1.41,Yes,sure,hit,1.131767988204956,NA
118,#49uet5,False,103,2,unequal,ST1_low_2_a2,P != T1?,Same,1,2,low,132,0.98,82,1.6,132,0.92,Yes,sure,fa,1.2496750354766846,NA
119,#49uet5,False,104,2,unequal,ST1_low_4_a2,P != T2?,Same,1,2,low,112,1.08,70,1.56,112,1.23,Yes,quiteSure,hit,2.6692261695861816,NA
120,#49uet5,False,105,2,unequal,STb_4_a1,P != T2?,Same,0,1,None,96,1.23,96,1.41,96,1.31,No,quiteSure,cr,0.841235876083374,NA
121,#49uet5,False,106,2,unequal,ST1_high_3_a2,P != T2?,Same,1,2,high,70,1.5,96,1.16,70,1.62,Yes,quiteSure,hit,1.361332893371582,NA
122,#49uet5,False,107,2,unequal,ST1_high_4_a2,P != T2?,Same,1,2,high,96,1.25,70,1.41,96,1.2,Yes,quiteSure,hit,1.4475350379943848,NA
123,#49uet5,False,108,2,unequal,DT2_high_5_a2,P != T2?,Different,2,2,high,96,1.28,132,0.9,154,0.79,Yes,unsure,fa,5.113916873931885,NA
124,#49uet5,False,109,2,unequal,ST1_high_3_a2,P != T1?,Same,1,2,high,70,1.78,96,1.31,70,1.79,No,quiteSure,cr,1.0252959728240967,NA
125,#49uet5,False,110,2,unequal,ST1_low_5_a2,P != T1?,Same,1,2,low,96,1.36,154,0.72,96,1.39,No,quiteSure,cr,1.046550989151001,NA
126,#49uet5,False,111,2,unequal,ST2_low_4_a2,P != T2?,Same,2,2,low,112,1.13,70,1.66,70,1.52,No,quiteSure,cr,0.9515280723571777,NA
127,#49uet5,False,112,2,unequal,ST1_high_4_a2,P != T2?,Same,1,2,high,96,1.37,70,1.47,96,1.39,Yes,sure,hit,1.070706844329834,NA
128,#49uet5,False,113,2,unequal,ST1_low_1_a2,P != T2?,Same,1,2,low,82,1.35,132,0.8,82,1.33,No,unsure,miss,1.1639430522918701,NA
129,#49uet5,False,114,2,unequal,ST2_high_5_a1,P != T1?,Same,2,1,high,96,1.36,132,0.98,132,0.9,Yes,sure,hit,1.0206689834594727,NA
130,#49uet5,False,115,2,unequal,ST1_high_6_a1,P != T1?,Same,1,1,high,132,0.82,96,1.28,132,0.83,No,quiteSure,cr,1.0692260265350342,NA
131,#49uet5,False,116,2,unequal,ST2_high_1_a1,P != T1?,Same,2,1,high,82,1.26,112,1.02,112,1.18,Yes,quiteSure,hit,0.9776871204376221,NA
132,#49uet5,False,117,2,unequal,ST1_low_1_a2,P != T1?,Same,1,2,low,82,1.31,132,1.04,82,1.25,No,unsure,cr,1.424299955368042,NA
133,#49uet5,False,118,2,unequal,ST1_low_6_a2,P != T2?,Same,1,2,low,154,0.72,96,1.25,154,0.72,Yes,quiteSure,hit,0.9514961242675781,NA
134,#49uet5,False,119,2,unequal,ST2_low_6_a1,P != T2?,Same,2,1,low,154,0.75,96,1.12,96,1.4,No,quiteSure,cr,1.8595960140228271,NA
135,#49uet5,False,120,2,unequal,DT1_high_3_a1,P != T1?,Different,1,1,high,70,1.52,96,1.35,60,1.96,Yes,quiteSure,fa,1.9912679195404053,NA
136,#49uet5,False,121,2,unequal,ST1_low_6_a1,P != T1?,Same,1,1,low,154,0.93,96,1.28,154,0.77,No,quiteSure,cr,0.9973790645599365,NA
137,#49uet5,False,122,2,unequal,ST2_high_2_a1,P != T1?,Same,2,1,high,112,0.92,82,1.58,82,1.35,Yes,sure,hit,1.1123950481414795,NA
138,#49uet5,False,123,2,unequal,ST2_low_1_a2,P != T2?,Same,2,2,low,82,1.25,132,1.03,132,0.79,No,quiteSure,cr,0.865760087966919,NA
139,#49uet5,False,124,2,unequal,ST1_high_1_a2,P != T2?,Same,1,2,high,82,1.49,112,1.23,82,1.28,Yes,sure,hit,0.950829029083252,NA
140,#49uet5,False,125,2,unequal,ST2_high_5_a2,P != T1?,Same,2,2,high,96,1.31,132,1.02,132,1.04,Yes,sure,hit,0.9090981483459473,NA
141,#49uet5,False,126,2,unequal,ST2_high_2_a2,P != T2?,Same,2,2,high,112,0.92,82,1.6,82,1.59,No,quiteSure,cr,0.8463187217712402,NA
142,#49uet5,False,127,2,unequal,ST1_low_5_a1,P != T2?,Same,1,1,low,96,1.1,154,0.82,96,1.22,Yes,sure,hit,1.0703380107879639,NA
143,#49uet5,False,128,2,unequal,ST1_high_2_a2,P != T1?,Same,1,2,high,112,0.96,82,1.48,112,1.23,No,quiteSure,cr,1.0481326580047607,NA
144,#49uet5,False,129,2,unequal,ST2_low_2_a1,P != T2?,Same,2,1,low,132,0.92,82,1.26,82,1.57,No,quiteSure,cr,0.8453812599182129,NA
145,#49uet5,False,130,2,unequal,ST2_low_1_a1,P != T1?,Same,2,1,low,82,1.49,132,0.98,132,0.84,Yes,sure,hit,1.5635972023010254,NA
146,#49uet5,False,131,2,unequal,ST2_high_2_a2,P != T1?,Same,2,2,high,112,1.06,82,1.35,82,1.6,Yes,sure,hit,2.126875162124634,NA
147,#49uet5,False,132,2,unequal,ST1_high_5_a2,P != T1?,Same,1,2,high,96,1.28,132,0.86,96,1.32,No,unsure,cr,4.081173896789551,NA
148,#49uet5,False,133,2,unequal,ST2_high_1_a2,P != T1?,Same,2,2,high,82,1.26,112,1.16,112,1.22,Yes,sure,hit,1.0428168773651123,NA
149,#49uet5,False,134,2,unequal,ST2_high_6_a1,P != T2?,Same,2,1,high,132,0.99,96,1.3,96,1.35,No,quiteSure,cr,1.0018048286437988,NA
150,#49uet5,False,135,2,unequal,DT1_high_1_a2,P != T1?,Different,1,2,high,82,1.49,112,0.99,70,1.4,Yes,quiteSure,fa,2.150717258453369,NA
151,#49uet5,False,136,2,unequal,DT1_high_4_a1,P != T1?,Different,1,1,high,96,1.32,70,1.5,112,1.12,No,quiteSure,cr,1.4686689376831055,NA
152,#49uet5,False,137,2,unequal,ST1_high_6_a2,P != T2?,Same,1,2,high,132,0.9,96,1.14,132,1.02,Yes,quiteSure,hit,1.5614571571350098,NA
153,#49uet5,False,138,2,unequal,ST2_low_6_a1,P != T2?,Same,2,1,low,154,0.73,96,1.16,96,1.06,No,quiteSure,cr,1.5389528274536133,NA
154,#49uet5,False,139,2,unequal,ST2_low_1_a2,P != T1?,Same,2,2,low,82,1.31,132,0.84,132,0.93,Yes,sure,hit,1.042060136795044,NA
155,#49uet5,False,140,2,unequal,ST1_low_2_a1,P != T1?,Same,1,1,low,132,1.0,82,1.39,132,0.99,No,quiteSure,cr,0.8032639026641846,NA
156,#49uet5,False,141,2,unequal,ST1_low_3_a2,P != T1?,Same,1,2,low,70,1.83,112,1.11,70,1.61,No,quiteSure,cr,1.3162360191345215,NA
157,#49uet5,False,142,2,unequal,ST2_low_5_a2,P != T2?,Same,2,2,low,96,1.32,154,0.82,154,0.93,No,quiteSure,cr,0.8612532615661621,NA
158,#49uet5,False,143,2,unequal,ST1_low_1_a2,P != T2?,Same,1,2,low,82,1.25,132,0.84,82,1.39,Yes,sure,hit,1.0320219993591309,NA
159,#49uet5,False,144,2,unequal,ST1_high_1_a1,P != T2?,Same,1,1,high,82,1.55,112,0.93,82,1.23,Yes,sure,hit,1.1594748497009277,NA
160,#49uet5,False,145,2,unequal,ST2_low_4_a2,P != T1?,Same,2,2,low,112,1.04,70,1.58,70,1.38,Yes,sure,hit,0.913672924041748,NA
161,#49uet5,False,146,2,unequal,ST2_high_4_a1,P != T2?,Same,2,1,high,96,1.12,70,1.7,70,1.64,No,quiteSure,cr,0.8848757743835449,NA
162,#49uet5,False,147,2,unequal,ST2_high_6_a2,P != T1?,Same,2,2,high,132,0.98,96,1.38,96,1.17,Yes,sure,hit,1.0674431324005127,NA
163,#49uet5,False,148,2,unequal,ST1_high_3_a1,P != T2?,Same,1,1,high,70,1.47,96,1.08,70,1.44,Yes,unsure,hit,2.306133985519409,NA
164,#49uet5,False,149,2,unequal,ST2_high_3_a2,P != T1?,Same,2,2,high,70,1.63,96,1.17,96,1.14,Yes,sure,hit,1.1176507472991943,NA
165,#49uet5,False,150,2,unequal,ST1_low_6_a2,P != T1?,Same,1,2,low,154,0.95,96,1.41,154,0.82,No,quiteSure,cr,1.3381361961364746,NA
166,#49uet5,False,151,2,unequal,ST2_high_5_a1,P != T1?,Same,2,1,high,96,1.38,132,0.9,132,1.03,Yes,sure,hit,0.9540600776672363,NA
167,#49uet5,False,152,2,unequal,ST1_low_4_a1,P != T2?,Same,1,1,low,112,1.16,70,1.79,112,1.09,Yes,sure,hit,1.154026985168457,NA
168,#49uet5,False,153,2,unequal,ST1_low_2_a2,P != T2?,Same,1,2,low,132,0.96,82,1.28,132,0.96,Yes,sure,hit,1.1561479568481445,NA
169,#49uet5,False,154,2,unequal,ST1_low_5_a1,P != T1?,Same,1,1,low,96,1.42,154,0.86,96,1.19,No,quiteSure,cr,0.8640058040618896,NA
170,#49uet5,False,155,2,unequal,ST1_high_1_a2,P != T2?,Same,1,2,high,82,1.41,112,1.11,82,1.42,Yes,sure,hit,0.8877060413360596,NA
171,#49uet5,False,156,2,unequal,ST2_low_5_a1,P != T2?,Same,2,1,low,96,1.07,154,0.88,154,0.95,No,sure,cr,0.9096419811248779,NA
172,#49uet5,False,157,2,unequal,ST1_high_3_a2,P != T2?,Same,1,2,high,70,1.41,96,1.15,70,1.54,No,unsure,miss,2.2133991718292236,NA
173,#49uet5,False,158,2,unequal,ST2_high_3_a1,P != T2?,Same,2,1,high,70,1.44,96,1.29,96,1.43,No,quiteSure,cr,0.9793598651885986,NA
174,#49uet5,False,159,2,unequal,ST2_high_6_a2,P != T1?,Same,2,2,high,132,0.94,96,1.07,96,1.31,Yes,quiteSure,hit,1.6513221263885498,NA
175,#49uet5,False,160,2,unequal,ST1_low_3_a2,P != T2?,Same,1,2,low,70,1.82,112,1.14,70,1.74,Yes,sure,hit,0.9770822525024414,NA
176,#49uet5,False,161,2,unequal,ST1_low_4_a1,P != T2?,Same,1,1,low,112,1.12,70,1.77,112,1.11,Yes,quiteSure,hit,1.0914561748504639,NA
177,#49uet5,False,162,2,unequal,ST1_high_2_a2,P != T1?,Same,1,2,high,112,0.97,82,1.28,112,0.94,No,quiteSure,cr,1.089599847793579,NA
178,#49uet5,False,163,2,unequal,ST2_high_2_a2,P != T1?,Same,2,2,high,112,0.99,82,1.38,82,1.34,Yes,sure,hit,1.0464329719543457,NA
179,#49uet5,False,164,2,unequal,ST1_low_4_a2,P != T2?,Same,1,2,low,112,1.16,70,1.54,112,1.03,Yes,quiteSure,hit,1.0776209831237793,NA
180,#49uet5,False,165,2,unequal,DT2_high_2_a2,P != T1?,Different,2,2,high,112,0.93,82,1.58,70,1.45,Yes,quiteSure,hit,0.9990460872650146,NA
181,#49uet5,False,166,2,unequal,ST1_low_3_a2,P != T1?,Same,1,2,low,70,1.38,112,1.0,70,1.52,No,quiteSure,cr,1.044759750366211,NA
182,#49uet5,False,167,2,unequal,ST1_low_2_a1,P != T1?,Same,1,1,low,132,0.94,82,1.62,132,0.85,No,quiteSure,cr,2.2633559703826904,NA
183,#49uet5,False,168,2,unequal,ST1_low_1_a1,P != T2?,Same,1,1,low,82,1.46,132,0.86,82,1.23,Yes,quiteSure,hit,1.0454657077789307,NA
184,#49uet5,False,169,2,unequal,ST2_high_4_a1,P != T1?,Same,2,1,high,96,1.4,70,1.84,70,1.66,Yes,quiteSure,hit,1.0664520263671875,NA
185,#49uet5,False,170,2,unequal,STb_4_a1,P != T1?,Same,0,1,None,96,0.98,96,1.18,96,1.38,No,unsure,cr,1.71710205078125,NA
186,#49uet5,False,171,2,unequal,ST1_high_5_a2,P != T2?,Same,1,2,high,96,1.28,132,0.98,96,1.43,Yes,quiteSure,hit,0.9368510246276855,NA
187,#49uet5,False,172,2,unequal,ST2_high_6_a2,P != T1?,Same,2,2,high,132,0.88,96,1.06,96,1.29,No,unsure,miss,3.0642759799957275,NA
188,#49uet5,False,173,2,unequal,ST1_high_6_a1,P != T1?,Same,1,1,high,132,0.95,96,1.27,132,0.9,No,quiteSure,cr,1.0022430419921875,NA
189,#49uet5,False,174,2,unequal,ST2_high_2_a1,P != T1?,Same,2,1,high,112,1.03,82,1.23,82,1.48,Yes,quiteSure,hit,1.1984221935272217,NA
190,#49uet5,False,175,2,unequal,ST1_high_6_a2,P != T1?,Same,1,2,high,132,0.82,96,1.2,132,0.84,No,quiteSure,cr,0.8652918338775635,NA
191,#49uet5,False,176,2,unequal,ST2_high_4_a1,P != T2?,Same,2,1,high,96,1.4,70,1.64,70,1.79,No,quiteSure,cr,0.7830138206481934,NA
192,#49uet5,False,177,2,unequal,ST1_low_5_a1,P != T2?,Same,1,1,low,96,1.4,154,0.8,96,1.1,Yes,quiteSure,hit,1.2938721179962158,NA
193,#49uet5,False,178,2,unequal,ST1_low_5_a2,P != T2?,Same,1,2,low,96,1.21,154,0.78,96,1.37,Yes,quiteSure,hit,1.0230188369750977,NA
194,#49uet5,False,179,2,unequal,ST1_low_3_a1,P != T2?,Same,1,1,low,70,1.62,112,0.92,70,1.51,Yes,quiteSure,hit,0.8651947975158691,NA
195,#49uet5,False,180,2,unequal,ST2_low_4_a1,P != T1?,Same,2,1,low,112,1.19,70,1.57,70,1.69,Yes,quiteSure,hit,1.2695140838623047,NA
196,#49uet5,False,181,2,unequal,STb_7_a2,P != T1?,Same,0,2,None,154,0.85,154,0.86,154,0.71,No,quiteSure,cr,0.870408296585083,NA
197,#49uet5,False,182,2,unequal,ST1_high_3_a2,P != T1?,Same,1,2,high,70,1.45,96,1.41,70,1.64,No,unsure,cr,2.573683977127075,NA
198,#49uet5,False,183,2,unequal,ST1_low_6_a2,P != T2?,Same,1,2,low,154,0.83,96,1.3,154,0.71,Yes,sure,hit,1.0897941589355469,NA
199,#49uet5,False,184,2,unequal,ST1_low_5_a2,P != T2?,Same,1,2,low,96,1.14,154,0.81,96,1.3,Yes,quiteSure,hit,1.073106050491333,NA
200,#49uet5,False,185,2,unequal,ST2_high_5_a2,P != T1?,Same,2,2,high,96,1.09,132,0.79,132,0.86,Yes,sure,hit,1.2037370204925537,NA
201,#49uet5,False,186,2,unequal,ST2_low_1_a1,P != T1?,Same,2,1,low,82,1.49,132,0.82,132,1.02,Yes,quiteSure,hit,0.9323740005493164,NA
202,#49uet5,False,187,2,unequal,ST2_high_6_a2,P != T2?,Same,2,2,high,132,1.06,96,1.27,96,1.36,No,quiteSure,cr,0.8433237075805664,NA
203,#49uet5,False,188,2,unequal,ST1_high_6_a2,P != T1?,Same,1,2,high,132,0.96,96,1.11,132,0.79,No,quiteSure,cr,0.9524588584899902,NA
204,#49uet5,False,189,2,unequal,ST2_low_6_a2,P != T1?,Same,2,2,low,154,0.91,96,1.07,96,1.21,Yes,sure,hit,0.926234245300293,NA
205,#49uet5,False,190,2,unequal,ST1_high_5_a1,P != T1?,Same,1,1,high,96,1.37,132,0.9,96,1.13,No,quiteSure,cr,2.4382619857788086,NA
206,#49uet5,False,191,2,unequal,ST1_low_3_a1,P != T1?,Same,1,1,low,70,1.8,112,0.91,70,1.57,No,quiteSure,cr,1.0892908573150635,NA
207,#49uet5,False,192,2,unequal,DT2_high_4_a1,P != T1?,Different,2,1,high,96,1.41,70,1.61,60,1.72,Yes,quiteSure,hit,1.050347089767456,NA
208,#49uet5,False,193,2,unequal,ST2_low_3_a2,P != T1?,Same,2,2,low,70,1.52,112,1.03,112,1.2,Yes,quiteSure,hit,1.0018272399902344,NA
209,#49uet5,False,194,2,unequal,ST2_low_5_a1,P != T1?,Same,2,1,low,96,1.35,154,0.79,154,0.94,Yes,sure,hit,0.8447039127349854,NA
210,#49uet5,False,195,2,unequal,ST2_high_2_a2,P != T2?,Same,2,2,high,112,0.96,82,1.61,82,1.31,No,quiteSure,cr,1.045517921447754,NA
211,#49uet5,False,196,2,unequal,STb_5_a2,P != T1?,Same,0,2,None,112,0.98,112,0.99,112,1.0,No,quiteSure,cr,0.662971019744873,NA
212,#49uet5,False,197,2,unequal,ST2_low_4_a1,P != T2?,Same,2,1,low,112,1.09,70,1.53,70,1.85,No,quiteSure,cr,0.8892219066619873,NA
213,#49uet5,False,198,2,unequal,ST2_high_1_a1,P != T2?,Same,2,1,high,82,1.64,112,1.02,112,0.98,No,quiteSure,cr,0.8433780670166016,NA
214,#49uet5,False,199,2,unequal,ST2_high_4_a1,P != T1?,Same,2,1,high,96,1.19,70,1.64,70,1.67,Yes,quiteSure,hit,2.9962098598480225,NA
215,#49uet5,False,200,2,unequal,ST1_high_4_a2,P != T1?,Same,1,2,high,96,1.28,70,1.84,96,1.17,No,quiteSure,cr,2.5485990047454834,NA
216,#49uet5,False,201,2,unequal,ST2_low_1_a1,P != T2?,Same,2,1,low,82,1.36,132,0.81,132,0.9,No,quiteSure,cr,0.7763550281524658,NA
217,#49uet5,False,202,2,unequal,ST2_high_3_a1,P != T1?,Same,2,1,high,70,1.54,96,1.37,96,1.42,Yes,sure,hit,1.1629118919372559,NA
218,#49uet5,False,203,2,unequal,DT1_low_3_a2,P != T1?,Different,1,2,low,70,1.78,112,1.2,60,1.98,Yes,unsure,fa,2.7565486431121826,NA
219,#49uet5,False,204,2,unequal,ST2_low_5_a1,P != T2?,Same,2,1,low,96,1.31,154,0.93,154,0.79,No,quiteSure,cr,0.8624897003173828,NA
220,#49uet5,False,205,2,unequal,ST2_high_3_a2,P != T2?,Same,2,2,high,70,1.59,96,1.2,96,1.11,Yes,quiteSure,fa,1.8166728019714355,NA
221,#49uet5,False,206,2,unequal,ST2_high_6_a1,P != T2?,Same,2,1,high,132,0.81,96,1.3,96,1.33,No,quiteSure,cr,0.8594610691070557,NA
222,#49uet5,False,207,2,unequal,ST1_low_6_a1,P != T2?,Same,1,1,low,154,0.89,96,1.3,154,0.72,Yes,quiteSure,hit,1.064220905303955,NA
223,#49uet5,False,208,2,unequal,ST2_high_3_a1,P != T1?,Same,2,1,high,70,1.5,96,1.07,96,1.1,Yes,unsure,hit,2.531209945678711,NA
224,#49uet5,False,209,2,unequal,ST1_low_5_a1,P != T2?,Same,1,1,low,96,1.16,154,0.8,96,1.14,Yes,quiteSure,hit,0.9813930988311768,NA
225,#49uet5,False,210,2,unequal,ST2_high_2_a1,P != T1?,Same,2,1,high,112,1.07,82,1.56,82,1.51,Yes,sure,hit,1.0232441425323486,NA
226,#49uet5,False,211,2,unequal,ST2_low_3_a1,P != T2?,Same,2,1,low,70,1.84,112,1.19,112,0.95,No,quiteSure,cr,0.9005191326141357,NA
227,#49uet5,False,212,2,unequal,ST2_high_4_a1,P != T1?,Same,2,1,high,96,1.14,70,1.41,70,1.72,Yes,quiteSure,hit,0.9788548946380615,NA
228,#49uet5,False,213,2,unequal,ST1_low_6_a1,P != T2?,Same,1,1,low,154,0.83,96,1.42,154,0.76,Yes,sure,hit,1.1558690071105957,NA
229,#49uet5,False,214,2,unequal,ST1_low_1_a1,P != T1?,Same,1,1,low,82,1.36,132,0.9,82,1.48,No,quiteSure,cr,3.2858428955078125,NA
230,#49uet5,False,215,2,unequal,ST1_low_6_a2,P != T1?,Same,1,2,low,154,0.88,96,1.36,154,0.86,No,quiteSure,cr,1.0879201889038086,NA
231,#49uet5,False,216,2,unequal,ST1_high_1_a2,P != T1?,Same,1,2,high,82,1.3,112,1.12,82,1.37,No,quiteSure,cr,1.2191481590270996,NA
232,#49uet5,False,217,2,unequal,ST2_high_3_a1,P != T2?,Same,2,1,high,70,1.71,96,1.19,96,1.11,No,quiteSure,cr,0.9023318290710449,NA
233,#49uet5,False,218,2,unequal,ST1_high_4_a1,P != T2?,Same,1,1,high,96,1.07,70,1.5,96,1.18,No,quiteSure,miss,0.8509659767150879,NA
234,#49uet5,False,219,2,unequal,ST1_low_3_a1,P != T2?,Same,1,1,low,70,1.39,112,1.04,70,1.65,Yes,sure,hit,1.0731148719787598,NA
235,#49uet5,False,220,2,unequal,ST2_high_1_a2,P != T2?,Same,2,2,high,82,1.26,112,1.04,112,0.93,No,quiteSure,cr,0.8666989803314209,NA
236,#49uet5,False,221,2,unequal,ST1_low_4_a2,P != T1?,Same,1,2,low,112,1.05,70,1.74,112,0.95,No,quiteSure,cr,1.5331928730010986,NA
237,#49uet5,False,222,2,unequal,ST1_low_5_a1,P != T1?,Same,1,1,low,96,1.06,154,0.71,96,1.27,No,unsure,cr,1.8116989135742188,NA
238,#49uet5,False,223,2,unequal,ST1_low_2_a2,P != T2?,Same,1,2,low,132,0.88,82,1.39,132,0.9,Yes,sure,hit,2.2377212047576904,NA
239,#49uet5,False,224,2,unequal,ST1_high_3_a2,P != T1?,Same,1,2,high,70,1.61,96,1.16,70,1.7,No,quiteSure,cr,1.4690320491790771,NA
240,#49uet5,False,225,2,unequal,ST2_low_4_a2,P != T1?,Same,2,2,low,112,1.0,70,1.65,70,1.63,No,quiteSure,miss,1.1616249084472656,NA
241,#49uet5,False,226,2,unequal,ST2_high_4_a2,P != T2?,Same,2,2,high,96,1.38,70,1.65,70,1.67,No,quiteSure,cr,0.9700438976287842,NA
242,#49uet5,False,227,2,unequal,ST1_high_5_a2,P != T1?,Same,1,2,high,96,1.25,132,0.92,96,1.14,No,quiteSure,cr,1.1456727981567383,NA
243,#49uet5,False,228,2,unequal,STb_6_a2,P != T2?,Same,0,2,None,132,1.06,132,1.05,132,1.0,No,quiteSure,cr,0.7539799213409424,NA
244,#49uet5,False,229,2,unequal,ST2_low_1_a1,P != T2?,Same,2,1,low,82,1.32,132,0.96,132,0.9,No,quiteSure,cr,0.9054982662200928,NA
245,#49uet5,False,230,2,unequal,ST2_high_3_a1,P != T1?,Same,2,1,high,70,1.55,96,1.14,96,1.16,Yes,sure,hit,1.0344011783599854,NA
246,#49uet5,False,231,2,unequal,ST2_low_2_a2,P != T2?,Same,2,2,low,132,0.99,82,1.54,82,1.5,No,quiteSure,cr,1.5831348896026611,NA
247,#49uet5,False,232,2,unequal,ST2_low_2_a2,P != T1?,Same,2,2,low,132,1.01,82,1.4,82,1.38,Yes,sure,hit,1.0816051959991455,NA
248,#49uet5,False,233,2,unequal,ST1_high_5_a1,P != T1?,Same,1,1,high,96,1.38,132,0.93,96,1.33,No,quiteSure,cr,1.2038378715515137,NA
249,#49uet5,False,234,2,unequal,DT2_low_2_a1,P != T2?,Different,2,1,low,132,0.87,82,1.25,70,1.54,No,quiteSure,cr,0.8682401180267334,NA
250,#49uet5,False,235,2,unequal,ST1_low_5_a2,P != T1?,Same,1,2,low,96,1.08,154,0.75,96,1.07,No,unsure,cr,1.1461036205291748,NA
251,#49uet5,False,236,2,unequal,ST2_low_4_a1,P != T1?,Same,2,1,low,112,1.23,70,1.83,70,1.71,Yes,sure,hit,1.1795611381530762,NA
252,#49uet5,False,237,2,unequal,ST1_high_3_a1,P != T2?,Same,1,1,high,70,1.75,96,1.15,70,1.83,Yes,quiteSure,hit,1.0889217853546143,NA
253,#49uet5,False,238,2,unequal,ST2_low_5_a2,P != T1?,Same,2,2,low,96,1.15,154,0.95,154,0.88,Yes,sure,hit,0.9787089824676514,NA
254,#49uet5,False,239,2,unequal,ST1_high_5_a2,P != T2?,Same,1,2,high,96,1.07,132,0.92,96,1.2,Yes,quiteSure,hit,0.8224503993988037,NA
255,#49uet5,False,240,2,unequal,ST2_low_2_a1,P != T2?,Same,2,1,low,132,0.85,82,1.61,82,1.48,Yes,quiteSure,fa,1.0243961811065674,NA
256,#49uet5,False,241,2,unequal,ST1_low_4_a1,P != T1?,Same,1,1,low,112,1.16,70,1.69,112,1.11,No,unsure,cr,3.5176620483398438,NA
257,#49uet5,False,242,2,unequal,ST1_low_6_a2,P != T1?,Same,1,2,low,154,0.83,96,1.32,154,0.73,No,quiteSure,cr,1.0435028076171875,NA
258,#49uet5,False,243,2,unequal,ST2_low_5_a1,P != T1?,Same,2,1,low,96,1.37,154,0.84,154,0.74,Yes,sure,hit,0.9866847991943359,NA
259,#49uet5,False,244,2,unequal,ST1_high_3_a1,P != T1?,Same,1,1,high,70,1.81,96,1.26,70,1.57,Yes,sure,fa,0.8865561485290527,NA
260,#49uet5,False,245,2,unequal,ST1_low_1_a1,P != T2?,Same,1,1,low,82,1.32,132,0.9,82,1.29,Yes,sure,hit,1.0089919567108154,NA
261,#49uet5,False,246,2,unequal,ST1_high_2_a2,P != T2?,Same,1,2,high,112,1.04,82,1.51,112,1.14,Yes,unsure,hit,3.5419199466705322,NA
262,#49uet5,False,247,2,unequal,DT1_high_5_a2,P != T2?,Different,1,2,high,96,1.35,132,0.79,82,1.55,Yes,quiteSure,hit,1.0002789497375488,NA
263,#49uet5,False,248,2,unequal,STb_3_a1,P != T2?,Same,0,1,None,82,1.48,82,1.33,82,1.46,No,quiteSure,cr,0.7336251735687256,NA
264,#49uet5,False,249,2,unequal,ST2_high_5_a1,P != T1?,Same,2,1,high,96,1.2,132,0.81,132,0.85,Yes,sure,hit,1.0450339317321777,NA
265,#49uet5,False,250,2,unequal,ST2_low_2_a1,P != T1?,Same,2,1,low,132,1.05,82,1.61,82,1.55,Yes,sure,hit,0.9762818813323975,NA
266,#49uet5,False,251,2,unequal,ST2_high_3_a2,P != T2?,Same,2,2,high,70,1.81,96,1.06,96,1.37,No,unsure,cr,4.424704074859619,NA
267,#49uet5,False,252,2,unequal,ST2_low_1_a2,P != T1?,Same,2,2,low,82,1.38,132,1.04,132,1.0,Yes,sure,hit,0.8600308895111084,NA
268,#49uet5,False,253,2,unequal,ST2_low_3_a1,P != T1?,Same,2,1,low,70,1.73,112,1.06,112,0.93,Yes,quiteSure,hit,2.613745927810669,NA
269,#49uet5,False,254,2,unequal,ST2_low_1_a1,P != T2?,Same,2,1,low,82,1.63,132,1.0,132,1.02,No,quiteSure,cr,0.8396210670471191,NA
270,#49uet5,False,255,2,unequal,ST1_low_6_a1,P != T1?,Same,1,1,low,154,0.89,96,1.42,154,0.76,No,quiteSure,cr,0.896172046661377,NA
271,#49uet5,False,256,2,unequal,ST1_high_4_a1,P != T1?,Same,1,1,high,96,1.13,70,1.63,96,1.19,No,unsure,cr,1.1897470951080322,NA
272,#49uet5,False,257,2,unequal,ST1_high_1_a1,P != T2?,Same,1,1,high,82,1.41,112,1.05,82,1.47,Yes,quiteSure,hit,1.4710478782653809,NA
273,#49uet5,False,258,2,unequal,ST2_low_6_a2,P != T1?,Same,2,2,low,154,0.77,96,1.25,96,1.26,Yes,quiteSure,hit,0.9748730659484863,NA
274,#49uet5,False,259,2,unequal,ST2_high_3_a2,P != T2?,Same,2,2,high,70,1.64,96,1.12,96,1.12,No,quiteSure,cr,0.8630058765411377,NA
275,#49uet5,False,260,2,unequal,ST2_high_6_a2,P != T2?,Same,2,2,high,132,1.01,96,1.39,96,1.39,No,sure,cr,1.001802921295166,NA
276,#49uet5,False,261,2,unequal,ST1_low_6_a1,P != T2?,Same,1,1,low,154,0.72,96,1.18,154,0.93,Yes,quiteSure,hit,1.0229661464691162,NA
277,#49uet5,False,262,2,unequal,ST1_high_6_a2,P != T2?,Same,1,2,high,132,0.92,96,1.06,132,0.95,Yes,quiteSure,hit,0.9814450740814209,NA
278,#49uet5,False,263,2,unequal,ST1_high_5_a1,P != T2?,Same,1,1,high,96,1.33,132,1.04,96,1.24,Yes,quiteSure,hit,0.9556889533996582,NA
279,#49uet5,False,264,2,unequal,ST1_high_2_a1,P != T2?,Same,1,1,high,112,0.98,82,1.31,112,1.23,Yes,quiteSure,hit,0.8914487361907959,NA
280,#49uet5,False,265,2,unequal,ST2_low_5_a2,P != T1?,Same,2,2,low,96,1.34,154,0.92,154,0.74,Yes,unsure,hit,3.1597843170166016,NA
281,#49uet5,False,266,2,unequal,ST1_high_2_a1,P != T1?,Same,1,1,high,112,1.19,82,1.58,112,1.02,No,quiteSure,cr,1.1327390670776367,NA
282,#49uet5,False,267,2,unequal,ST1_high_5_a1,P != T1?,Same,1,1,high,96,1.17,132,0.94,96,1.08,No,quiteSure,cr,1.846160888671875,NA
283,#49uet5,False,268,2,unequal,ST1_low_4_a2,P != T1?,Same,1,2,low,112,0.95,70,1.61,112,1.0,No,quiteSure,cr,1.1340742111206055,NA
284,#49uet5,False,269,2,unequal,STb_6_a2,P != T1?,Same,0,2,None,132,0.97,132,0.85,132,0.92,No,quiteSure,cr,0.8415191173553467,NA
285,#49uet5,False,270,2,unequal,ST1_low_4_a1,P != T1?,Same,1,1,low,112,1.13,70,1.75,112,0.92,No,quiteSure,cr,0.9534387588500977,NA
286,#49uet5,False,271,2,unequal,ST1_low_2_a2,P != T1?,Same,1,2,low,132,1.02,82,1.5,132,0.81,No,quiteSure,cr,0.8654189109802246,NA
287,#49uet5,False,272,2,unequal,ST1_high_2_a2,P != T2?,Same,1,2,high,112,1.22,82,1.38,112,1.21,Yes,quiteSure,hit,1.3353500366210938,NA
288,#49uet5,False,273,2,unequal,ST2_low_2_a2,P != T1?,Same,2,2,low,132,0.82,82,1.25,82,1.44,Yes,quiteSure,hit,1.1602668762207031,NA
289,#49uet5,False,274,2,unequal,ST2_high_4_a2,P != T1?,Same,2,2,high,96,1.25,70,1.49,70,1.84,Yes,quiteSure,hit,0.9375040531158447,NA
290,#49uet5,False,275,2,unequal,ST1_high_5_a2,P != T2?,Same,1,2,high,96,1.23,132,0.87,96,1.25,Yes,sure,hit,2.1219699382781982,NA
291,#49uet5,False,276,2,unequal,ST2_low_4_a2,P != T2?,Same,2,2,low,112,1.06,70,1.64,70,1.53,No,quiteSure,cr,1.403674840927124,NA
292,#49uet5,False,277,2,unequal,ST1_low_1_a2,P != T1?,Same,1,2,low,82,1.52,132,0.86,82,1.24,No,unsure,cr,2.6994948387145996,NA
293,#49uet5,False,278,2,unequal,ST2_low_2_a1,P != T1?,Same,2,1,low,132,0.86,82,1.21,82,1.49,Yes,quiteSure,hit,0.9575550556182861,NA
294,#49uet5,False,279,2,unequal,ST2_high_3_a1,P != T2?,Same,2,1,high,70,1.46,96,1.39,96,1.3,No,quiteSure,cr,1.1108198165893555,NA
295,#49uet5,False,280,2,unequal,ST1_high_1_a1,P != T1?,Same,1,1,high,82,1.4,112,0.95,82,1.51,No,quiteSure,cr,1.0750389099121094,NA
296,#49uet5,False,281,2,unequal,ST2_low_4_a1,P != T2?,Same,2,1,low,112,1.02,70,1.37,70,1.84,No,quiteSure,cr,1.156491756439209,NA
297,#49uet5,False,282,2,unequal,ST1_low_3_a1,P != T2?,Same,1,1,low,70,1.42,112,1.21,70,1.63,Yes,sure,hit,1.2234299182891846,NA
298,#49uet5,False,283,2,unequal,ST2_low_6_a1,P != T2?,Same,2,1,low,154,0.74,96,1.32,96,1.27,No,quiteSure,cr,1.1600799560546875,NA
299,#49uet5,False,284,2,unequal,ST1_high_4_a1,P != T2?,Same,1,1,high,96,1.06,70,1.43,96,1.12,Yes,sure,hit,1.0493040084838867,NA
300,#49uet5,False,285,2,unequal,ST1_high_6_a2,P != T2?,Same,1,2,high,132,0.94,96,1.17,132,1.03,Yes,sure,hit,0.9994359016418457,NA
301,#49uet5,False,286,2,unequal,ST2_low_1_a2,P != T2?,Same,2,2,low,82,1.25,132,1.04,132,1.01,No,quiteSure,cr,0.8861410617828369,NA
302,#49uet5,False,287,2,unequal,ST1_high_5_a1,P != T2?,Same,1,1,high,96,1.07,132,0.98,96,1.18,Yes,sure,hit,1.475511074066162,NA
303,#49uet5,False,288,2,unequal,ST2_high_5_a2,P != T2?,Same,2,2,high,96,1.16,132,0.83,132,0.94,No,sure,cr,1.5153110027313232,NA
304,#49uet5,False,289,2,unequal,ST1_high_5_a2,P != T1?,Same,1,2,high,96,1.27,132,0.9,96,1.06,No,unsure,cr,1.564253807067871,NA
305,#49uet5,False,290,2,unequal,STb_8_a2,P != T1?,Same,0,2,None,180,0.82,180,0.75,180,0.88,No,quiteSure,cr,0.72914719581604,NA
306,#49uet5,False,291,2,unequal,ST2_high_6_a1,P != T1?,Same,2,1,high,132,1.03,96,1.42,96,1.34,Yes,sure,hit,0.9958019256591797,NA
307,#49uet5,False,292,2,unequal,ST2_high_1_a1,P != T2?,Same,2,1,high,82,1.38,112,1.15,112,1.02,No,quiteSure,cr,1.0874791145324707,NA
308,#49uet5,False,293,2,unequal,ST2_low_2_a2,P != T2?,Same,2,2,low,132,1.02,82,1.55,82,1.59,No,quiteSure,cr,1.0205960273742676,NA
309,#49uet5,False,294,2,unequal,ST1_low_2_a1,P != T2?,Same,1,1,low,132,0.84,82,1.6,132,0.97,Yes,sure,hit,1.0630569458007812,NA
310,#49uet5,False,295,2,unequal,ST2_high_5_a1,P != T2?,Same,2,1,high,96,1.33,132,0.98,132,0.97,No,sure,cr,0.9787771701812744,NA
311,#49uet5,False,296,2,unequal,ST2_high_6_a1,P != T2?,Same,2,1,high,132,1.0,96,1.31,96,1.23,No,quiteSure,cr,3.7951130867004395,NA
312,#49uet5,False,297,2,unequal,ST2_high_5_a1,P != T2?,Same,2,1,high,96,1.35,132,0.83,132,1.06,No,quiteSure,cr,0.8446011543273926,NA
313,#49uet5,False,298,2,unequal,ST2_low_5_a1,P != T1?,Same,2,1,low,96,1.43,154,0.94,154,0.92,Yes,sure,hit,0.9379279613494873,NA
314,#49uet5,False,299,2,unequal,STb_2_a1,P != T2?,Same,0,1,None,70,1.38,70,1.84,70,1.81,No,quiteSure,cr,0.7756719589233398,NA
315,#49uet5,False,300,2,unequal,ST2_low_3_a2,P != T1?,Same,2,2,low,70,1.44,112,1.18,112,0.96,Yes,sure,hit,1.0947489738464355,NA
316,#49uet5,False,301,2,unequal,ST1_low_5_a2,P != T1?,Same,1,2,low,96,1.15,154,0.9,96,1.33,No,quiteSure,cr,1.0421030521392822,NA
317,#49uet5,False,302,2,unequal,ST1_low_4_a2,P != T1?,Same,1,2,low,112,1.13,70,1.54,112,1.15,No,quiteSure,cr,0.8791608810424805,NA
318,#49uet5,False,303,2,unequal,ST1_high_4_a2,P != T2?,Same,1,2,high,96,1.16,70,1.84,96,1.24,No,unsure,miss,0.8373432159423828,NA
319,#49uet5,False,304,2,unequal,ST2_high_5_a2,P != T1?,Same,2,2,high,96,1.25,132,1.02,132,0.83,Yes,sure,hit,0.9097719192504883,NA
320,#49uet5,False,305,2,unequal,ST2_high_1_a1,P != T2?,Same,2,1,high,82,1.59,112,0.99,112,1.04,No,quiteSure,cr,1.1800901889801025,NA
321,#49uet5,False,306,2,unequal,STb_5_a2,P != T2?,Same,0,2,None,112,1.0,112,1.12,112,1.21,No,quiteSure,cr,0.688208818435669,NA
322,#49uet5,False,307,2,unequal,ST2_low_3_a1,P != T1?,Same,2,1,low,70,1.55,112,0.93,112,1.2,Yes,sure,hit,1.0668890476226807,NA
323,#49uet5,False,308,2,unequal,ST2_high_2_a2,P != T1?,Same,2,2,high,112,1.07,82,1.36,82,1.53,Yes,sure,hit,0.9535520076751709,NA
324,#49uet5,False,309,2,unequal,ST1_high_6_a1,P != T2?,Same,1,1,high,132,0.9,96,1.3,132,0.84,Yes,quiteSure,hit,1.0500118732452393,NA
325,#49uet5,False,310,2,unequal,ST2_high_6_a1,P != T1?,Same,2,1,high,132,0.95,96,1.29,96,1.29,Yes,sure,hit,0.9766089916229248,NA
326,#49uet5,False,311,2,unequal,ST2_high_1_a2,P != T2?,Same,2,2,high,82,1.4,112,1.1,112,1.03,No,quiteSure,cr,1.001389980316162,NA
327,#49uet5,False,312,2,unequal,STb_3_a1,P != T1?,Same,0,1,None,82,1.42,82,1.4,82,1.25,No,quiteSure,cr,1.001101016998291,NA
328,#49uet5,False,313,2,unequal,ST1_low_5_a1,P != T1?,Same,1,1,low,96,1.1,154,0.77,96,1.37,No,unsure,cr,1.52168607711792,NA
329,#49uet5,False,314,2,unequal,ST2_low_3_a2,P != T2?,Same,2,2,low,70,1.51,112,0.92,112,1.1,No,sure,cr,0.8458962440490723,NA
330,#49uet5,False,315,2,unequal,ST2_high_1_a2,P != T1?,Same,2,2,high,82,1.24,112,1.16,112,0.92,Yes,quiteSure,hit,1.6724169254302979,NA
331,#49uet5,False,316,2,unequal,ST1_high_4_a2,P != T1?,Same,1,2,high,96,1.41,70,1.38,96,1.4,No,quiteSure,cr,0.8665180206298828,NA
332,#49uet5,False,317,2,unequal,ST1_high_4_a1,P != T2?,Same,1,1,high,96,1.35,70,1.41,96,1.13,Yes,quiteSure,hit,1.2943902015686035,NA
333,#49uet5,False,318,2,unequal,ST2_high_2_a2,P != T2?,Same,2,2,high,112,1.19,82,1.56,82,1.56,No,quiteSure,cr,0.798699140548706,NA
334,#49uet5,False,319,2,unequal,ST1_high_2_a2,P != T1?,Same,1,2,high,112,1.08,82,1.27,112,1.2,No,quiteSure,cr,0.909574031829834,NA
335,#49uet5,False,320,2,unequal,ST2_low_6_a1,P != T1?,Same,2,1,low,154,0.86,96,1.33,96,1.09,Yes,quiteSure,hit,0.9573121070861816,1.0
