,pcode,practice,trial,block,questionType,condition,question,PTS,TargetPosition,AccessoryPosition,TNS,T1_hz,T1_amp,T2_hz,T2_amp,P_hz,P_amp,response_dicho,response_rating,response_sdt,rt,P_correct
0,l4j#10q,True,1,2,unequal,ST1_high_2_a1,P != T1?,Same,1,1,high,112,1.25,82,1.45,112,1.17,No,unsure,cr,13.060955047607422,NA
1,l4j#10q,True,2,2,unequal,DT2_high_3_a1,P != T2?,Different,2,1,high,70,1.73,96,1.14,112,1.09,No,unsure,cr,4.54335880279541,NA
2,l4j#10q,True,3,2,unequal,ST2_low_3_a1,P != T2?,Same,2,1,low,70,1.2,112,0.84,112,1.07,No,quiteSure,cr,2.0956289768218994,NA
3,l4j#10q,True,4,2,unequal,ST2_high_1_a1,P != T1?,Same,2,1,high,82,1.37,112,0.81,112,1.05,Yes,quiteSure,hit,3.1078829765319824,NA
4,l4j#10q,True,5,2,unequal,ST1_high_6_a1,P != T2?,Same,1,1,high,132,0.86,96,0.96,132,1.09,Yes,quiteSure,hit,2.948646068572998,NA
5,l4j#10q,True,6,2,unequal,DT1_low_6_a1,P != T1?,Different,1,1,low,154,0.79,96,1.43,180,0.94,Yes,quiteSure,fa,2.6613576412200928,NA
6,l4j#10q,True,7,2,unequal,STb_1_a2,P != T2?,Same,0,2,None,60,1.77,60,1.47,60,1.44,No,quiteSure,cr,2.143489122390747,NA
7,l4j#10q,True,8,2,unequal,STb_3_a2,P != T2?,Same,0,2,None,82,1.57,82,1.2,82,1.09,No,quiteSure,cr,2.1837081909179688,NA
8,l4j#10q,True,9,2,unequal,DT2_low_5_a2,P != T2?,Different,2,2,low,96,1.13,154,0.8,180,0.92,No,quiteSure,cr,2.592200756072998,NA
9,l4j#10q,True,10,2,unequal,ST1_low_2_a1,P != T2?,Same,1,1,low,132,0.99,82,1.79,132,0.88,Yes,quiteSure,hit,7.542011976242065,NA
10,l4j#10q,True,11,2,unequal,DT2_low_6_a2,P != T1?,Different,2,2,low,154,0.94,96,1.08,82,1.52,Yes,quiteSure,hit,4.008880853652954,NA
11,l4j#10q,True,12,2,unequal,ST2_low_2_a2,P != T2?,Same,2,2,low,132,1.03,82,1.79,82,1.59,No,quiteSure,cr,3.5333311557769775,NA
12,l4j#10q,True,13,2,unequal,STb_8_a1,P != T1?,Same,0,1,None,180,0.78,180,0.85,180,0.73,No,quiteSure,cr,2.6590468883514404,NA
13,l4j#10q,True,14,2,unequal,STb_8_a2,P != T1?,Same,0,2,None,180,0.86,180,0.94,180,0.85,No,sure,cr,1.3074901103973389,NA
14,l4j#10q,True,15,2,unequal,ST2_high_3_a2,P != T1?,Same,2,2,high,70,1.29,96,1.46,96,1.04,No,unsure,miss,4.009958982467651,NA
15,l4j#10q,True,16,2,unequal,ST1_low_6_a1,P != T1?,Same,1,1,low,154,0.83,96,1.31,154,0.89,Yes,unsure,fa,5.626569986343384,0.625
16,l4j#10q,False,1,2,unequal,ST2_high_3_a2,P != T1?,Same,2,2,high,70,1.53,96,1.12,96,1.13,Yes,quiteSure,hit,3.107821226119995,NA
17,l4j#10q,False,2,2,unequal,ST1_high_4_a1,P != T2?,Same,1,1,high,96,1.08,70,1.48,96,1.26,No,quiteSure,miss,2.0264039039611816,NA
18,l4j#10q,False,3,2,unequal,ST1_low_2_a2,P != T1?,Same,1,2,low,132,1.01,82,1.38,132,0.92,No,quiteSure,cr,2.766671895980835,NA
19,l4j#10q,False,4,2,unequal,ST1_high_3_a2,P != T2?,Same,1,2,high,70,1.54,96,1.2,70,1.52,Yes,quiteSure,hit,8.01233196258545,NA
20,l4j#10q,False,5,2,unequal,ST2_low_5_a2,P != T1?,Same,2,2,low,96,1.34,154,0.72,154,0.82,Yes,quiteSure,hit,3.9843592643737793,NA
21,l4j#10q,False,6,2,unequal,STb_3_a1,P != T1?,Same,0,1,None,82,1.31,82,1.41,82,1.39,No,quiteSure,cr,3.7086141109466553,NA
22,l4j#10q,False,7,2,unequal,ST2_low_3_a1,P != T1?,Same,2,1,low,70,1.74,112,1.07,112,1.12,Yes,quiteSure,hit,1.8935470581054688,NA
23,l4j#10q,False,8,2,unequal,ST2_high_1_a1,P != T1?,Same,2,1,high,82,1.54,112,1.2,112,1.0,Yes,quiteSure,hit,5.2182042598724365,NA
24,l4j#10q,False,9,2,unequal,STb_1_a1,P != T1?,Same,0,1,None,60,1.98,60,1.91,60,1.68,No,quiteSure,cr,2.6149230003356934,NA
25,l4j#10q,False,10,2,unequal,ST1_low_6_a1,P != T2?,Same,1,1,low,154,0.94,96,1.27,154,0.91,No,quiteSure,miss,2.1558778285980225,NA
26,l4j#10q,False,11,2,unequal,DT1_low_4_a2,P != T2?,Different,1,2,low,112,1.17,70,1.68,132,0.8,Yes,quiteSure,hit,1.8242671489715576,NA
27,l4j#10q,False,12,2,unequal,ST2_low_5_a1,P != T2?,Same,2,1,low,96,1.25,154,0.76,154,0.76,No,quiteSure,cr,2.9923160076141357,NA
28,l4j#10q,False,13,2,unequal,ST1_low_3_a1,P != T1?,Same,1,1,low,70,1.59,112,1.21,70,1.66,No,quiteSure,cr,2.9473929405212402,NA
29,l4j#10q,False,14,2,unequal,ST1_high_5_a2,P != T1?,Same,1,2,high,96,1.35,132,1.05,96,1.37,No,quiteSure,cr,1.4428191184997559,NA
30,l4j#10q,False,15,2,unequal,ST2_low_2_a1,P != T2?,Same,2,1,low,132,1.04,82,1.35,82,1.41,No,quiteSure,cr,1.6987111568450928,NA
31,l4j#10q,False,16,2,unequal,ST1_high_2_a1,P != T2?,Same,1,1,high,112,0.95,82,1.42,112,1.1,No,quiteSure,miss,1.148132085800171,NA
32,l4j#10q,False,17,2,unequal,ST1_low_2_a2,P != T2?,Same,1,2,low,132,0.98,82,1.5,132,0.89,Yes,quiteSure,hit,3.5806500911712646,NA
33,l4j#10q,False,18,2,unequal,ST1_high_3_a1,P != T2?,Same,1,1,high,70,1.84,96,1.4,70,1.38,Yes,quiteSure,hit,3.0842208862304688,NA
34,l4j#10q,False,19,2,unequal,ST1_high_5_a2,P != T2?,Same,1,2,high,96,1.17,132,1.0,96,1.13,Yes,quiteSure,hit,1.5970890522003174,NA
35,l4j#10q,False,20,2,unequal,ST1_high_5_a2,P != T1?,Same,1,2,high,96,1.27,132,0.8,96,1.35,Yes,quiteSure,fa,2.4538040161132812,NA
36,l4j#10q,False,21,2,unequal,ST1_low_2_a1,P != T1?,Same,1,1,low,132,0.97,82,1.41,132,0.82,No,unsure,cr,3.104733943939209,NA
37,l4j#10q,False,22,2,unequal,ST2_high_1_a1,P != T2?,Same,2,1,high,82,1.55,112,0.99,112,0.93,No,unsure,cr,5.4878129959106445,NA
38,l4j#10q,False,23,2,unequal,DT1_high_2_a2,P != T2?,Different,1,2,high,112,1.06,82,1.33,132,0.91,No,unsure,miss,9.584120988845825,NA
39,l4j#10q,False,24,2,unequal,ST2_high_6_a1,P != T1?,Same,2,1,high,132,0.79,96,1.38,96,1.42,Yes,unsure,hit,5.310208082199097,NA
40,l4j#10q,False,25,2,unequal,ST1_high_6_a1,P != T2?,Same,1,1,high,132,0.86,96,0.96,132,1.09,Yes,unsure,hit,2.9619688987731934,NA
41,l4j#10q,False,26,2,unequal,ST1_high_5_a1,P != T2?,Same,1,1,high,96,1.42,132,0.88,96,1.42,No,quiteSure,miss,2.4796948432922363,NA
42,l4j#10q,False,27,2,unequal,ST2_high_4_a2,P != T2?,Same,2,2,high,96,1.15,70,1.43,70,1.84,No,sure,cr,1.2620139122009277,NA
43,l4j#10q,False,28,2,unequal,ST1_low_3_a1,P != T2?,Same,1,1,low,70,1.74,112,1.15,70,1.41,Yes,unsure,hit,3.892575979232788,NA
44,l4j#10q,False,29,2,unequal,ST1_high_4_a1,P != T1?,Same,1,1,high,96,1.18,70,1.62,96,1.14,No,unsure,cr,2.0963399410247803,NA
45,l4j#10q,False,30,2,unequal,ST2_low_3_a1,P != T2?,Same,2,1,low,70,1.65,112,1.06,112,1.11,No,quiteSure,cr,2.569507122039795,NA
46,l4j#10q,False,31,2,unequal,ST2_high_3_a1,P != T2?,Same,2,1,high,70,1.77,96,1.35,96,1.22,Yes,quiteSure,fa,5.054163932800293,NA
47,l4j#10q,False,32,2,unequal,ST2_low_2_a2,P != T1?,Same,2,2,low,132,1.02,82,1.61,82,1.49,Yes,quiteSure,hit,5.534336805343628,NA
48,l4j#10q,False,33,2,unequal,ST1_low_4_a2,P != T1?,Same,1,2,low,112,0.92,70,1.54,112,0.99,No,quiteSure,cr,1.4211161136627197,NA
49,l4j#10q,False,34,2,unequal,ST2_low_4_a1,P != T2?,Same,2,1,low,112,1.1,70,1.53,70,1.42,No,unsure,cr,3.0361828804016113,NA
50,l4j#10q,False,35,2,unequal,STb_6_a2,P != T1?,Same,0,2,None,132,0.8,132,0.88,132,0.97,Yes,unsure,fa,2.1156113147735596,NA
51,l4j#10q,False,36,2,unequal,ST1_high_1_a1,P != T1?,Same,1,1,high,82,1.27,112,1.02,82,1.25,No,unsure,cr,8.5731201171875,NA
52,l4j#10q,False,37,2,unequal,ST1_low_1_a1,P != T2?,Same,1,1,low,82,1.23,132,0.91,82,1.36,Yes,quiteSure,hit,6.776599645614624,NA
53,l4j#10q,False,38,2,unequal,ST2_low_4_a1,P != T1?,Same,2,1,low,112,0.99,70,1.74,70,1.72,Yes,quiteSure,hit,4.438658952713013,NA
54,l4j#10q,False,39,2,unequal,ST1_high_6_a2,P != T2?,Same,1,2,high,132,1.04,96,1.07,132,0.86,No,unsure,miss,5.419309616088867,NA
55,l4j#10q,False,40,2,unequal,DT2_low_3_a1,P != T1?,Different,2,1,low,70,1.6,112,1.13,132,0.94,Yes,unsure,hit,2.544933795928955,NA
56,l4j#10q,False,41,2,unequal,ST2_low_1_a2,P != T1?,Same,2,2,low,82,1.54,132,0.83,132,1.04,Yes,quiteSure,hit,6.2362329959869385,NA
57,l4j#10q,False,42,2,unequal,ST2_low_6_a2,P != T2?,Same,2,2,low,154,0.71,96,1.24,96,1.11,Yes,quiteSure,fa,5.719909906387329,NA
58,l4j#10q,False,43,2,unequal,ST2_high_6_a1,P != T2?,Same,2,1,high,132,0.88,96,1.29,96,1.37,No,quiteSure,cr,2.094446897506714,NA
59,l4j#10q,False,44,2,unequal,ST2_low_6_a2,P != T2?,Same,2,2,low,154,0.75,96,1.22,96,1.33,Yes,unsure,fa,5.64985203742981,NA
60,l4j#10q,False,45,2,unequal,ST2_high_3_a1,P != T1?,Same,2,1,high,70,1.43,96,1.39,96,1.13,Yes,quiteSure,hit,5.539122104644775,NA
61,l4j#10q,False,46,2,unequal,ST2_high_3_a2,P != T2?,Same,2,2,high,70,1.42,96,1.38,96,1.37,No,quiteSure,cr,4.253612995147705,NA
62,l4j#10q,False,47,2,unequal,ST2_high_2_a1,P != T2?,Same,2,1,high,112,1.02,82,1.25,82,1.54,No,quiteSure,cr,1.5352919101715088,NA
63,l4j#10q,False,48,2,unequal,ST2_low_3_a2,P != T2?,Same,2,2,low,70,1.47,112,1.03,112,1.07,No,quiteSure,cr,1.2123839855194092,NA
64,l4j#10q,False,49,2,unequal,ST2_high_3_a1,P != T1?,Same,2,1,high,70,1.38,96,1.12,96,1.13,No,quiteSure,miss,5.579846143722534,NA
65,l4j#10q,False,50,2,unequal,ST2_low_4_a1,P != T2?,Same,2,1,low,112,0.96,70,1.52,70,1.47,No,quiteSure,cr,1.5998849868774414,NA
66,l4j#10q,False,51,2,unequal,ST1_high_6_a2,P != T2?,Same,1,2,high,132,0.87,96,1.39,132,0.86,No,quiteSure,miss,3.8263232707977295,NA
67,l4j#10q,False,52,2,unequal,ST2_high_4_a2,P != T2?,Same,2,2,high,96,1.4,70,1.48,70,1.4,No,quiteSure,cr,2.4088008403778076,NA
68,l4j#10q,False,53,2,unequal,STb_3_a2,P != T2?,Same,0,2,None,82,1.57,82,1.2,82,1.09,No,quiteSure,cr,2.4302620887756348,NA
69,l4j#10q,False,54,2,unequal,ST1_low_1_a1,P != T2?,Same,1,1,low,82,1.32,132,0.9,82,1.41,Yes,quiteSure,hit,2.140015125274658,NA
70,l4j#10q,False,55,2,unequal,ST2_high_2_a1,P != T1?,Same,2,1,high,112,1.16,82,1.61,82,1.57,Yes,unsure,hit,4.524653911590576,NA
71,l4j#10q,False,56,2,unequal,ST2_high_5_a1,P != T1?,Same,2,1,high,96,1.19,132,0.95,132,0.81,No,unsure,miss,4.927563905715942,NA
72,l4j#10q,False,57,2,unequal,ST2_high_5_a1,P != T1?,Same,2,1,high,96,1.42,132,0.88,132,0.9,No,quiteSure,miss,1.0939359664916992,NA
73,l4j#10q,False,58,2,unequal,ST2_low_4_a1,P != T1?,Same,2,1,low,112,1.13,70,1.6,70,1.39,No,quiteSure,miss,1.2161121368408203,NA
74,l4j#10q,False,59,2,unequal,ST1_high_6_a1,P != T1?,Same,1,1,high,132,0.97,96,1.17,132,0.91,No,quiteSure,cr,1.2838330268859863,NA
75,l4j#10q,False,60,2,unequal,STb_8_a1,P != T1?,Same,0,1,None,180,0.78,180,0.85,180,0.73,No,quiteSure,cr,0.6970579624176025,NA
76,l4j#10q,False,61,2,unequal,ST1_low_1_a2,P != T2?,Same,1,2,low,82,1.32,132,0.91,82,1.25,No,quiteSure,miss,0.6561400890350342,NA
77,l4j#10q,False,62,2,unequal,ST2_high_3_a2,P != T2?,Same,2,2,high,70,1.63,96,1.39,96,1.41,No,quiteSure,cr,4.569940090179443,NA
78,l4j#10q,False,63,2,unequal,ST1_low_3_a1,P != T2?,Same,1,1,low,70,1.66,112,1.02,70,1.75,Yes,unsure,hit,1.553697109222412,NA
79,l4j#10q,False,64,2,unequal,ST2_low_5_a2,P != T2?,Same,2,2,low,96,1.35,154,0.91,154,0.93,No,unsure,cr,5.173059940338135,NA
80,l4j#10q,False,65,2,unequal,ST2_low_4_a2,P != T2?,Same,2,2,low,112,1.22,70,1.79,70,1.74,No,quiteSure,cr,2.5901079177856445,NA
81,l4j#10q,False,66,2,unequal,ST1_high_3_a1,P != T1?,Same,1,1,high,70,1.81,96,1.17,70,1.65,No,quiteSure,cr,2.7453441619873047,NA
82,l4j#10q,False,67,2,unequal,ST2_low_2_a1,P != T2?,Same,2,1,low,132,0.88,82,1.34,82,1.45,No,quiteSure,cr,1.2833080291748047,NA
83,l4j#10q,False,68,2,unequal,ST2_high_6_a2,P != T1?,Same,2,2,high,132,0.85,96,1.23,96,1.34,Yes,quiteSure,hit,2.2742819786071777,NA
84,l4j#10q,False,69,2,unequal,ST2_low_1_a1,P != T2?,Same,2,1,low,82,1.21,132,0.99,132,0.79,No,quiteSure,cr,1.3101210594177246,NA
85,l4j#10q,False,70,2,unequal,ST1_high_4_a2,P != T1?,Same,1,2,high,96,1.42,70,1.63,96,1.34,No,quiteSure,cr,2.323668956756592,NA
86,l4j#10q,False,71,2,unequal,ST2_high_3_a2,P != T2?,Same,2,2,high,70,1.59,96,1.11,96,1.13,No,quiteSure,cr,0.7905511856079102,NA
87,l4j#10q,False,72,2,unequal,ST1_high_5_a2,P != T2?,Same,1,2,high,96,1.26,132,0.98,96,1.37,No,quiteSure,miss,2.0238797664642334,NA
88,l4j#10q,False,73,2,unequal,ST1_low_2_a1,P != T2?,Same,1,1,low,132,0.99,82,1.79,132,0.88,Yes,quiteSure,hit,2.14029598236084,NA
89,l4j#10q,False,74,2,unequal,ST1_low_4_a1,P != T2?,Same,1,1,low,112,1.1,70,1.64,112,1.0,Yes,quiteSure,hit,7.382914066314697,NA
90,l4j#10q,False,75,2,unequal,ST1_low_1_a1,P != T1?,Same,1,1,low,82,1.49,132,0.83,82,1.42,Yes,unsure,fa,1.374798059463501,NA
91,l4j#10q,False,76,2,unequal,DT2_low_3_a2,P != T1?,Different,2,2,low,70,1.56,112,1.1,132,0.98,Yes,quiteSure,hit,6.614960193634033,NA
92,l4j#10q,False,77,2,unequal,ST1_high_3_a1,P != T1?,Same,1,1,high,70,1.81,96,1.24,70,1.58,Yes,unsure,fa,2.0254878997802734,NA
93,l4j#10q,False,78,2,unequal,ST2_high_1_a1,P != T2?,Same,2,1,high,82,1.27,112,1.13,112,1.14,No,unsure,cr,7.068050861358643,NA
94,l4j#10q,False,79,2,unequal,STb_8_a1,P != T2?,Same,0,1,None,180,0.94,180,0.85,180,0.79,No,sure,cr,0.8598718643188477,NA
95,l4j#10q,False,80,2,unequal,ST2_low_2_a2,P != T2?,Same,2,2,low,132,1.03,82,1.79,82,1.59,No,quiteSure,cr,2.9672718048095703,NA
96,l4j#10q,False,81,2,unequal,ST1_high_2_a2,P != T1?,Same,1,2,high,112,0.91,82,1.41,112,1.17,Yes,unsure,fa,2.429316759109497,NA
97,l4j#10q,False,82,2,unequal,ST1_high_1_a2,P != T1?,Same,1,2,high,82,1.29,112,0.94,82,1.57,No,quiteSure,cr,1.7529680728912354,NA
98,l4j#10q,False,83,2,unequal,ST1_low_3_a2,P != T2?,Same,1,2,low,70,1.77,112,1.21,70,1.7,No,unsure,miss,7.9429931640625,NA
99,l4j#10q,False,84,2,unequal,ST2_low_4_a2,P != T1?,Same,2,2,low,112,1.14,70,1.54,70,1.78,Yes,quiteSure,hit,2.7682101726531982,NA
100,l4j#10q,False,85,2,unequal,ST2_high_2_a1,P != T1?,Same,2,1,high,112,1.04,82,1.56,82,1.41,No,quiteSure,miss,1.8015871047973633,NA
101,l4j#10q,False,86,2,unequal,ST1_low_5_a1,P != T2?,Same,1,1,low,96,1.26,154,0.79,96,1.14,No,unsure,miss,1.667241096496582,NA
102,l4j#10q,False,87,2,unequal,ST1_low_3_a1,P != T1?,Same,1,1,low,70,1.57,112,1.17,70,1.54,No,unsure,cr,6.437218189239502,NA
103,l4j#10q,False,88,2,unequal,ST2_low_6_a1,P != T2?,Same,2,1,low,154,0.75,96,1.09,96,1.43,No,unsure,cr,2.836397886276245,NA
104,l4j#10q,False,89,2,unequal,ST2_high_2_a2,P != T2?,Same,2,2,high,112,1.07,82,1.41,82,1.3,No,quiteSure,cr,2.6147589683532715,NA
105,l4j#10q,False,90,2,unequal,ST1_high_3_a2,P != T1?,Same,1,2,high,70,1.51,96,1.26,70,1.79,No,unsure,cr,9.180277109146118,NA
106,l4j#10q,False,91,2,unequal,ST1_high_1_a1,P != T1?,Same,1,1,high,82,1.36,112,1.1,82,1.6,Yes,unsure,fa,11.433847904205322,NA
107,l4j#10q,False,92,2,unequal,ST1_high_1_a2,P != T2?,Same,1,2,high,82,1.35,112,1.05,82,1.6,Yes,quiteSure,hit,2.2324979305267334,NA
108,l4j#10q,False,93,2,unequal,ST1_low_4_a1,P != T2?,Same,1,1,low,112,0.97,70,1.59,112,1.08,Yes,unsure,hit,1.5084238052368164,NA
109,l4j#10q,False,94,2,unequal,ST1_high_6_a1,P != T2?,Same,1,1,high,132,0.81,96,1.19,132,1.04,No,quiteSure,miss,1.2618699073791504,NA
110,l4j#10q,False,95,2,unequal,ST2_low_1_a2,P != T2?,Same,2,2,low,82,1.46,132,1.02,132,0.85,No,quiteSure,cr,1.2352819442749023,NA
111,l4j#10q,False,96,2,unequal,ST2_low_2_a2,P != T2?,Same,2,2,low,132,1.03,82,1.49,82,1.5,No,quiteSure,cr,1.1480169296264648,NA
112,l4j#10q,False,97,2,unequal,ST2_low_3_a2,P != T1?,Same,2,2,low,70,1.42,112,1.06,112,1.15,Yes,quiteSure,hit,2.5912117958068848,NA
113,l4j#10q,False,98,2,unequal,DT2_low_3_a2,P != T2?,Different,2,2,low,70,1.71,112,1.09,132,0.89,No,unsure,cr,6.273814916610718,NA
114,l4j#10q,False,99,2,unequal,ST2_high_1_a1,P != T1?,Same,2,1,high,82,1.37,112,0.81,112,1.05,Yes,quiteSure,hit,1.6181139945983887,NA
115,l4j#10q,False,100,2,unequal,DT2_high_6_a2,P != T1?,Different,2,2,high,132,0.92,96,1.17,82,1.55,Yes,quiteSure,hit,4.164386987686157,NA
116,l4j#10q,False,101,2,unequal,ST2_high_2_a2,P != T1?,Same,2,2,high,112,1.1,82,1.46,82,1.31,Yes,quiteSure,hit,1.4648220539093018,NA
117,l4j#10q,False,102,2,unequal,ST2_low_3_a2,P != T2?,Same,2,2,low,70,1.48,112,1.08,112,1.18,Yes,unsure,fa,2.5399138927459717,NA
118,l4j#10q,False,103,2,unequal,ST1_low_6_a2,P != T1?,Same,1,2,low,154,0.81,96,1.09,154,0.93,No,unsure,cr,4.482540130615234,NA
119,l4j#10q,False,104,2,unequal,ST2_low_3_a2,P != T1?,Same,2,2,low,70,1.48,112,1.15,112,1.08,Yes,unsure,hit,1.5110890865325928,NA
120,l4j#10q,False,105,2,unequal,ST2_high_6_a1,P != T2?,Same,2,1,high,132,0.81,96,1.29,96,1.42,No,quiteSure,cr,1.3340506553649902,NA
121,l4j#10q,False,106,2,unequal,ST2_low_1_a1,P != T2?,Same,2,1,low,82,1.34,132,0.89,132,0.96,No,unsure,cr,10.553434133529663,NA
122,l4j#10q,False,107,2,unequal,ST2_high_3_a2,P != T1?,Same,2,2,high,70,1.29,96,1.46,96,1.04,Yes,unsure,hit,3.941987991333008,NA
123,l4j#10q,False,108,2,unequal,ST2_high_3_a1,P != T2?,Same,2,1,high,70,1.81,96,1.21,96,1.38,No,quiteSure,cr,6.528785943984985,NA
124,l4j#10q,False,109,2,unequal,ST1_low_5_a2,P != T1?,Same,1,2,low,96,1.38,154,0.73,96,1.39,No,unsure,cr,2.770317792892456,NA
125,l4j#10q,False,110,2,unequal,ST2_high_6_a2,P != T1?,Same,2,2,high,132,0.79,96,1.08,96,1.2,Yes,quiteSure,hit,6.662989854812622,NA
126,l4j#10q,False,111,2,unequal,ST2_high_1_a1,P != T1?,Same,2,1,high,82,1.33,112,1.17,112,0.97,Yes,quiteSure,hit,1.7606830596923828,NA
127,l4j#10q,False,112,2,unequal,ST1_high_3_a1,P != T2?,Same,1,1,high,70,1.43,96,1.1,70,1.65,No,unsure,miss,8.442464113235474,NA
128,l4j#10q,False,113,2,unequal,ST1_low_3_a1,P != T2?,Same,1,1,low,70,1.41,112,1.22,70,1.65,No,unsure,miss,3.2872278690338135,NA
129,l4j#10q,False,114,2,unequal,ST2_low_2_a2,P != T1?,Same,2,2,low,132,1.03,82,1.59,82,1.6,Yes,quiteSure,hit,1.8256540298461914,NA
130,l4j#10q,False,115,2,unequal,ST2_low_5_a1,P != T1?,Same,2,1,low,96,1.07,154,0.71,154,0.79,Yes,unsure,hit,3.396456003189087,NA
131,l4j#10q,False,116,2,unequal,ST2_high_4_a1,P != T1?,Same,2,1,high,96,1.4,70,1.61,70,1.47,Yes,unsure,hit,1.7760920524597168,NA
132,l4j#10q,False,117,2,unequal,DT1_high_5_a1,P != T2?,Different,1,1,high,96,1.35,132,0.8,82,1.29,Yes,quiteSure,hit,5.986647129058838,NA
133,l4j#10q,False,118,2,unequal,ST1_high_5_a1,P != T1?,Same,1,1,high,96,1.41,132,0.85,96,1.06,Yes,quiteSure,fa,2.030661106109619,NA
134,l4j#10q,False,119,2,unequal,ST1_low_1_a2,P != T2?,Same,1,2,low,82,1.6,132,1.05,82,1.38,No,unsure,miss,5.353471040725708,NA
135,l4j#10q,False,120,2,unequal,ST1_low_5_a1,P != T2?,Same,1,1,low,96,1.3,154,0.75,96,1.08,Yes,quiteSure,hit,13.062665224075317,NA
136,l4j#10q,False,121,2,unequal,ST1_low_5_a1,P != T2?,Same,1,1,low,96,1.12,154,0.76,96,1.33,Yes,quiteSure,hit,10.079022884368896,NA
137,l4j#10q,False,122,2,unequal,ST2_low_5_a2,P != T2?,Same,2,2,low,96,1.3,154,0.89,154,0.89,No,quiteSure,cr,1.6449308395385742,NA
138,l4j#10q,False,123,2,unequal,ST2_high_6_a1,P != T1?,Same,2,1,high,132,0.79,96,1.4,96,1.15,No,quiteSure,miss,0.902069091796875,NA
139,l4j#10q,False,124,2,unequal,ST2_high_1_a2,P != T2?,Same,2,2,high,82,1.63,112,1.19,112,1.17,No,unsure,cr,4.051720142364502,NA
140,l4j#10q,False,125,2,unequal,ST1_high_5_a1,P != T2?,Same,1,1,high,96,1.13,132,0.79,96,1.23,No,unsure,miss,5.872791051864624,NA
141,l4j#10q,False,126,2,unequal,ST1_high_1_a2,P != T2?,Same,1,2,high,82,1.37,112,0.98,82,1.49,Yes,unsure,hit,8.032104253768921,NA
142,l4j#10q,False,127,2,unequal,ST1_low_6_a2,P != T2?,Same,1,2,low,154,0.72,96,1.23,154,0.9,Yes,quiteSure,hit,1.8696599006652832,NA
143,l4j#10q,False,128,2,unequal,DT1_high_4_a1,P != T1?,Different,1,1,high,96,1.22,70,1.64,112,1.2,Yes,quiteSure,fa,6.167330741882324,NA
144,l4j#10q,False,129,2,unequal,ST1_high_4_a2,P != T1?,Same,1,2,high,96,1.18,70,1.75,96,1.38,No,unsure,cr,3.8065500259399414,NA
145,l4j#10q,False,130,2,unequal,ST1_low_4_a1,P != T1?,Same,1,1,low,112,1.0,70,1.79,112,0.93,No,unsure,cr,1.7785930633544922,NA
146,l4j#10q,False,131,2,unequal,ST1_low_5_a2,P != T1?,Same,1,2,low,96,1.22,154,0.82,96,1.38,Yes,quiteSure,fa,1.711916208267212,NA
147,l4j#10q,False,132,2,unequal,DT1_low_2_a2,P != T2?,Different,1,2,low,132,0.95,82,1.37,154,0.95,No,unsure,miss,7.514693260192871,NA
148,l4j#10q,False,133,2,unequal,STb_4_a2,P != T1?,Same,0,2,None,96,1.34,96,1.16,96,1.31,No,sure,cr,0.9253110885620117,NA
149,l4j#10q,False,134,2,unequal,ST1_high_6_a2,P != T1?,Same,1,2,high,132,0.83,96,1.22,132,1.03,Yes,unsure,fa,3.0402579307556152,NA
150,l4j#10q,False,135,2,unequal,ST2_high_5_a2,P != T1?,Same,2,2,high,96,1.09,132,0.8,132,0.85,Yes,unsure,hit,1.8426330089569092,NA
151,l4j#10q,False,136,2,unequal,ST2_low_4_a2,P != T1?,Same,2,2,low,112,0.92,70,1.73,70,1.46,No,unsure,miss,7.132375001907349,NA
152,l4j#10q,False,137,2,unequal,ST2_low_2_a1,P != T1?,Same,2,1,low,132,0.8,82,1.49,82,1.35,No,sure,miss,1.484483003616333,NA
153,l4j#10q,False,138,2,unequal,ST2_high_1_a2,P != T1?,Same,2,2,high,82,1.52,112,0.96,112,1.03,No,unsure,miss,4.703055143356323,NA
154,l4j#10q,False,139,2,unequal,ST1_high_4_a1,P != T1?,Same,1,1,high,96,1.24,70,1.69,96,1.17,Yes,unsure,fa,2.9730660915374756,NA
155,l4j#10q,False,140,2,unequal,STb_1_a2,P != T2?,Same,0,2,None,60,1.77,60,1.47,60,1.44,No,sure,cr,1.6432719230651855,NA
156,l4j#10q,False,141,2,unequal,ST1_high_1_a1,P != T1?,Same,1,1,high,82,1.34,112,1.16,82,1.63,Yes,quiteSure,fa,3.2894399166107178,NA
157,l4j#10q,False,142,2,unequal,ST1_low_2_a2,P != T2?,Same,1,2,low,132,0.83,82,1.32,132,0.96,Yes,quiteSure,hit,1.8194711208343506,NA
158,l4j#10q,False,143,2,unequal,ST1_low_2_a2,P != T1?,Same,1,2,low,132,0.95,82,1.61,132,0.87,No,quiteSure,cr,1.3719291687011719,NA
159,l4j#10q,False,144,2,unequal,ST1_low_5_a1,P != T1?,Same,1,1,low,96,1.17,154,0.74,96,1.22,Yes,quiteSure,fa,3.5372889041900635,NA
160,l4j#10q,False,145,2,unequal,ST1_low_2_a1,P != T1?,Same,1,1,low,132,1.04,82,1.45,132,0.99,No,sure,cr,0.5870518684387207,NA
161,l4j#10q,False,146,2,unequal,ST2_high_5_a1,P != T2?,Same,2,1,high,96,1.33,132,0.96,132,0.85,No,quiteSure,cr,6.3446619510650635,NA
162,l4j#10q,False,147,2,unequal,ST1_high_2_a2,P != T1?,Same,1,2,high,112,1.03,82,1.49,112,0.98,No,sure,cr,1.4875502586364746,NA
163,l4j#10q,False,148,2,unequal,ST2_low_4_a2,P != T2?,Same,2,2,low,112,0.99,70,1.71,70,1.46,No,sure,cr,2.450678825378418,NA
164,l4j#10q,False,149,2,unequal,ST2_high_6_a1,P != T1?,Same,2,1,high,132,1.01,96,1.35,96,1.13,No,unsure,miss,2.656710147857666,NA
165,l4j#10q,False,150,2,unequal,ST2_low_2_a1,P != T1?,Same,2,1,low,132,1.0,82,1.56,82,1.5,No,sure,miss,2.8560492992401123,NA
166,l4j#10q,False,151,2,unequal,ST1_high_6_a1,P != T2?,Same,1,1,high,132,0.96,96,1.09,132,1.01,Yes,quiteSure,hit,2.0682690143585205,NA
167,l4j#10q,False,152,2,unequal,STb_4_a1,P != T2?,Same,0,1,None,96,1.34,96,1.23,96,1.13,Yes,quiteSure,fa,6.953744888305664,NA
168,l4j#10q,False,153,2,unequal,ST1_high_3_a1,P != T2?,Same,1,1,high,70,1.47,96,1.25,70,1.77,Yes,quiteSure,hit,1.4659078121185303,NA
169,l4j#10q,False,154,2,unequal,ST2_low_3_a1,P != T2?,Same,2,1,low,70,1.42,112,1.13,112,1.18,No,sure,cr,2.230125665664673,NA
170,l4j#10q,False,155,2,unequal,ST2_low_1_a1,P != T1?,Same,2,1,low,82,1.29,132,1.04,132,0.96,No,quiteSure,miss,3.670926094055176,NA
171,l4j#10q,False,156,2,unequal,STb_2_a2,P != T2?,Same,0,2,None,70,1.77,70,1.78,70,1.65,No,unsure,cr,1.8458003997802734,NA
172,l4j#10q,False,157,2,unequal,ST2_high_5_a1,P != T1?,Same,2,1,high,96,1.33,132,0.79,132,0.98,No,unsure,miss,4.9295899868011475,NA
173,l4j#10q,False,158,2,unequal,ST1_high_4_a2,P != T2?,Same,1,2,high,96,1.18,70,1.73,96,1.22,No,unsure,miss,2.9032981395721436,NA
174,l4j#10q,False,159,2,unequal,ST2_low_4_a2,P != T1?,Same,2,2,low,112,1.11,70,1.37,70,1.73,Yes,unsure,hit,4.069094896316528,NA
175,l4j#10q,False,160,2,unequal,ST1_low_3_a2,P != T1?,Same,1,2,low,70,1.77,112,1.21,70,1.79,Yes,quiteSure,fa,3.1088850498199463,NA
176,l4j#10q,False,161,2,unequal,ST2_low_5_a1,P != T2?,Same,2,1,low,96,1.2,154,0.94,154,0.83,No,unsure,cr,4.863457679748535,NA
177,l4j#10q,False,162,2,unequal,ST2_low_1_a1,P != T2?,Same,2,1,low,82,1.55,132,1.02,132,1.02,Yes,quiteSure,fa,1.8942899703979492,NA
178,l4j#10q,False,163,2,unequal,ST1_high_1_a1,P != T2?,Same,1,1,high,82,1.33,112,0.97,82,1.25,Yes,sure,hit,1.7749621868133545,NA
179,l4j#10q,False,164,2,unequal,ST2_high_4_a2,P != T1?,Same,2,2,high,96,1.07,70,1.39,70,1.62,Yes,quiteSure,hit,1.8009381294250488,NA
180,l4j#10q,False,165,2,unequal,ST2_low_1_a1,P != T1?,Same,2,1,low,82,1.5,132,0.99,132,0.83,No,unsure,miss,4.766752004623413,NA
181,l4j#10q,False,166,2,unequal,ST2_high_6_a1,P != T2?,Same,2,1,high,132,0.79,96,1.19,96,1.29,Yes,unsure,fa,2.950617790222168,NA
182,l4j#10q,False,167,2,unequal,ST2_low_6_a2,P != T1?,Same,2,2,low,154,0.76,96,1.19,96,1.2,Yes,quiteSure,hit,2.00244402885437,NA
183,l4j#10q,False,168,2,unequal,ST2_high_1_a1,P != T2?,Same,2,1,high,82,1.51,112,1.13,112,0.97,No,unsure,cr,3.8912830352783203,NA
184,l4j#10q,False,169,2,unequal,DT1_low_2_a2,P != T1?,Different,1,2,low,132,0.89,82,1.31,154,0.81,Yes,unsure,fa,4.185884952545166,NA
185,l4j#10q,False,170,2,unequal,ST2_low_6_a1,P != T2?,Same,2,1,low,154,0.82,96,1.22,96,1.26,No,sure,cr,1.4131040573120117,NA
186,l4j#10q,False,171,2,unequal,ST1_low_6_a1,P != T1?,Same,1,1,low,154,0.82,96,1.12,154,0.86,No,unsure,cr,1.9551150798797607,NA
187,l4j#10q,False,172,2,unequal,ST1_high_4_a2,P != T2?,Same,1,2,high,96,1.14,70,1.52,96,1.22,Yes,quiteSure,hit,4.431214809417725,NA
188,l4j#10q,False,173,2,unequal,ST2_low_3_a1,P != T1?,Same,2,1,low,70,1.64,112,1.11,112,1.23,No,unsure,miss,2.251039743423462,NA
189,l4j#10q,False,174,2,unequal,ST1_low_6_a2,P != T1?,Same,1,2,low,154,0.74,96,1.08,154,0.75,No,sure,cr,2.49717116355896,NA
190,l4j#10q,False,175,2,unequal,ST1_high_3_a1,P != T1?,Same,1,1,high,70,1.57,96,1.39,70,1.42,No,quiteSure,cr,1.3293781280517578,NA
191,l4j#10q,False,176,2,unequal,STb_7_a1,P != T1?,Same,0,1,None,154,0.91,154,0.88,154,0.8,No,sure,cr,0.9439051151275635,NA
192,l4j#10q,False,177,2,unequal,ST2_high_4_a1,P != T2?,Same,2,1,high,96,1.43,70,1.75,70,1.76,No,sure,cr,0.29396510124206543,NA
193,l4j#10q,False,178,2,unequal,DT1_low_1_a1,P != T2?,Different,1,1,low,82,1.38,132,1.02,70,1.43,Yes,unsure,hit,2.6077218055725098,NA
194,l4j#10q,False,179,2,unequal,ST2_high_5_a1,P != T2?,Same,2,1,high,96,1.25,132,1.02,132,1.02,Yes,unsure,fa,4.269587993621826,NA
195,l4j#10q,False,180,2,unequal,ST1_high_4_a2,P != T2?,Same,1,2,high,96,1.15,70,1.84,96,1.38,Yes,quiteSure,hit,1.5014562606811523,NA
196,l4j#10q,False,181,2,unequal,ST2_high_5_a2,P != T1?,Same,2,2,high,96,1.39,132,1.0,132,1.0,Yes,quiteSure,hit,4.185929298400879,NA
197,l4j#10q,False,182,2,unequal,STb_4_a1,P != T1?,Same,0,1,None,96,1.36,96,1.07,96,1.18,No,sure,cr,1.7549970149993896,NA
198,l4j#10q,False,183,2,unequal,DT2_high_2_a2,P != T1?,Different,2,2,high,112,1.21,82,1.43,70,1.63,No,quiteSure,miss,0.924515962600708,NA
199,l4j#10q,False,184,2,unequal,ST2_high_2_a1,P != T2?,Same,2,1,high,112,1.01,82,1.22,82,1.43,No,quiteSure,cr,8.21423602104187,NA
200,l4j#10q,False,185,2,unequal,STb_7_a2,P != T2?,Same,0,2,None,154,0.76,154,0.71,154,0.75,No,sure,cr,0.27455592155456543,NA
201,l4j#10q,False,186,2,unequal,ST1_high_6_a2,P != T1?,Same,1,2,high,132,0.97,96,1.35,132,0.94,Yes,unsure,fa,3.131344795227051,NA
202,l4j#10q,False,187,2,unequal,ST1_low_3_a2,P != T2?,Same,1,2,low,70,1.38,112,0.99,70,1.84,Yes,quiteSure,hit,2.3855130672454834,NA
203,l4j#10q,False,188,2,unequal,STb_3_a2,P != T1?,Same,0,2,None,82,1.46,82,1.31,82,1.32,No,quiteSure,cr,1.1719088554382324,NA
204,l4j#10q,False,189,2,unequal,ST1_high_4_a1,P != T1?,Same,1,1,high,96,1.34,70,1.42,96,1.21,Yes,unsure,fa,2.6824769973754883,NA
205,l4j#10q,False,190,2,unequal,ST1_low_1_a1,P != T2?,Same,1,1,low,82,1.61,132,0.95,82,1.38,No,quiteSure,miss,1.5964529514312744,NA
206,l4j#10q,False,191,2,unequal,ST1_low_1_a2,P != T1?,Same,1,2,low,82,1.25,132,0.81,82,1.51,Yes,unsure,fa,5.313296794891357,NA
207,l4j#10q,False,192,2,unequal,ST2_low_6_a2,P != T2?,Same,2,2,low,154,0.82,96,1.21,96,1.19,No,unsure,cr,2.9044671058654785,NA
208,l4j#10q,False,193,2,unequal,ST2_high_4_a1,P != T1?,Same,2,1,high,96,1.37,70,1.56,70,1.49,No,quiteSure,miss,1.691612958908081,NA
209,l4j#10q,False,194,2,unequal,ST1_low_5_a2,P != T1?,Same,1,2,low,96,1.3,154,0.79,96,1.33,Yes,quiteSure,fa,6.5072338581085205,NA
210,l4j#10q,False,195,2,unequal,ST2_high_6_a2,P != T1?,Same,2,2,high,132,0.95,96,1.33,96,1.12,Yes,quiteSure,hit,10.124996900558472,NA
211,l4j#10q,False,196,2,unequal,ST2_low_5_a1,P != T1?,Same,2,1,low,96,1.26,154,0.72,154,0.74,No,sure,miss,0.2954709529876709,NA
212,l4j#10q,False,197,2,unequal,ST1_low_2_a2,P != T1?,Same,1,2,low,132,0.92,82,1.57,132,0.97,No,quiteSure,cr,1.7558848857879639,NA
213,l4j#10q,False,198,2,unequal,ST1_high_2_a1,P != T1?,Same,1,1,high,112,1.25,82,1.45,112,1.17,No,unsure,cr,2.749190092086792,NA
214,l4j#10q,False,199,2,unequal,ST2_high_5_a2,P != T2?,Same,2,2,high,96,1.18,132,0.97,132,0.87,No,quiteSure,cr,1.6650278568267822,NA
215,l4j#10q,False,200,2,unequal,ST1_low_5_a2,P != T2?,Same,1,2,low,96,1.15,154,0.82,96,1.34,Yes,quiteSure,hit,2.472439765930176,NA
216,l4j#10q,False,201,2,unequal,ST2_high_4_a2,P != T1?,Same,2,2,high,96,1.42,70,1.77,70,1.81,Yes,quiteSure,hit,2.6121530532836914,NA
217,l4j#10q,False,202,2,unequal,STb_6_a1,P != T2?,Same,0,1,None,132,0.87,132,0.98,132,0.98,No,unsure,cr,5.314503908157349,NA
218,l4j#10q,False,203,2,unequal,ST1_low_5_a1,P != T1?,Same,1,1,low,96,1.24,154,0.87,96,1.35,No,sure,cr,1.2609388828277588,NA
219,l4j#10q,False,204,2,unequal,ST2_high_1_a2,P != T1?,Same,2,2,high,82,1.38,112,1.23,112,1.09,No,sure,miss,0.2237229347229004,NA
220,l4j#10q,False,205,2,unequal,ST1_low_6_a1,P != T2?,Same,1,1,low,154,0.84,96,1.41,154,0.78,No,sure,miss,2.2534210681915283,NA
221,l4j#10q,False,206,2,unequal,ST1_low_4_a1,P != T1?,Same,1,1,low,112,1.18,70,1.65,112,1.21,No,quiteSure,cr,1.9835929870605469,NA
222,l4j#10q,False,207,2,unequal,DT2_high_1_a1,P != T2?,Different,2,1,high,82,1.46,112,0.92,132,0.94,No,unsure,cr,0.9942812919616699,NA
223,l4j#10q,False,208,2,unequal,ST2_high_5_a2,P != T1?,Same,2,2,high,96,1.31,132,0.82,132,1.02,No,unsure,miss,1.3322789669036865,NA
224,l4j#10q,False,209,2,unequal,ST1_low_1_a1,P != T1?,Same,1,1,low,82,1.46,132,0.91,82,1.54,No,quiteSure,cr,0.8117389678955078,NA
225,l4j#10q,False,210,2,unequal,ST1_low_5_a2,P != T2?,Same,1,2,low,96,1.43,154,0.93,96,1.42,No,quiteSure,miss,0.40880799293518066,NA
226,l4j#10q,False,211,2,unequal,ST2_high_4_a1,P != T2?,Same,2,1,high,96,1.29,70,1.74,70,1.43,No,quiteSure,cr,0.8820903301239014,NA
227,l4j#10q,False,212,2,unequal,ST1_high_4_a2,P != T1?,Same,1,2,high,96,1.07,70,1.63,96,1.09,Yes,unsure,fa,11.051753997802734,NA
228,l4j#10q,False,213,2,unequal,ST1_low_3_a2,P != T1?,Same,1,2,low,70,1.41,112,1.01,70,1.49,Yes,quiteSure,fa,16.24748420715332,NA
229,l4j#10q,False,214,2,unequal,ST1_low_6_a1,P != T1?,Same,1,1,low,154,0.94,96,1.1,154,0.83,Yes,quiteSure,fa,2.296354055404663,NA
230,l4j#10q,False,215,2,unequal,ST2_high_5_a1,P != T2?,Same,2,1,high,96,1.09,132,0.99,132,1.01,No,unsure,cr,4.591282844543457,NA
231,l4j#10q,False,216,2,unequal,ST1_low_6_a2,P != T2?,Same,1,2,low,154,0.94,96,1.1,154,0.86,No,unsure,miss,4.366075277328491,NA
232,l4j#10q,False,217,2,unequal,ST1_high_6_a1,P != T1?,Same,1,1,high,132,0.82,96,1.4,132,1.05,No,sure,cr,0.29476404190063477,NA
233,l4j#10q,False,218,2,unequal,ST1_high_1_a2,P != T1?,Same,1,2,high,82,1.38,112,1.16,82,1.49,No,sure,cr,1.4630711078643799,NA
234,l4j#10q,False,219,2,unequal,ST1_low_6_a2,P != T1?,Same,1,2,low,154,0.94,96,1.09,154,0.77,No,unsure,cr,1.5807480812072754,NA
235,l4j#10q,False,220,2,unequal,ST2_high_2_a2,P != T2?,Same,2,2,high,112,0.98,82,1.56,82,1.37,Yes,quiteSure,fa,2.048798084259033,NA
236,l4j#10q,False,221,2,unequal,ST2_high_4_a1,P != T1?,Same,2,1,high,96,1.14,70,1.82,70,1.54,Yes,quiteSure,hit,2.025872230529785,NA
237,l4j#10q,False,222,2,unequal,ST2_high_4_a2,P != T1?,Same,2,2,high,96,1.26,70,1.47,70,1.65,No,quiteSure,miss,1.286269187927246,NA
238,l4j#10q,False,223,2,unequal,ST1_high_5_a1,P != T2?,Same,1,1,high,96,1.32,132,0.89,96,1.32,No,unsure,miss,28.641985654830933,NA
239,l4j#10q,False,224,2,unequal,ST2_low_2_a2,P != T2?,Same,2,2,low,132,0.99,82,1.49,82,1.57,No,quiteSure,cr,1.5509791374206543,NA
240,l4j#10q,False,225,2,unequal,ST1_low_4_a2,P != T1?,Same,1,2,low,112,1.07,70,1.4,112,1.11,Yes,quiteSure,fa,9.65426516532898,NA
241,l4j#10q,False,226,2,unequal,ST2_low_1_a2,P != T2?,Same,2,2,low,82,1.25,132,1.03,132,0.81,No,sure,cr,0.27011919021606445,NA
242,l4j#10q,False,227,2,unequal,ST1_high_2_a1,P != T2?,Same,1,1,high,112,1.19,82,1.43,112,0.98,Yes,quiteSure,hit,3.4662017822265625,NA
243,l4j#10q,False,228,2,unequal,ST1_high_2_a2,P != T2?,Same,1,2,high,112,0.97,82,1.58,112,0.99,Yes,quiteSure,hit,7.376961946487427,NA
244,l4j#10q,False,229,2,unequal,ST2_high_3_a1,P != T1?,Same,2,1,high,70,1.75,96,1.27,96,1.42,No,sure,miss,0.11345386505126953,NA
245,l4j#10q,False,230,2,unequal,ST2_low_5_a1,P != T1?,Same,2,1,low,96,1.36,154,0.84,154,0.85,Yes,quiteSure,hit,2.1136629581451416,NA
246,l4j#10q,False,231,2,unequal,ST1_low_6_a1,P != T1?,Same,1,1,low,154,0.83,96,1.31,154,0.89,No,sure,cr,0.13718104362487793,NA
247,l4j#10q,False,232,2,unequal,ST2_low_1_a2,P != T1?,Same,2,2,low,82,1.6,132,0.97,132,0.81,No,unsure,miss,0.471203088760376,NA
248,l4j#10q,False,233,2,unequal,ST2_low_3_a2,P != T1?,Same,2,2,low,70,1.63,112,1.07,112,1.09,No,quiteSure,miss,2.7329211235046387,NA
249,l4j#10q,False,234,2,unequal,ST1_high_2_a2,P != T2?,Same,1,2,high,112,0.99,82,1.22,112,1.06,Yes,quiteSure,hit,1.7124218940734863,NA
250,l4j#10q,False,235,2,unequal,ST1_low_4_a1,P != T2?,Same,1,1,low,112,1.11,70,1.81,112,1.14,Yes,quiteSure,hit,2.5435070991516113,NA
251,l4j#10q,False,236,2,unequal,ST1_high_5_a1,P != T1?,Same,1,1,high,96,1.22,132,0.99,96,1.08,No,quiteSure,cr,1.4440622329711914,NA
252,l4j#10q,False,237,2,unequal,ST2_low_6_a2,P != T1?,Same,2,2,low,154,0.89,96,1.41,96,1.29,Yes,unsure,hit,2.884161949157715,NA
253,l4j#10q,False,238,2,unequal,ST1_low_4_a2,P != T1?,Same,1,2,low,112,1.01,70,1.72,112,1.19,Yes,unsure,fa,2.3157200813293457,NA
254,l4j#10q,False,239,2,unequal,ST2_high_1_a2,P != T2?,Same,2,2,high,82,1.61,112,1.03,112,1.15,No,unsure,cr,2.4964327812194824,NA
255,l4j#10q,False,240,2,unequal,ST1_high_4_a1,P != T2?,Same,1,1,high,96,1.14,70,1.68,96,1.24,No,quiteSure,miss,4.923712968826294,NA
256,l4j#10q,False,241,2,unequal,ST1_low_1_a2,P != T1?,Same,1,2,low,82,1.33,132,0.81,82,1.57,Yes,quiteSure,fa,9.253374099731445,NA
257,l4j#10q,False,242,2,unequal,ST2_high_3_a2,P != T1?,Same,2,2,high,70,1.55,96,1.11,96,1.13,No,quiteSure,miss,1.9117980003356934,NA
258,l4j#10q,False,243,2,unequal,ST1_high_6_a1,P != T1?,Same,1,1,high,132,0.8,96,1.24,132,0.82,No,unsure,cr,1.798995018005371,NA
259,l4j#10q,False,244,2,unequal,ST2_low_5_a2,P != T1?,Same,2,2,low,96,1.13,154,0.82,154,0.94,Yes,unsure,hit,5.241101026535034,NA
260,l4j#10q,False,245,2,unequal,ST2_low_1_a2,P != T2?,Same,2,2,low,82,1.39,132,0.92,132,0.99,Yes,unsure,fa,4.094895839691162,NA
261,l4j#10q,False,246,2,unequal,ST2_high_1_a2,P != T2?,Same,2,2,high,82,1.35,112,1.12,112,1.14,Yes,quiteSure,fa,2.2732949256896973,NA
262,l4j#10q,False,247,2,unequal,ST1_high_5_a2,P != T2?,Same,1,2,high,96,1.08,132,0.88,96,1.07,Yes,quiteSure,hit,2.1807680130004883,NA
263,l4j#10q,False,248,2,unequal,ST1_low_1_a2,P != T2?,Same,1,2,low,82,1.41,132,1.05,82,1.42,Yes,quiteSure,hit,1.621250867843628,NA
264,l4j#10q,False,249,2,unequal,ST2_low_1_a2,P != T1?,Same,2,2,low,82,1.39,132,0.98,132,1.01,Yes,unsure,hit,2.609900951385498,NA
265,l4j#10q,False,250,2,unequal,ST1_low_4_a2,P != T2?,Same,1,2,low,112,1.13,70,1.67,112,1.22,Yes,quiteSure,hit,7.782880067825317,NA
266,l4j#10q,False,251,2,unequal,ST1_low_3_a2,P != T1?,Same,1,2,low,70,1.44,112,1.07,70,1.81,No,quiteSure,cr,2.227752923965454,NA
267,l4j#10q,False,252,2,unequal,ST1_high_6_a2,P != T2?,Same,1,2,high,132,1.01,96,1.09,132,1.06,Yes,quiteSure,hit,1.3980967998504639,NA
268,l4j#10q,False,253,2,unequal,ST1_low_4_a2,P != T2?,Same,1,2,low,112,1.17,70,1.71,112,1.18,No,quiteSure,miss,2.048146963119507,NA
269,l4j#10q,False,254,2,unequal,ST1_high_5_a1,P != T1?,Same,1,1,high,96,1.21,132,0.84,96,1.24,Yes,quiteSure,fa,2.336277961730957,NA
270,l4j#10q,False,255,2,unequal,ST1_high_1_a1,P != T2?,Same,1,1,high,82,1.52,112,0.99,82,1.24,No,quiteSure,miss,9.927083015441895,NA
271,l4j#10q,False,256,2,unequal,ST1_low_4_a2,P != T2?,Same,1,2,low,112,1.23,70,1.61,112,0.96,No,quiteSure,miss,7.7594170570373535,NA
272,l4j#10q,False,257,2,unequal,ST1_high_5_a2,P != T1?,Same,1,2,high,96,1.08,132,0.93,96,1.4,No,unsure,cr,1.8498430252075195,NA
273,l4j#10q,False,258,2,unequal,ST1_high_1_a2,P != T1?,Same,1,2,high,82,1.22,112,1.03,82,1.35,No,unsure,cr,3.737718105316162,NA
274,l4j#10q,False,259,2,unequal,ST2_low_4_a2,P != T2?,Same,2,2,low,112,1.08,70,1.71,70,1.82,Yes,quiteSure,fa,3.3803019523620605,NA
275,l4j#10q,False,260,2,unequal,ST1_high_1_a2,P != T2?,Same,1,2,high,82,1.62,112,1.07,82,1.39,Yes,quiteSure,hit,2.5401957035064697,NA
276,l4j#10q,False,261,2,unequal,ST1_high_3_a2,P != T2?,Same,1,2,high,70,1.62,96,1.38,70,1.64,Yes,unsure,hit,1.8238418102264404,NA
277,l4j#10q,False,262,2,unequal,ST1_high_2_a1,P != T2?,Same,1,1,high,112,0.94,82,1.24,112,1.1,No,quiteSure,miss,4.4091010093688965,NA
278,l4j#10q,False,263,2,unequal,ST2_low_3_a1,P != T2?,Same,2,1,low,70,1.2,112,0.84,112,1.07,Yes,quiteSure,fa,3.4974842071533203,NA
279,l4j#10q,False,264,2,unequal,ST1_low_2_a2,P != T2?,Same,1,2,low,132,1.03,82,1.22,132,0.95,Yes,unsure,hit,9.590874195098877,NA
280,l4j#10q,False,265,2,unequal,ST1_low_2_a1,P != T2?,Same,1,1,low,132,0.81,82,1.22,132,1.01,Yes,quiteSure,hit,2.317307949066162,NA
281,l4j#10q,False,266,2,unequal,DT2_low_5_a1,P != T1?,Different,2,1,low,96,1.17,154,0.78,180,0.8,Yes,quiteSure,hit,2.7452261447906494,NA
282,l4j#10q,False,267,2,unequal,ST2_low_6_a1,P != T1?,Same,2,1,low,154,0.73,96,1.35,96,1.17,Yes,quiteSure,hit,1.6184098720550537,NA
283,l4j#10q,False,268,2,unequal,ST2_low_3_a1,P != T1?,Same,2,1,low,70,1.7,112,1.12,112,0.92,Yes,quiteSure,hit,18.59026002883911,NA
284,l4j#10q,False,269,2,unequal,ST2_high_2_a1,P != T2?,Same,2,1,high,112,1.06,82,1.32,82,1.58,No,quiteSure,cr,2.9909229278564453,NA
285,l4j#10q,False,270,2,unequal,ST2_low_6_a2,P != T1?,Same,2,2,low,154,0.81,96,1.39,96,1.42,No,sure,miss,0.9037470817565918,NA
286,l4j#10q,False,271,2,unequal,ST2_low_2_a1,P != T2?,Same,2,1,low,132,0.83,82,1.26,82,1.52,No,quiteSure,cr,2.1840412616729736,NA
287,l4j#10q,False,272,2,unequal,ST2_high_4_a1,P != T2?,Same,2,1,high,96,1.42,70,1.78,70,1.46,No,unsure,cr,2.1133060455322266,NA
288,l4j#10q,False,273,2,unequal,ST1_high_4_a1,P != T2?,Same,1,1,high,96,1.3,70,1.51,96,1.25,Yes,unsure,hit,14.040767192840576,NA
289,l4j#10q,False,274,2,unequal,ST1_low_1_a1,P != T1?,Same,1,1,low,82,1.25,132,0.82,82,1.27,No,quiteSure,cr,0.9224977493286133,NA
290,l4j#10q,False,275,2,unequal,ST1_low_3_a2,P != T2?,Same,1,2,low,70,1.65,112,1.03,70,1.63,Yes,quiteSure,hit,1.8052430152893066,NA
291,l4j#10q,False,276,2,unequal,ST2_low_5_a2,P != T2?,Same,2,2,low,96,1.39,154,0.93,154,0.88,No,quiteSure,cr,1.8687400817871094,NA
292,l4j#10q,False,277,2,unequal,ST2_low_4_a1,P != T1?,Same,2,1,low,112,0.93,70,1.84,70,1.57,Yes,quiteSure,hit,1.9779348373413086,NA
293,l4j#10q,False,278,2,unequal,ST1_low_2_a1,P != T2?,Same,1,1,low,132,0.96,82,1.27,132,0.87,Yes,unsure,hit,2.4339921474456787,NA
294,l4j#10q,False,279,2,unequal,ST2_high_3_a1,P != T2?,Same,2,1,high,70,1.76,96,1.24,96,1.07,No,quiteSure,cr,4.659616947174072,NA
295,l4j#10q,False,280,2,unequal,ST2_high_2_a2,P != T2?,Same,2,2,high,112,0.97,82,1.58,82,1.6,No,quiteSure,cr,8.911499977111816,NA
296,l4j#10q,False,281,2,unequal,ST1_low_3_a1,P != T1?,Same,1,1,low,70,1.68,112,1.17,70,1.72,No,quiteSure,cr,5.292986869812012,NA
297,l4j#10q,False,282,2,unequal,ST1_low_1_a2,P != T1?,Same,1,2,low,82,1.23,132,0.83,82,1.34,No,unsure,cr,1.978384017944336,NA
298,l4j#10q,False,283,2,unequal,ST2_high_6_a2,P != T2?,Same,2,2,high,132,0.85,96,1.31,96,1.16,No,quiteSure,cr,4.1427600383758545,NA
299,l4j#10q,False,284,2,unequal,DT2_high_2_a1,P != T1?,Different,2,1,high,112,0.93,82,1.41,70,1.81,No,sure,miss,0.7192809581756592,NA
300,l4j#10q,False,285,2,unequal,ST2_low_2_a1,P != T1?,Same,2,1,low,132,0.87,82,1.46,82,1.3,No,unsure,miss,4.7674400806427,NA
301,l4j#10q,False,286,2,unequal,ST1_high_2_a2,P != T2?,Same,1,2,high,112,1.03,82,1.31,112,1.2,Yes,unsure,hit,6.820542812347412,NA
302,l4j#10q,False,287,2,unequal,ST2_high_2_a1,P != T1?,Same,2,1,high,112,1.13,82,1.53,82,1.57,Yes,quiteSure,hit,7.491785287857056,NA
303,l4j#10q,False,288,2,unequal,ST2_high_1_a2,P != T1?,Same,2,2,high,82,1.4,112,1.18,112,1.18,No,quiteSure,miss,4.182621002197266,NA
304,l4j#10q,False,289,2,unequal,ST1_low_4_a1,P != T1?,Same,1,1,low,112,1.03,70,1.5,112,0.98,No,unsure,cr,4.04973292350769,NA
305,l4j#10q,False,290,2,unequal,ST2_low_2_a2,P != T1?,Same,2,2,low,132,0.94,82,1.49,82,1.59,No,quiteSure,miss,1.9793140888214111,NA
306,l4j#10q,False,291,2,unequal,ST2_low_6_a1,P != T2?,Same,2,1,low,154,0.92,96,1.37,96,1.16,Yes,quiteSure,fa,8.68773889541626,NA
307,l4j#10q,False,292,2,unequal,ST2_low_5_a1,P != T2?,Same,2,1,low,96,1.21,154,0.84,154,0.9,No,sure,cr,3.3743157386779785,NA
308,l4j#10q,False,293,2,unequal,ST1_low_6_a1,P != T2?,Same,1,1,low,154,0.86,96,1.12,154,0.93,Yes,quiteSure,hit,1.8192460536956787,NA
309,l4j#10q,False,294,2,unequal,ST1_high_1_a1,P != T2?,Same,1,1,high,82,1.24,112,0.98,82,1.25,Yes,quiteSure,hit,13.927971124649048,NA
310,l4j#10q,False,295,2,unequal,ST2_high_6_a2,P != T2?,Same,2,2,high,132,0.84,96,1.39,96,1.12,No,sure,cr,1.8659181594848633,NA
311,l4j#10q,False,296,2,unequal,ST1_low_2_a1,P != T1?,Same,1,1,low,132,0.89,82,1.35,132,0.8,Yes,unsure,fa,4.81404185295105,NA
312,l4j#10q,False,297,2,unequal,ST1_low_5_a2,P != T2?,Same,1,2,low,96,1.34,154,0.79,96,1.08,No,quiteSure,miss,8.796748638153076,NA
313,l4j#10q,False,298,2,unequal,ST2_low_3_a2,P != T2?,Same,2,2,low,70,1.73,112,1.16,112,1.05,Yes,quiteSure,fa,2.5675430297851562,NA
314,l4j#10q,False,299,2,unequal,STb_7_a1,P != T2?,Same,0,1,None,154,0.79,154,0.82,154,0.75,No,unsure,cr,8.975904941558838,NA
315,l4j#10q,False,300,2,unequal,ST2_low_6_a1,P != T1?,Same,2,1,low,154,0.92,96,1.16,96,1.3,No,quiteSure,miss,2.4938769340515137,NA
316,l4j#10q,False,301,2,unequal,ST1_high_3_a2,P != T2?,Same,1,2,high,70,1.53,96,1.31,70,1.85,No,sure,miss,1.0553162097930908,NA
317,l4j#10q,False,302,2,unequal,ST2_high_2_a2,P != T1?,Same,2,2,high,112,1.11,82,1.27,82,1.22,No,sure,miss,0.31333088874816895,NA
318,l4j#10q,False,303,2,unequal,ST1_high_2_a1,P != T1?,Same,1,1,high,112,1.19,82,1.55,112,1.18,No,sure,cr,0.3050100803375244,NA
319,l4j#10q,False,304,2,unequal,ST2_low_6_a1,P != T1?,Same,2,1,low,154,0.71,96,1.28,96,1.29,No,unsure,miss,2.3417482376098633,NA
320,l4j#10q,False,305,2,unequal,ST2_high_5_a2,P != T2?,Same,2,2,high,96,1.16,132,0.87,132,0.89,Yes,unsure,fa,5.292558908462524,NA
321,l4j#10q,False,306,2,unequal,ST2_low_1_a1,P != T1?,Same,2,1,low,82,1.52,132,0.85,132,0.93,No,unsure,miss,4.678857326507568,NA
322,l4j#10q,False,307,2,unequal,ST1_high_6_a2,P != T1?,Same,1,2,high,132,0.81,96,1.26,132,0.86,No,quiteSure,cr,1.7781939506530762,NA
323,l4j#10q,False,308,2,unequal,ST2_high_4_a2,P != T2?,Same,2,2,high,96,1.08,70,1.72,70,1.6,Yes,quiteSure,fa,5.560925006866455,NA
324,l4j#10q,False,309,2,unequal,ST2_low_4_a1,P != T2?,Same,2,1,low,112,1.11,70,1.69,70,1.65,Yes,unsure,fa,7.336889743804932,NA
325,l4j#10q,False,310,2,unequal,ST1_low_6_a2,P != T2?,Same,1,2,low,154,0.89,96,1.24,154,0.73,No,quiteSure,miss,9.155444860458374,NA
326,l4j#10q,False,311,2,unequal,ST2_high_2_a2,P != T1?,Same,2,2,high,112,1.12,82,1.64,82,1.54,No,quiteSure,miss,0.5129268169403076,NA
327,l4j#10q,False,312,2,unequal,ST2_high_6_a2,P != T2?,Same,2,2,high,132,0.97,96,1.16,96,1.2,No,unsure,cr,3.6443471908569336,NA
328,l4j#10q,False,313,2,unequal,ST1_high_2_a2,P != T1?,Same,1,2,high,112,1.04,82,1.48,112,1.11,No,sure,cr,1.7143406867980957,NA
329,l4j#10q,False,314,2,unequal,ST1_high_2_a1,P != T1?,Same,1,1,high,112,1.14,82,1.24,112,0.94,No,quiteSure,cr,2.318704843521118,NA
330,l4j#10q,False,315,2,unequal,ST1_high_3_a2,P != T1?,Same,1,2,high,70,1.6,96,1.06,70,1.67,No,quiteSure,cr,2.1144979000091553,NA
331,l4j#10q,False,316,2,unequal,ST1_low_5_a1,P != T1?,Same,1,1,low,96,1.42,154,0.82,96,1.27,Yes,quiteSure,fa,12.509382009506226,NA
332,l4j#10q,False,317,2,unequal,DT1_low_1_a2,P != T2?,Different,1,2,low,82,1.22,132,0.97,70,1.79,Yes,sure,hit,1.1671380996704102,NA
333,l4j#10q,False,318,2,unequal,ST2_low_5_a2,P != T1?,Same,2,2,low,96,1.16,154,0.88,154,0.85,Yes,quiteSure,hit,3.3523778915405273,NA
334,l4j#10q,False,319,2,unequal,ST2_high_5_a2,P != T2?,Same,2,2,high,96,1.24,132,1.05,132,0.98,No,quiteSure,cr,1.6613988876342773,NA
335,l4j#10q,False,320,2,unequal,ST1_high_3_a2,P != T1?,Same,1,2,high,70,1.77,96,1.31,70,1.66,No,unsure,cr,2.0653209686279297,0.75
