,pcode,practice,trial,block,questionType,condition,question,PTS,TargetPosition,AccessoryPosition,TNS,T1_hz,T1_amp,T2_hz,T2_amp,P_hz,P_amp,response_dicho,response_rating,response_sdt,rt,P_correct
0,63xnq5!,True,1,1,equal,DT2_low_3_a1,P = T1?,Different,2,1,low,70,1.17,112,1.0,132,0.98,No,unsure,cr,1.7873470783233643,NA
1,63xnq5!,True,2,1,equal,DT1_low_3_a1,P = T1?,Different,1,1,low,70,1.76,112,1.11,60,1.88,Yes,sure,hit,1.81345796585083,NA
2,63xnq5!,True,3,1,equal,STb_8_a1,P = T2?,Same,0,1,None,180,0.82,180,0.8,180,0.86,Yes,sure,hit,1.8149151802062988,NA
3,63xnq5!,True,4,1,equal,ST2_low_1_a1,P = T1?,Same,2,1,low,82,1.16,132,1.01,132,0.96,No,sure,cr,1.4756689071655273,NA
4,63xnq5!,True,5,1,equal,ST1_high_3_a1,P = T2?,Same,1,1,high,70,1.66,96,1.34,70,2.05,Yes,sure,fa,5.769222736358643,NA
5,63xnq5!,True,6,1,equal,ST2_high_2_a2,P = T2?,Same,2,2,high,112,0.96,82,1.74,82,1.3,Yes,quiteSure,hit,1.9022190570831299,NA
6,63xnq5!,True,7,1,equal,STb_5_a1,P = T1?,Same,0,1,None,112,1.26,112,0.96,112,1.22,Yes,quiteSure,hit,1.814424753189087,NA
7,63xnq5!,True,8,1,equal,DT1_low_1_a1,P = T2?,Different,1,1,low,82,1.52,132,0.95,70,1.41,No,unsure,cr,1.7650339603424072,NA
8,63xnq5!,True,9,1,equal,STb_3_a2,P = T2?,Same,0,2,None,82,1.42,82,1.46,82,1.55,Yes,quiteSure,hit,2.7314980030059814,NA
9,63xnq5!,True,10,1,equal,ST1_low_5_a2,P = T2?,Same,1,2,low,96,1.14,154,0.84,96,1.12,No,sure,cr,2.913357973098755,NA
10,63xnq5!,True,11,1,equal,ST2_high_4_a1,P = T2?,Same,2,1,high,96,1.18,70,1.58,70,1.42,Yes,sure,hit,1.6112089157104492,NA
11,63xnq5!,True,12,1,equal,DT1_low_6_a1,P = T2?,Different,1,1,low,154,0.82,96,1.22,180,0.77,No,quiteSure,cr,7.25671911239624,NA
12,63xnq5!,True,13,1,equal,STb_8_a1,P = T1?,Same,0,1,None,180,0.74,180,0.9,180,0.88,No,quiteSure,miss,5.8520050048828125,NA
13,63xnq5!,True,14,1,equal,ST1_high_4_a2,P = T1?,Same,1,2,high,96,0.93,70,1.58,96,1.05,Yes,quiteSure,hit,1.982940912246704,NA
14,63xnq5!,True,15,1,equal,ST2_high_1_a2,P = T1?,Same,2,2,high,82,1.44,112,0.89,112,1.23,No,quiteSure,cr,4.49504017829895,NA
15,63xnq5!,True,16,1,equal,ST1_high_4_a1,P = T1?,Same,1,1,high,96,1.06,70,1.73,96,1.41,Yes,quiteSure,hit,1.7699708938598633,0.75
16,63xnq5!,False,1,1,equal,ST2_low_2_a2,P = T1?,Same,2,2,low,132,0.9,82,1.58,82,1.27,Yes,sure,fa,7.2034690380096436,NA
17,63xnq5!,False,2,1,equal,ST1_high_3_a1,P = T1?,Same,1,1,high,70,1.68,96,1.36,70,1.43,Yes,sure,hit,3.7492189407348633,NA
18,63xnq5!,False,3,1,equal,ST2_high_4_a2,P = T2?,Same,2,2,high,96,1.07,70,1.62,70,1.64,Yes,sure,hit,4.824743747711182,NA
19,63xnq5!,False,4,1,equal,ST2_low_4_a2,P = T2?,Same,2,2,low,112,0.94,70,1.7,70,1.74,Yes,sure,hit,1.451092004776001,NA
20,63xnq5!,False,5,1,equal,ST2_low_1_a2,P = T1?,Same,2,2,low,82,1.44,132,0.89,132,1.05,No,sure,cr,1.9016849994659424,NA
21,63xnq5!,False,6,1,equal,ST1_low_5_a2,P = T2?,Same,1,2,low,96,1.22,154,0.83,96,1.07,No,sure,cr,3.9246950149536133,NA
22,63xnq5!,False,7,1,equal,ST2_low_4_a2,P = T1?,Same,2,2,low,112,1.0,70,1.6,70,1.62,No,sure,cr,2.3703038692474365,NA
23,63xnq5!,False,8,1,equal,ST1_high_1_a2,P = T1?,Same,1,2,high,82,1.35,112,1.12,82,1.23,Yes,unsure,hit,3.3909268379211426,NA
24,63xnq5!,False,9,1,equal,ST1_low_2_a2,P = T1?,Same,1,2,low,132,0.84,82,1.31,132,0.8,No,sure,miss,2.5374057292938232,NA
25,63xnq5!,False,10,1,equal,ST1_high_1_a1,P = T2?,Same,1,1,high,82,1.3,112,1.1,82,1.42,No,sure,cr,2.17441987991333,NA
26,63xnq5!,False,11,1,equal,ST1_high_2_a2,P = T1?,Same,1,2,high,112,1.04,82,1.28,112,1.06,Yes,sure,hit,2.8894200325012207,NA
27,63xnq5!,False,12,1,equal,ST2_high_2_a2,P = T1?,Same,2,2,high,112,1.16,82,1.59,82,1.27,No,sure,cr,2.5491349697113037,NA
28,63xnq5!,False,13,1,equal,ST1_low_1_a1,P = T2?,Same,1,1,low,82,1.56,132,1.0,82,1.54,No,sure,cr,1.993528127670288,NA
29,63xnq5!,False,14,1,equal,ST1_high_1_a1,P = T2?,Same,1,1,high,82,1.58,112,1.14,82,1.31,No,sure,cr,1.5667221546173096,NA
30,63xnq5!,False,15,1,equal,ST1_low_3_a2,P = T1?,Same,1,2,low,70,1.74,112,1.11,70,1.56,Yes,quiteSure,hit,5.3623480796813965,NA
31,63xnq5!,False,16,1,equal,ST1_low_3_a2,P = T2?,Same,1,2,low,70,1.67,112,1.12,70,1.53,No,sure,cr,5.909016847610474,NA
32,63xnq5!,False,17,1,equal,ST2_high_3_a2,P = T2?,Same,2,2,high,70,1.68,96,1.4,96,1.23,Yes,quiteSure,hit,1.409550666809082,NA
33,63xnq5!,False,18,1,equal,ST1_high_3_a2,P = T2?,Same,1,2,high,70,1.46,96,1.36,70,1.59,Yes,quiteSure,fa,3.847342014312744,NA
34,63xnq5!,False,19,1,equal,ST2_high_6_a1,P = T1?,Same,2,1,high,132,0.79,96,1.2,96,1.39,Yes,quiteSure,fa,1.6744351387023926,NA
35,63xnq5!,False,20,1,equal,STb_7_a2,P = T2?,Same,0,2,None,154,0.84,154,0.74,154,0.75,Yes,quiteSure,hit,2.217656135559082,NA
36,63xnq5!,False,21,1,equal,ST1_high_6_a1,P = T1?,Same,1,1,high,132,0.82,96,1.2,132,0.93,Yes,quiteSure,hit,3.4212989807128906,NA
37,63xnq5!,False,22,1,equal,ST2_low_4_a1,P = T2?,Same,2,1,low,112,0.97,70,1.78,70,1.55,Yes,sure,hit,2.1687800884246826,NA
38,63xnq5!,False,23,1,equal,ST1_high_1_a1,P = T1?,Same,1,1,high,82,1.45,112,1.01,82,1.34,Yes,quiteSure,hit,1.7908380031585693,NA
39,63xnq5!,False,24,1,equal,ST1_high_2_a2,P = T2?,Same,1,2,high,112,1.02,82,1.51,112,1.07,Yes,unsure,fa,7.523200035095215,NA
40,63xnq5!,False,25,1,equal,ST1_low_4_a1,P = T2?,Same,1,1,low,112,1.08,70,1.45,112,1.16,No,sure,cr,3.3643858432769775,NA
41,63xnq5!,False,26,1,equal,ST2_high_1_a1,P = T1?,Same,2,1,high,82,1.32,112,1.11,112,0.99,No,sure,cr,2.483595132827759,NA
42,63xnq5!,False,27,1,equal,ST2_high_3_a1,P = T2?,Same,2,1,high,70,1.75,96,1.36,96,1.15,No,unsure,miss,2.824586868286133,NA
43,63xnq5!,False,28,1,equal,STb_8_a2,P = T2?,Same,0,2,None,180,0.88,180,0.73,180,0.74,Yes,sure,hit,2.0133001804351807,NA
44,63xnq5!,False,29,1,equal,ST1_low_4_a2,P = T1?,Same,1,2,low,112,1.23,70,1.74,112,1.16,Yes,quiteSure,hit,1.8985569477081299,NA
45,63xnq5!,False,30,1,equal,ST2_high_5_a2,P = T1?,Same,2,2,high,96,1.24,132,1.04,132,0.82,No,sure,cr,1.7335259914398193,NA
46,63xnq5!,False,31,1,equal,ST2_low_5_a1,P = T1?,Same,2,1,low,96,1.08,154,0.82,154,0.77,No,sure,cr,1.8131060600280762,NA
47,63xnq5!,False,32,1,equal,ST2_high_3_a1,P = T1?,Same,2,1,high,70,1.4,96,1.38,96,1.2,Yes,unsure,fa,2.1047470569610596,NA
48,63xnq5!,False,33,1,equal,ST1_low_3_a1,P = T2?,Same,1,1,low,70,1.6,112,1.09,70,1.6,Yes,quiteSure,fa,6.445502042770386,NA
49,63xnq5!,False,34,1,equal,ST2_low_5_a1,P = T1?,Same,2,1,low,96,1.24,154,0.79,154,0.76,No,sure,cr,2.571031093597412,NA
50,63xnq5!,False,35,1,equal,ST2_high_5_a1,P = T1?,Same,2,1,high,96,1.19,132,0.84,132,0.84,No,sure,cr,2.868014097213745,NA
51,63xnq5!,False,36,1,equal,ST1_high_5_a1,P = T2?,Same,1,1,high,96,1.21,132,1.06,96,1.21,No,sure,cr,1.617995023727417,NA
52,63xnq5!,False,37,1,equal,ST2_high_3_a1,P = T1?,Same,2,1,high,70,1.82,96,1.43,96,1.26,Yes,sure,fa,2.400902271270752,NA
53,63xnq5!,False,38,1,equal,ST2_low_1_a1,P = T2?,Same,2,1,low,82,1.23,132,0.96,132,1.05,Yes,quiteSure,hit,2.1042721271514893,NA
54,63xnq5!,False,39,1,equal,ST2_high_5_a2,P = T2?,Same,2,2,high,96,1.37,132,0.95,132,0.94,Yes,quiteSure,hit,2.0139830112457275,NA
55,63xnq5!,False,40,1,equal,ST2_low_2_a2,P = T1?,Same,2,2,low,132,1.04,82,1.42,82,1.59,Yes,quiteSure,fa,3.858349084854126,NA
56,63xnq5!,False,41,1,equal,ST1_high_3_a1,P = T2?,Same,1,1,high,70,1.66,96,1.34,70,2.05,Yes,quiteSure,fa,2.2426230907440186,NA
57,63xnq5!,False,42,1,equal,ST1_low_5_a1,P = T2?,Same,1,1,low,96,1.36,154,0.72,96,1.37,Yes,quiteSure,fa,5.072605848312378,NA
58,63xnq5!,False,43,1,equal,ST2_low_1_a1,P = T1?,Same,2,1,low,82,1.37,132,0.9,132,0.81,Yes,quiteSure,fa,2.549666166305542,NA
59,63xnq5!,False,44,1,equal,ST2_high_1_a1,P = T2?,Same,2,1,high,82,1.48,112,0.97,112,1.06,Yes,quiteSure,hit,2.9375710487365723,NA
60,63xnq5!,False,45,1,equal,ST1_high_4_a1,P = T1?,Same,1,1,high,96,1.27,70,1.77,96,1.39,Yes,quiteSure,hit,2.552431106567383,NA
61,63xnq5!,False,46,1,equal,ST2_high_5_a1,P = T1?,Same,2,1,high,96,1.13,132,0.93,132,0.89,Yes,unsure,fa,4.7559099197387695,NA
62,63xnq5!,False,47,1,equal,ST2_high_1_a2,P = T2?,Same,2,2,high,82,1.59,112,0.94,112,1.02,No,unsure,miss,4.179020881652832,NA
63,63xnq5!,False,48,1,equal,ST2_high_3_a2,P = T2?,Same,2,2,high,70,1.82,96,1.3,96,1.32,Yes,unsure,hit,1.9441590309143066,NA
64,63xnq5!,False,49,1,equal,ST2_high_2_a2,P = T1?,Same,2,2,high,112,0.92,82,1.59,82,1.27,Yes,unsure,fa,5.297515869140625,NA
65,63xnq5!,False,50,1,equal,ST1_low_6_a2,P = T1?,Same,1,2,low,154,0.88,96,1.25,154,0.72,No,unsure,miss,3.634387969970703,NA
66,63xnq5!,False,51,1,equal,ST2_low_6_a1,P = T1?,Same,2,1,low,154,0.72,96,1.36,96,1.22,Yes,unsure,fa,2.038980722427368,NA
67,63xnq5!,False,52,1,equal,ST2_high_4_a1,P = T2?,Same,2,1,high,96,1.18,70,1.58,70,1.42,Yes,quiteSure,hit,1.5448601245880127,NA
68,63xnq5!,False,53,1,equal,ST2_low_6_a1,P = T2?,Same,2,1,low,154,0.89,96,1.16,96,1.17,Yes,quiteSure,hit,1.3592569828033447,NA
69,63xnq5!,False,54,1,equal,ST1_high_6_a2,P = T1?,Same,1,2,high,132,0.95,96,1.19,132,1.01,Yes,quiteSure,hit,1.3364059925079346,NA
70,63xnq5!,False,55,1,equal,ST1_high_3_a2,P = T1?,Same,1,2,high,70,1.46,96,1.07,70,1.65,Yes,quiteSure,hit,1.6136040687561035,NA
71,63xnq5!,False,56,1,equal,ST2_low_3_a2,P = T1?,Same,2,2,low,70,1.56,112,0.99,112,1.17,No,unsure,cr,2.985748052597046,NA
72,63xnq5!,False,57,1,equal,ST1_high_4_a1,P = T1?,Same,1,1,high,96,1.35,70,1.77,96,1.23,Yes,unsure,hit,3.3209800720214844,NA
73,63xnq5!,False,58,1,equal,ST1_low_4_a2,P = T1?,Same,1,2,low,112,1.14,70,1.68,112,1.06,Yes,unsure,hit,1.8591461181640625,NA
74,63xnq5!,False,59,1,equal,ST2_high_5_a2,P = T2?,Same,2,2,high,96,1.26,132,1.03,132,0.98,No,unsure,miss,3.0926809310913086,NA
75,63xnq5!,False,60,1,equal,ST2_high_6_a1,P = T1?,Same,2,1,high,132,0.84,96,1.24,96,1.38,No,unsure,cr,1.6949219703674316,NA
76,63xnq5!,False,61,1,equal,ST1_high_2_a1,P = T1?,Same,1,1,high,112,1.0,82,1.59,112,1.02,Yes,unsure,hit,1.492185115814209,NA
77,63xnq5!,False,62,1,equal,ST2_low_5_a2,P = T1?,Same,2,2,low,96,1.15,154,0.78,154,0.95,No,sure,cr,1.3457772731781006,NA
78,63xnq5!,False,63,1,equal,ST1_high_6_a2,P = T1?,Same,1,2,high,132,0.8,96,1.1,132,0.85,Yes,unsure,hit,2.348320960998535,NA
79,63xnq5!,False,64,1,equal,ST1_low_5_a2,P = T1?,Same,1,2,low,96,1.2,154,0.78,96,1.16,No,sure,miss,1.7904109954833984,NA
80,63xnq5!,False,65,1,equal,ST1_high_5_a2,P = T1?,Same,1,2,high,96,1.42,132,1.05,96,1.29,No,unsure,miss,3.54158091545105,NA
81,63xnq5!,False,66,1,equal,ST2_high_4_a2,P = T1?,Same,2,2,high,96,1.4,70,1.64,70,1.77,No,unsure,cr,1.5861361026763916,NA
82,63xnq5!,False,67,1,equal,STb_5_a1,P = T1?,Same,0,1,None,112,1.26,112,0.96,112,1.22,Yes,unsure,hit,5.68298602104187,NA
83,63xnq5!,False,68,1,equal,ST1_high_6_a1,P = T1?,Same,1,1,high,132,0.83,96,1.43,132,1.0,No,sure,miss,1.3033928871154785,NA
84,63xnq5!,False,69,1,equal,ST2_high_1_a2,P = T1?,Same,2,2,high,82,1.62,112,1.02,112,1.14,No,sure,cr,3.701848030090332,NA
85,63xnq5!,False,70,1,equal,STb_5_a1,P = T2?,Same,0,1,None,112,0.94,112,1.08,112,1.08,Yes,quiteSure,hit,3.2325661182403564,NA
86,63xnq5!,False,71,1,equal,ST2_high_5_a2,P = T1?,Same,2,2,high,96,1.17,132,1.02,132,0.8,No,sure,cr,1.5390779972076416,NA
87,63xnq5!,False,72,1,equal,ST2_low_5_a2,P = T2?,Same,2,2,low,96,1.32,154,0.91,154,0.76,Yes,sure,hit,1.8601059913635254,NA
88,63xnq5!,False,73,1,equal,ST1_low_5_a1,P = T2?,Same,1,1,low,96,1.24,154,0.75,96,1.24,Yes,sure,fa,1.701632022857666,NA
89,63xnq5!,False,74,1,equal,ST2_low_4_a1,P = T1?,Same,2,1,low,112,1.12,70,1.8,70,1.66,No,unsure,cr,2.607851028442383,NA
90,63xnq5!,False,75,1,equal,ST2_high_6_a1,P = T2?,Same,2,1,high,132,0.85,96,1.27,96,1.28,Yes,unsure,hit,1.425490140914917,NA
91,63xnq5!,False,76,1,equal,ST1_high_4_a2,P = T1?,Same,1,2,high,96,0.93,70,1.58,96,1.05,No,unsure,miss,3.080003023147583,NA
92,63xnq5!,False,77,1,equal,ST2_low_6_a2,P = T2?,Same,2,2,low,154,0.8,96,1.24,96,1.31,No,unsure,miss,2.689136266708374,NA
93,63xnq5!,False,78,1,equal,ST2_high_4_a1,P = T1?,Same,2,1,high,96,1.26,70,1.68,70,1.66,No,quiteSure,cr,1.495872974395752,NA
94,63xnq5!,False,79,1,equal,STb_7_a2,P = T1?,Same,0,2,None,154,0.78,154,0.73,154,0.93,No,quiteSure,miss,1.4751338958740234,NA
95,63xnq5!,False,80,1,equal,ST2_high_4_a2,P = T1?,Same,2,2,high,96,1.15,70,1.53,70,1.59,No,unsure,cr,3.6850531101226807,NA
96,63xnq5!,False,81,1,equal,ST1_high_1_a2,P = T2?,Same,1,2,high,82,1.49,112,1.19,82,1.31,Yes,unsure,fa,1.880108118057251,NA
97,63xnq5!,False,82,1,equal,ST1_low_2_a1,P = T2?,Same,1,1,low,132,1.0,82,1.56,132,0.84,No,sure,cr,1.4995479583740234,NA
98,63xnq5!,False,83,1,equal,ST1_low_3_a2,P = T2?,Same,1,2,low,70,1.52,112,0.92,70,1.78,No,quiteSure,cr,1.608144998550415,NA
99,63xnq5!,False,84,1,equal,ST2_low_4_a2,P = T1?,Same,2,2,low,112,1.07,70,1.62,70,1.56,Yes,quiteSure,fa,2.8217761516571045,NA
100,63xnq5!,False,85,1,equal,ST2_low_6_a2,P = T1?,Same,2,2,low,154,0.79,96,1.22,96,1.16,No,quiteSure,cr,3.745088815689087,NA
101,63xnq5!,False,86,1,equal,ST2_low_2_a2,P = T1?,Same,2,2,low,132,0.98,82,1.6,82,1.34,No,unsure,cr,2.0412917137145996,NA
102,63xnq5!,False,87,1,equal,ST2_low_4_a1,P = T1?,Same,2,1,low,112,0.94,70,1.53,70,1.38,No,sure,cr,1.8335256576538086,NA
103,63xnq5!,False,88,1,equal,ST2_low_2_a2,P = T2?,Same,2,2,low,132,0.82,82,1.25,82,1.27,Yes,quiteSure,hit,2.4618980884552,NA
104,63xnq5!,False,89,1,equal,ST1_high_3_a2,P = T2?,Same,1,2,high,70,1.49,96,1.14,70,1.72,Yes,quiteSure,fa,4.083033084869385,NA
105,63xnq5!,False,90,1,equal,ST1_high_6_a2,P = T1?,Same,1,2,high,132,1.05,96,1.31,132,0.88,Yes,unsure,hit,1.5857770442962646,NA
106,63xnq5!,False,91,1,equal,STb_2_a1,P = T1?,Same,0,1,None,70,1.76,70,1.42,70,1.4,Yes,quiteSure,hit,3.068382978439331,NA
107,63xnq5!,False,92,1,equal,ST2_low_5_a1,P = T1?,Same,2,1,low,96,1.17,154,0.73,154,0.75,No,quiteSure,cr,1.9675452709197998,NA
108,63xnq5!,False,93,1,equal,ST1_high_5_a1,P = T1?,Same,1,1,high,96,1.32,132,0.82,96,1.12,Yes,quiteSure,hit,1.6754751205444336,NA
109,63xnq5!,False,94,1,equal,ST2_low_5_a2,P = T1?,Same,2,2,low,96,1.2,154,0.72,154,0.92,No,sure,cr,1.2158420085906982,NA
110,63xnq5!,False,95,1,equal,ST2_high_5_a2,P = T1?,Same,2,2,high,96,1.2,132,0.97,132,1.05,No,sure,cr,1.4945049285888672,NA
111,63xnq5!,False,96,1,equal,ST1_low_1_a2,P = T1?,Same,1,2,low,82,1.63,132,1.03,82,1.34,Yes,quiteSure,hit,2.0828027725219727,NA
112,63xnq5!,False,97,1,equal,ST1_low_2_a2,P = T1?,Same,1,2,low,132,0.9,82,1.24,132,0.86,Yes,quiteSure,hit,1.5234596729278564,NA
113,63xnq5!,False,98,1,equal,ST2_low_4_a2,P = T1?,Same,2,2,low,112,0.93,70,1.61,70,1.61,No,quiteSure,cr,1.3827950954437256,NA
114,63xnq5!,False,99,1,equal,ST2_high_3_a2,P = T2?,Same,2,2,high,70,1.55,96,1.31,96,1.32,Yes,sure,hit,1.516484022140503,NA
115,63xnq5!,False,100,1,equal,ST1_low_1_a1,P = T1?,Same,1,1,low,82,1.42,132,0.81,82,1.4,No,sure,miss,1.631775140762329,NA
116,63xnq5!,False,101,1,equal,DT1_high_6_a1,P = T2?,Different,1,1,high,132,0.91,96,1.22,154,0.88,No,sure,cr,1.8560538291931152,NA
117,63xnq5!,False,102,1,equal,ST2_low_6_a2,P = T2?,Same,2,2,low,154,0.77,96,1.39,96,1.2,Yes,sure,hit,1.655898094177246,NA
118,63xnq5!,False,103,1,equal,ST1_low_3_a1,P = T1?,Same,1,1,low,70,1.38,112,1.21,70,1.41,Yes,sure,hit,2.099372148513794,NA
119,63xnq5!,False,104,1,equal,ST2_high_4_a2,P = T2?,Same,2,2,high,96,1.43,70,1.75,70,1.84,Yes,quiteSure,hit,1.0781331062316895,NA
120,63xnq5!,False,105,1,equal,ST1_high_3_a1,P = T2?,Same,1,1,high,70,1.84,96,1.14,70,1.84,No,quiteSure,cr,1.9707252979278564,NA
121,63xnq5!,False,106,1,equal,ST2_low_4_a2,P = T2?,Same,2,2,low,112,1.11,70,1.69,70,1.54,Yes,sure,hit,1.20064115524292,NA
122,63xnq5!,False,107,1,equal,ST1_low_6_a1,P = T2?,Same,1,1,low,154,0.94,96,1.18,154,0.85,No,sure,cr,1.4035470485687256,NA
123,63xnq5!,False,108,1,equal,ST1_high_4_a2,P = T2?,Same,1,2,high,96,1.15,70,1.75,96,1.11,Yes,unsure,fa,1.651294231414795,NA
124,63xnq5!,False,109,1,equal,STb_8_a1,P = T2?,Same,0,1,None,180,0.82,180,0.8,180,0.86,Yes,unsure,hit,2.603748083114624,NA
125,63xnq5!,False,110,1,equal,ST2_high_6_a2,P = T2?,Same,2,2,high,132,0.83,96,1.34,96,1.24,Yes,unsure,hit,1.990351915359497,NA
126,63xnq5!,False,111,1,equal,DT2_low_1_a1,P = T1?,Different,2,1,low,82,1.35,132,0.86,154,0.75,No,sure,cr,2.057651996612549,NA
127,63xnq5!,False,112,1,equal,ST2_high_2_a2,P = T2?,Same,2,2,high,112,1.14,82,1.31,82,1.22,Yes,sure,hit,3.1391541957855225,NA
128,63xnq5!,False,113,1,equal,ST1_high_2_a1,P = T1?,Same,1,1,high,112,0.93,82,1.46,112,0.99,Yes,sure,hit,1.4302701950073242,NA
129,63xnq5!,False,114,1,equal,ST1_low_2_a2,P = T1?,Same,1,2,low,132,0.86,82,1.61,132,1.03,Yes,unsure,hit,1.632619857788086,NA
130,63xnq5!,False,115,1,equal,ST1_low_2_a1,P = T1?,Same,1,1,low,132,1.04,82,1.48,132,1.05,Yes,unsure,hit,1.5416929721832275,NA
131,63xnq5!,False,116,1,equal,ST2_high_5_a1,P = T1?,Same,2,1,high,96,1.28,132,1.04,132,0.95,No,sure,cr,1.7699310779571533,NA
132,63xnq5!,False,117,1,equal,DT2_high_2_a1,P = T1?,Different,2,1,high,112,1.12,82,1.64,70,1.71,No,sure,cr,1.7636418342590332,NA
133,63xnq5!,False,118,1,equal,ST1_high_3_a2,P = T1?,Same,1,2,high,70,1.51,96,1.41,70,1.69,Yes,quiteSure,hit,1.4737029075622559,NA
134,63xnq5!,False,119,1,equal,STb_3_a1,P = T1?,Same,0,1,None,82,1.43,82,1.22,82,1.41,Yes,quiteSure,hit,1.1318719387054443,NA
135,63xnq5!,False,120,1,equal,ST1_low_6_a2,P = T2?,Same,1,2,low,154,0.72,96,1.25,154,0.93,No,sure,cr,1.1390750408172607,NA
136,63xnq5!,False,121,1,equal,ST1_high_4_a2,P = T2?,Same,1,2,high,96,1.4,70,1.44,96,1.33,Yes,unsure,fa,5.999017000198364,NA
137,63xnq5!,False,122,1,equal,ST2_high_4_a1,P = T1?,Same,2,1,high,96,1.15,70,1.43,70,1.44,Yes,quiteSure,fa,1.2471730709075928,NA
138,63xnq5!,False,123,1,equal,ST1_high_2_a2,P = T2?,Same,1,2,high,112,1.01,82,1.32,112,0.98,No,sure,cr,1.3620061874389648,NA
139,63xnq5!,False,124,1,equal,ST1_low_3_a1,P = T1?,Same,1,1,low,70,1.73,112,1.16,70,1.37,Yes,unsure,hit,3.785623073577881,NA
140,63xnq5!,False,125,1,equal,ST2_high_3_a2,P = T1?,Same,2,2,high,70,1.72,96,1.21,96,1.14,No,sure,cr,1.4976036548614502,NA
141,63xnq5!,False,126,1,equal,STb_1_a2,P = T2?,Same,0,2,None,60,1.68,60,1.75,60,1.98,Yes,unsure,hit,2.2144250869750977,NA
142,63xnq5!,False,127,1,equal,ST2_high_6_a2,P = T1?,Same,2,2,high,132,1.05,96,1.42,96,1.08,Yes,unsure,fa,1.3132569789886475,NA
143,63xnq5!,False,128,1,equal,ST1_low_2_a2,P = T2?,Same,1,2,low,132,0.99,82,1.49,132,1.04,No,sure,cr,1.3861000537872314,NA
144,63xnq5!,False,129,1,equal,ST1_low_6_a1,P = T2?,Same,1,1,low,154,0.86,96,1.22,154,0.85,No,unsure,cr,1.8852510452270508,NA
145,63xnq5!,False,130,1,equal,ST2_low_2_a1,P = T2?,Same,2,1,low,132,0.97,82,1.22,82,1.47,Yes,quiteSure,hit,1.9451420307159424,NA
146,63xnq5!,False,131,1,equal,ST2_high_1_a1,P = T2?,Same,2,1,high,82,1.32,112,0.99,112,1.2,Yes,unsure,hit,6.038640975952148,NA
147,63xnq5!,False,132,1,equal,ST2_high_4_a2,P = T2?,Same,2,2,high,96,1.1,70,1.78,70,1.52,Yes,unsure,hit,3.814749002456665,NA
148,63xnq5!,False,133,1,equal,ST1_high_5_a1,P = T1?,Same,1,1,high,96,1.37,132,0.91,96,1.1,No,sure,miss,1.0241951942443848,NA
149,63xnq5!,False,134,1,equal,ST2_low_1_a2,P = T2?,Same,2,2,low,82,1.3,132,0.85,132,0.86,No,quiteSure,miss,2.122318983078003,NA
150,63xnq5!,False,135,1,equal,ST1_low_4_a1,P = T2?,Same,1,1,low,112,1.11,70,1.42,112,1.17,No,sure,cr,1.2667319774627686,NA
151,63xnq5!,False,136,1,equal,ST2_low_3_a1,P = T1?,Same,2,1,low,70,1.51,112,1.14,112,0.97,No,sure,cr,3.4732778072357178,NA
152,63xnq5!,False,137,1,equal,ST1_low_1_a2,P = T2?,Same,1,2,low,82,1.36,132,0.79,82,1.59,No,quiteSure,cr,2.785365104675293,NA
153,63xnq5!,False,138,1,equal,DT2_low_2_a2,P = T2?,Different,2,2,low,132,1.04,82,1.54,70,1.42,Yes,sure,hit,1.5631349086761475,NA
154,63xnq5!,False,139,1,equal,ST1_low_6_a2,P = T2?,Same,1,2,low,154,0.92,96,1.26,154,0.74,No,sure,cr,1.3151400089263916,NA
155,63xnq5!,False,140,1,equal,STb_6_a2,P = T1?,Same,0,2,None,132,1.0,132,1.06,132,0.98,Yes,unsure,hit,1.8574800491333008,NA
156,63xnq5!,False,141,1,equal,ST1_low_3_a1,P = T1?,Same,1,1,low,70,1.67,112,1.23,70,1.66,Yes,sure,hit,1.1606950759887695,NA
157,63xnq5!,False,142,1,equal,ST2_low_1_a2,P = T1?,Same,2,2,low,82,1.27,132,0.96,132,0.86,No,sure,cr,1.2027039527893066,NA
158,63xnq5!,False,143,1,equal,ST1_high_6_a2,P = T2?,Same,1,2,high,132,0.99,96,1.35,132,0.98,No,sure,cr,1.0898089408874512,NA
159,63xnq5!,False,144,1,equal,ST1_low_6_a2,P = T2?,Same,1,2,low,154,0.76,96,1.43,154,0.81,No,sure,cr,1.1744399070739746,NA
160,63xnq5!,False,145,1,equal,ST1_low_3_a2,P = T2?,Same,1,2,low,70,1.77,112,1.15,70,1.58,No,sure,cr,1.838993787765503,NA
161,63xnq5!,False,146,1,equal,ST1_high_1_a1,P = T1?,Same,1,1,high,82,1.45,112,1.04,82,1.28,Yes,quiteSure,hit,3.226839780807495,NA
162,63xnq5!,False,147,1,equal,ST1_low_5_a1,P = T1?,Same,1,1,low,96,1.24,154,0.77,96,1.06,Yes,quiteSure,hit,3.297743082046509,NA
163,63xnq5!,False,148,1,equal,ST1_low_5_a1,P = T1?,Same,1,1,low,96,1.26,154,0.71,96,1.34,No,unsure,miss,2.1721601486206055,NA
164,63xnq5!,False,149,1,equal,ST2_high_6_a2,P = T2?,Same,2,2,high,132,0.84,96,1.31,96,1.13,Yes,quiteSure,hit,1.3177931308746338,NA
165,63xnq5!,False,150,1,equal,STb_3_a2,P = T2?,Same,0,2,None,82,1.42,82,1.46,82,1.55,Yes,quiteSure,hit,1.3134357929229736,NA
166,63xnq5!,False,151,1,equal,ST1_low_3_a1,P = T2?,Same,1,1,low,70,1.41,112,1.07,70,1.63,No,sure,cr,1.2305867671966553,NA
167,63xnq5!,False,152,1,equal,ST1_low_2_a2,P = T2?,Same,1,2,low,132,0.84,82,1.34,132,1.03,No,sure,cr,4.8031370639801025,NA
168,63xnq5!,False,153,1,equal,ST1_high_1_a1,P = T1?,Same,1,1,high,82,1.34,112,1.18,82,1.24,Yes,unsure,hit,8.067434072494507,NA
169,63xnq5!,False,154,1,equal,ST2_high_6_a1,P = T2?,Same,2,1,high,132,1.02,96,1.1,96,1.07,Yes,unsure,hit,1.336456298828125,NA
170,63xnq5!,False,155,1,equal,ST1_high_1_a2,P = T1?,Same,1,2,high,82,1.53,112,1.1,82,1.3,Yes,unsure,hit,1.1559321880340576,NA
171,63xnq5!,False,156,1,equal,ST2_high_4_a1,P = T1?,Same,2,1,high,96,1.21,70,1.6,70,1.78,Yes,quiteSure,fa,1.4954922199249268,NA
172,63xnq5!,False,157,1,equal,ST1_high_4_a2,P = T2?,Same,1,2,high,96,1.26,70,1.84,96,1.42,No,quiteSure,cr,1.789341926574707,NA
173,63xnq5!,False,158,1,equal,ST2_high_2_a1,P = T1?,Same,2,1,high,112,1.0,82,1.27,82,1.56,Yes,quiteSure,fa,3.318650007247925,NA
174,63xnq5!,False,159,1,equal,ST1_high_1_a2,P = T2?,Same,1,2,high,82,1.31,112,1.11,82,1.32,No,sure,cr,1.7918100357055664,NA
175,63xnq5!,False,160,1,equal,STb_4_a1,P = T1?,Same,0,1,None,96,1.34,96,1.26,96,1.43,Yes,quiteSure,hit,1.856968879699707,NA
176,63xnq5!,False,161,1,equal,ST2_high_1_a1,P = T2?,Same,2,1,high,82,1.47,112,1.02,112,0.98,Yes,quiteSure,hit,1.6111130714416504,NA
177,63xnq5!,False,162,1,equal,ST2_high_4_a1,P = T2?,Same,2,1,high,96,1.14,70,1.64,70,1.71,Yes,quiteSure,hit,1.2237329483032227,NA
178,63xnq5!,False,163,1,equal,ST1_high_2_a1,P = T2?,Same,1,1,high,112,1.09,82,1.32,112,1.04,Yes,unsure,fa,2.622025966644287,NA
179,63xnq5!,False,164,1,equal,ST1_high_1_a2,P = T1?,Same,1,2,high,82,1.27,112,1.16,82,1.48,Yes,unsure,hit,1.5237069129943848,NA
180,63xnq5!,False,165,1,equal,ST1_high_6_a1,P = T2?,Same,1,1,high,132,0.95,96,1.23,132,0.96,No,sure,cr,7.821355104446411,NA
181,63xnq5!,False,166,1,equal,ST1_low_1_a1,P = T1?,Same,1,1,low,82,1.47,132,0.99,82,1.26,No,sure,miss,3.0733230113983154,NA
182,63xnq5!,False,167,1,equal,ST1_low_1_a2,P = T2?,Same,1,2,low,82,1.42,132,0.85,82,1.38,No,quiteSure,cr,1.4271490573883057,NA
183,63xnq5!,False,168,1,equal,ST1_high_5_a1,P = T2?,Same,1,1,high,96,1.3,132,0.81,96,1.12,No,quiteSure,cr,2.2156870365142822,NA
184,63xnq5!,False,169,1,equal,ST2_high_3_a1,P = T2?,Same,2,1,high,70,1.69,96,1.34,96,1.18,Yes,quiteSure,hit,1.428523063659668,NA
185,63xnq5!,False,170,1,equal,ST1_high_1_a2,P = T2?,Same,1,2,high,82,1.4,112,1.1,82,1.36,Yes,quiteSure,fa,3.0485129356384277,NA
186,63xnq5!,False,171,1,equal,ST2_low_2_a2,P = T2?,Same,2,2,low,132,1.02,82,1.5,82,1.6,Yes,sure,hit,1.2020771503448486,NA
187,63xnq5!,False,172,1,equal,ST1_high_5_a1,P = T1?,Same,1,1,high,96,1.09,132,0.8,96,1.25,Yes,sure,hit,3.589940309524536,NA
188,63xnq5!,False,173,1,equal,DT2_low_6_a1,P = T2?,Different,2,1,low,154,0.93,96,1.4,82,1.34,Yes,quiteSure,hit,1.0245842933654785,NA
189,63xnq5!,False,174,1,equal,ST1_low_6_a1,P = T1?,Same,1,1,low,154,0.71,96,1.18,154,0.84,Yes,quiteSure,hit,1.498486042022705,NA
190,63xnq5!,False,175,1,equal,ST2_low_6_a1,P = T2?,Same,2,1,low,154,0.85,96,1.07,96,1.29,Yes,quiteSure,hit,1.6144309043884277,NA
191,63xnq5!,False,176,1,equal,DT1_low_6_a2,P = T2?,Different,1,2,low,154,0.89,96,1.2,180,0.71,No,quiteSure,cr,2.753455877304077,NA
192,63xnq5!,False,177,1,equal,STb_4_a1,P = T2?,Same,0,1,None,96,1.14,96,1.18,96,1.26,Yes,quiteSure,hit,1.450700044631958,NA
193,63xnq5!,False,178,1,equal,ST2_high_2_a2,P = T2?,Same,2,2,high,112,1.05,82,1.56,82,1.21,Yes,quiteSure,hit,1.6967437267303467,NA
194,63xnq5!,False,179,1,equal,ST1_high_4_a1,P = T2?,Same,1,1,high,96,1.08,70,1.73,96,1.42,No,quiteSure,cr,2.106200695037842,NA
195,63xnq5!,False,180,1,equal,ST2_low_5_a1,P = T2?,Same,2,1,low,96,1.09,154,0.77,154,0.94,No,quiteSure,miss,2.394354820251465,NA
196,63xnq5!,False,181,1,equal,ST1_high_2_a1,P = T1?,Same,1,1,high,112,1.22,82,1.35,112,0.95,No,unsure,miss,2.8473050594329834,NA
197,63xnq5!,False,182,1,equal,ST2_low_2_a1,P = T1?,Same,2,1,low,132,0.84,82,1.26,82,1.32,No,sure,cr,1.8078701496124268,NA
198,63xnq5!,False,183,1,equal,DT1_high_5_a1,P = T1?,Different,1,1,high,96,1.23,132,1.05,82,1.42,Yes,quiteSure,hit,2.3548638820648193,NA
199,63xnq5!,False,184,1,equal,ST2_high_2_a1,P = T2?,Same,2,1,high,112,0.98,82,1.52,82,1.6,Yes,unsure,hit,1.155958890914917,NA
200,63xnq5!,False,185,1,equal,DT1_high_1_a2,P = T1?,Different,1,2,high,82,1.62,112,1.07,70,1.39,Yes,quiteSure,hit,1.7937500476837158,NA
201,63xnq5!,False,186,1,equal,ST1_low_4_a2,P = T2?,Same,1,2,low,112,1.09,70,1.76,112,1.19,No,sure,cr,1.2305872440338135,NA
202,63xnq5!,False,187,1,equal,ST2_low_5_a2,P = T2?,Same,2,2,low,96,1.32,154,0.86,154,0.72,Yes,quiteSure,hit,3.159919023513794,NA
203,63xnq5!,False,188,1,equal,ST2_low_1_a1,P = T2?,Same,2,1,low,82,1.5,132,1.02,132,0.82,Yes,quiteSure,hit,4.911492109298706,NA
204,63xnq5!,False,189,1,equal,ST1_low_4_a2,P = T2?,Same,1,2,low,112,1.02,70,1.81,112,1.13,No,sure,cr,1.2598779201507568,NA
205,63xnq5!,False,190,1,equal,ST2_high_3_a1,P = T2?,Same,2,1,high,70,1.37,96,1.06,96,1.06,Yes,quiteSure,hit,1.4731240272521973,NA
206,63xnq5!,False,191,1,equal,DT1_high_4_a1,P = T2?,Different,1,1,high,96,1.12,70,1.39,112,0.95,No,sure,cr,1.1830861568450928,NA
207,63xnq5!,False,192,1,equal,ST2_high_3_a2,P = T1?,Same,2,2,high,70,1.53,96,1.17,96,1.25,Yes,unsure,fa,1.451073169708252,NA
208,63xnq5!,False,193,1,equal,ST2_low_6_a1,P = T1?,Same,2,1,low,154,0.72,96,1.27,96,1.36,No,sure,cr,1.4288980960845947,NA
209,63xnq5!,False,194,1,equal,ST1_high_3_a2,P = T2?,Same,1,2,high,70,1.49,96,1.29,70,1.4,No,sure,cr,1.4479107856750488,NA
210,63xnq5!,False,195,1,equal,ST2_low_3_a2,P = T1?,Same,2,2,low,70,1.76,112,1.18,112,0.98,No,sure,cr,1.0236449241638184,NA
211,63xnq5!,False,196,1,equal,ST2_high_4_a2,P = T1?,Same,2,2,high,96,1.32,70,1.63,70,1.55,Yes,unsure,fa,5.911016941070557,NA
212,63xnq5!,False,197,1,equal,ST2_high_2_a1,P = T2?,Same,2,1,high,112,0.92,82,1.26,82,1.52,Yes,unsure,hit,2.0588111877441406,NA
213,63xnq5!,False,198,1,equal,ST2_low_6_a2,P = T2?,Same,2,2,low,154,0.73,96,1.24,96,1.41,Yes,unsure,hit,3.8583757877349854,NA
214,63xnq5!,False,199,1,equal,ST1_high_5_a2,P = T2?,Same,1,2,high,96,1.23,132,0.82,96,1.14,No,quiteSure,cr,1.7693703174591064,NA
215,63xnq5!,False,200,1,equal,ST1_high_6_a2,P = T2?,Same,1,2,high,132,0.94,96,1.07,132,0.98,No,quiteSure,cr,1.4037246704101562,NA
216,63xnq5!,False,201,1,equal,ST2_high_1_a2,P = T2?,Same,2,2,high,82,1.38,112,0.97,112,1.13,No,quiteSure,miss,1.4340989589691162,NA
217,63xnq5!,False,202,1,equal,ST1_low_5_a2,P = T2?,Same,1,2,low,96,1.14,154,0.84,96,1.12,No,sure,cr,2.2578041553497314,NA
218,63xnq5!,False,203,1,equal,ST1_low_4_a1,P = T1?,Same,1,1,low,112,0.95,70,1.66,112,0.99,Yes,quiteSure,hit,4.252211093902588,NA
219,63xnq5!,False,204,1,equal,ST1_low_1_a2,P = T2?,Same,1,2,low,82,1.46,132,0.97,82,1.34,No,quiteSure,cr,2.7302849292755127,NA
220,63xnq5!,False,205,1,equal,ST1_low_1_a1,P = T2?,Same,1,1,low,82,1.52,132,0.94,82,1.62,No,sure,cr,1.557748794555664,NA
221,63xnq5!,False,206,1,equal,ST2_high_1_a2,P = T1?,Same,2,2,high,82,1.6,112,1.02,112,0.94,No,sure,cr,2.5108888149261475,NA
222,63xnq5!,False,207,1,equal,ST1_low_5_a1,P = T2?,Same,1,1,low,96,1.07,154,0.78,96,1.35,Yes,sure,fa,1.3824970722198486,NA
223,63xnq5!,False,208,1,equal,ST2_low_2_a1,P = T1?,Same,2,1,low,132,0.91,82,1.47,82,1.45,No,sure,cr,1.4544920921325684,NA
224,63xnq5!,False,209,1,equal,ST2_high_5_a1,P = T2?,Same,2,1,high,96,1.33,132,0.93,132,1.02,Yes,quiteSure,hit,2.263024091720581,NA
225,63xnq5!,False,210,1,equal,ST2_high_2_a1,P = T1?,Same,2,1,high,112,1.14,82,1.34,82,1.51,No,sure,cr,1.1827361583709717,NA
226,63xnq5!,False,211,1,equal,ST1_low_1_a2,P = T1?,Same,1,2,low,82,1.25,132,1.04,82,1.33,Yes,sure,hit,1.4701087474822998,NA
227,63xnq5!,False,212,1,equal,ST2_high_6_a2,P = T1?,Same,2,2,high,132,0.82,96,1.3,96,1.11,Yes,quiteSure,fa,2.9814460277557373,NA
228,63xnq5!,False,213,1,equal,ST2_low_5_a2,P = T2?,Same,2,2,low,96,1.29,154,0.83,154,0.77,Yes,quiteSure,hit,2.0577712059020996,NA
229,63xnq5!,False,214,1,equal,ST1_low_5_a1,P = T1?,Same,1,1,low,96,1.2,154,0.72,96,1.08,Yes,quiteSure,hit,1.1159651279449463,NA
230,63xnq5!,False,215,1,equal,ST1_high_2_a2,P = T1?,Same,1,2,high,112,1.09,82,1.55,112,1.2,No,sure,miss,1.2243409156799316,NA
231,63xnq5!,False,216,1,equal,ST1_low_2_a1,P = T1?,Same,1,1,low,132,0.85,82,1.48,132,0.99,Yes,unsure,hit,2.8697242736816406,NA
232,63xnq5!,False,217,1,equal,ST2_low_4_a1,P = T2?,Same,2,1,low,112,1.04,70,1.84,70,1.83,Yes,unsure,hit,1.0906641483306885,NA
233,63xnq5!,False,218,1,equal,ST2_high_2_a2,P = T2?,Same,2,2,high,112,0.96,82,1.74,82,1.3,No,unsure,miss,3.8794779777526855,NA
234,63xnq5!,False,219,1,equal,ST1_low_1_a2,P = T1?,Same,1,2,low,82,1.3,132,1.03,82,1.43,Yes,unsure,hit,1.1357769966125488,NA
235,63xnq5!,False,220,1,equal,ST1_low_4_a1,P = T1?,Same,1,1,low,112,0.94,70,1.38,112,0.92,No,quiteSure,miss,4.325777053833008,NA
236,63xnq5!,False,221,1,equal,ST1_low_6_a2,P = T1?,Same,1,2,low,154,0.93,96,1.26,154,0.89,Yes,unsure,hit,1.2184429168701172,NA
237,63xnq5!,False,222,1,equal,ST2_low_5_a1,P = T2?,Same,2,1,low,96,1.36,154,0.93,154,0.77,Yes,unsure,hit,1.562119960784912,NA
238,63xnq5!,False,223,1,equal,ST1_low_3_a2,P = T1?,Same,1,2,low,70,1.51,112,0.95,70,1.84,No,quiteSure,miss,2.7815098762512207,NA
239,63xnq5!,False,224,1,equal,ST1_low_4_a1,P = T2?,Same,1,1,low,112,1.2,70,1.65,112,1.04,No,sure,cr,1.40702486038208,NA
240,63xnq5!,False,225,1,equal,ST2_low_5_a2,P = T1?,Same,2,2,low,96,1.26,154,0.78,154,0.83,No,sure,cr,2.531140089035034,NA
241,63xnq5!,False,226,1,equal,ST1_high_6_a1,P = T1?,Same,1,1,high,132,0.93,96,1.29,132,1.02,Yes,quiteSure,hit,4.511292219161987,NA
242,63xnq5!,False,227,1,equal,ST2_low_3_a2,P = T2?,Same,2,2,low,70,1.57,112,1.01,112,0.96,Yes,quiteSure,hit,1.5407607555389404,NA
243,63xnq5!,False,228,1,equal,ST1_high_5_a2,P = T1?,Same,1,2,high,96,1.15,132,0.84,96,1.08,Yes,unsure,hit,2.887917995452881,NA
244,63xnq5!,False,229,1,equal,ST1_low_6_a1,P = T1?,Same,1,1,low,154,0.84,96,1.2,154,0.93,Yes,quiteSure,hit,1.2983894348144531,NA
245,63xnq5!,False,230,1,equal,STb_4_a2,P = T1?,Same,0,2,None,96,1.24,96,1.21,96,1.1,Yes,quiteSure,hit,0.9319028854370117,NA
246,63xnq5!,False,231,1,equal,ST2_low_2_a1,P = T1?,Same,2,1,low,132,0.89,82,1.46,82,1.34,No,sure,cr,1.5639550685882568,NA
247,63xnq5!,False,232,1,equal,ST2_low_3_a1,P = T2?,Same,2,1,low,70,1.68,112,1.06,112,1.17,Yes,quiteSure,hit,3.4542348384857178,NA
248,63xnq5!,False,233,1,equal,ST1_low_4_a2,P = T2?,Same,1,2,low,112,0.92,70,1.44,112,1.13,No,sure,cr,1.218548059463501,NA
249,63xnq5!,False,234,1,equal,ST1_low_6_a1,P = T2?,Same,1,1,low,154,0.85,96,1.31,154,0.87,No,quiteSure,cr,1.4949822425842285,NA
250,63xnq5!,False,235,1,equal,ST1_high_6_a2,P = T2?,Same,1,2,high,132,0.92,96,1.34,132,1.02,No,quiteSure,cr,1.2478790283203125,NA
251,63xnq5!,False,236,1,equal,ST2_high_1_a1,P = T1?,Same,2,1,high,82,1.63,112,1.12,112,1.02,No,quiteSure,cr,1.4271910190582275,NA
252,63xnq5!,False,237,1,equal,ST1_low_3_a1,P = T2?,Same,1,1,low,70,1.39,112,1.08,70,1.78,No,sure,cr,1.2016091346740723,NA
253,63xnq5!,False,238,1,equal,ST1_high_3_a2,P = T1?,Same,1,2,high,70,1.61,96,1.11,70,1.68,Yes,quiteSure,hit,1.3591029644012451,NA
254,63xnq5!,False,239,1,equal,ST1_low_2_a1,P = T2?,Same,1,1,low,132,0.91,82,1.35,132,0.82,No,quiteSure,cr,1.205254077911377,NA
255,63xnq5!,False,240,1,equal,ST2_high_2_a1,P = T1?,Same,2,1,high,112,1.04,82,1.42,82,1.22,No,unsure,cr,3.226842164993286,NA
256,63xnq5!,False,241,1,equal,ST1_high_3_a1,P = T1?,Same,1,1,high,70,1.6,96,1.42,70,1.59,Yes,quiteSure,hit,1.181297779083252,NA
257,63xnq5!,False,242,1,equal,ST2_low_4_a1,P = T2?,Same,2,1,low,112,1.11,70,1.54,70,1.55,No,sure,miss,1.430156946182251,NA
258,63xnq5!,False,243,1,equal,ST2_high_6_a1,P = T2?,Same,2,1,high,132,0.95,96,1.07,96,1.31,Yes,quiteSure,hit,1.1163909435272217,NA
259,63xnq5!,False,244,1,equal,ST2_low_6_a2,P = T1?,Same,2,2,low,154,0.85,96,1.18,96,1.08,No,quiteSure,cr,1.876439094543457,NA
260,63xnq5!,False,245,1,equal,DT2_low_5_a2,P = T1?,Different,2,2,low,96,1.26,154,0.9,180,0.8,No,sure,cr,1.9245030879974365,NA
261,63xnq5!,False,246,1,equal,ST1_high_4_a1,P = T2?,Same,1,1,high,96,1.14,70,1.45,96,1.18,Yes,quiteSure,fa,1.6972901821136475,NA
262,63xnq5!,False,247,1,equal,ST2_low_3_a2,P = T1?,Same,2,2,low,70,1.77,112,0.93,112,0.96,Yes,unsure,fa,1.8139660358428955,NA
263,63xnq5!,False,248,1,equal,ST2_low_6_a1,P = T2?,Same,2,1,low,154,0.91,96,1.29,96,1.3,Yes,unsure,hit,1.199781894683838,NA
264,63xnq5!,False,249,1,equal,ST1_low_2_a2,P = T2?,Same,1,2,low,132,0.99,82,1.44,132,0.99,No,sure,cr,2.2246527671813965,NA
265,63xnq5!,False,250,1,equal,ST1_low_6_a1,P = T1?,Same,1,1,low,154,0.9,96,1.19,154,0.95,No,quiteSure,miss,2.1247639656066895,NA
266,63xnq5!,False,251,1,equal,ST1_high_4_a2,P = T1?,Same,1,2,high,96,1.17,70,1.84,96,1.42,Yes,quiteSure,hit,1.3119139671325684,NA
267,63xnq5!,False,252,1,equal,ST1_high_5_a2,P = T2?,Same,1,2,high,96,1.1,132,0.79,96,1.07,Yes,quiteSure,fa,2.6678860187530518,NA
268,63xnq5!,False,253,1,equal,ST2_low_3_a2,P = T2?,Same,2,2,low,70,1.68,112,1.04,112,1.23,No,unsure,miss,1.9039552211761475,NA
269,63xnq5!,False,254,1,equal,DT2_high_4_a2,P = T1?,Different,2,2,high,96,1.29,70,1.72,60,1.82,No,quiteSure,cr,1.2734029293060303,NA
270,63xnq5!,False,255,1,equal,ST2_low_5_a1,P = T2?,Same,2,1,low,96,1.34,154,0.79,154,0.78,Yes,quiteSure,hit,1.6802072525024414,NA
271,63xnq5!,False,256,1,equal,ST2_low_1_a1,P = T2?,Same,2,1,low,82,1.47,132,0.92,132,1.01,Yes,sure,hit,1.2894642353057861,NA
272,63xnq5!,False,257,1,equal,ST1_high_6_a1,P = T2?,Same,1,1,high,132,0.81,96,1.39,132,1.04,No,quiteSure,cr,1.3651273250579834,NA
273,63xnq5!,False,258,1,equal,ST1_low_4_a2,P = T1?,Same,1,2,low,112,0.95,70,1.45,112,1.04,Yes,quiteSure,hit,1.3732938766479492,NA
274,63xnq5!,False,259,1,equal,ST1_high_2_a2,P = T2?,Same,1,2,high,112,1.16,82,1.52,112,1.03,Yes,quiteSure,fa,1.7207732200622559,NA
275,63xnq5!,False,260,1,equal,ST1_high_3_a1,P = T2?,Same,1,1,high,70,1.68,96,1.13,70,1.5,Yes,quiteSure,fa,1.0067710876464844,NA
276,63xnq5!,False,261,1,equal,ST1_high_5_a1,P = T2?,Same,1,1,high,96,1.42,132,0.92,96,1.14,No,unsure,cr,4.670951843261719,NA
277,63xnq5!,False,262,1,equal,ST1_high_4_a1,P = T2?,Same,1,1,high,96,1.43,70,1.37,96,1.11,No,sure,cr,1.269655704498291,NA
278,63xnq5!,False,263,1,equal,ST1_high_2_a1,P = T2?,Same,1,1,high,112,1.18,82,1.63,112,1.0,No,sure,cr,1.698232889175415,NA
279,63xnq5!,False,264,1,equal,ST2_high_5_a1,P = T2?,Same,2,1,high,96,1.32,132,0.98,132,0.92,No,sure,miss,1.546844244003296,NA
280,63xnq5!,False,265,1,equal,ST2_low_4_a2,P = T2?,Same,2,2,low,112,0.99,70,1.74,70,1.61,Yes,quiteSure,hit,1.4118919372558594,NA
281,63xnq5!,False,266,1,equal,ST2_high_2_a2,P = T1?,Same,2,2,high,112,0.98,82,1.63,82,1.48,Yes,quiteSure,fa,4.371166944503784,NA
282,63xnq5!,False,267,1,equal,ST1_low_5_a2,P = T2?,Same,1,2,low,96,1.41,154,0.91,96,1.42,No,unsure,cr,2.577354907989502,NA
283,63xnq5!,False,268,1,equal,ST1_low_2_a1,P = T1?,Same,1,1,low,132,0.82,82,1.34,132,0.97,No,sure,miss,1.4241888523101807,NA
284,63xnq5!,False,269,1,equal,ST2_low_3_a2,P = T2?,Same,2,2,low,70,1.72,112,0.98,112,0.96,Yes,quiteSure,hit,1.0658717155456543,NA
285,63xnq5!,False,270,1,equal,ST1_high_5_a2,P = T2?,Same,1,2,high,96,1.17,132,1.0,96,1.16,No,sure,cr,1.7187819480895996,NA
286,63xnq5!,False,271,1,equal,ST2_high_6_a2,P = T2?,Same,2,2,high,132,1.02,96,1.31,96,1.2,No,quiteSure,miss,4.1749749183654785,NA
287,63xnq5!,False,272,1,equal,ST1_high_4_a1,P = T1?,Same,1,1,high,96,1.06,70,1.73,96,1.41,Yes,unsure,hit,1.9895141124725342,NA
288,63xnq5!,False,273,1,equal,ST2_low_1_a1,P = T1?,Same,2,1,low,82,1.16,132,1.01,132,0.96,No,sure,cr,1.6108980178833008,NA
289,63xnq5!,False,274,1,equal,ST2_high_5_a1,P = T2?,Same,2,1,high,96,1.42,132,0.96,132,0.94,Yes,quiteSure,hit,1.7219748497009277,NA
290,63xnq5!,False,275,1,equal,ST2_high_6_a1,P = T1?,Same,2,1,high,132,1.05,96,1.07,96,1.28,No,unsure,cr,10.860368967056274,NA
291,63xnq5!,False,276,1,equal,ST2_low_1_a2,P = T2?,Same,2,2,low,82,1.45,132,1.05,132,0.89,Yes,quiteSure,hit,2.2340099811553955,NA
292,63xnq5!,False,277,1,equal,ST2_high_1_a2,P = T2?,Same,2,2,high,82,1.25,112,0.94,112,1.12,Yes,unsure,hit,1.7826030254364014,NA
293,63xnq5!,False,278,1,equal,ST2_low_1_a2,P = T2?,Same,2,2,low,82,1.64,132,1.0,132,1.05,Yes,unsure,hit,2.3287501335144043,NA
294,63xnq5!,False,279,1,equal,STb_2_a2,P = T2?,Same,0,2,None,70,1.81,70,1.49,70,1.49,Yes,quiteSure,hit,1.903167963027954,NA
295,63xnq5!,False,280,1,equal,ST2_low_6_a1,P = T1?,Same,2,1,low,154,0.76,96,1.23,96,1.06,No,unsure,cr,6.172692060470581,NA
296,63xnq5!,False,281,1,equal,ST2_low_1_a1,P = T1?,Same,2,1,low,82,1.5,132,0.91,132,0.86,No,quiteSure,cr,1.2294158935546875,NA
297,63xnq5!,False,282,1,equal,ST2_low_3_a1,P = T1?,Same,2,1,low,70,1.69,112,1.06,112,1.1,No,unsure,cr,1.5436911582946777,NA
298,63xnq5!,False,283,1,equal,ST2_high_1_a1,P = T1?,Same,2,1,high,82,1.41,112,1.0,112,1.12,Yes,unsure,fa,2.642158031463623,NA
299,63xnq5!,False,284,1,equal,ST2_low_2_a2,P = T2?,Same,2,2,low,132,0.93,82,1.32,82,1.63,Yes,unsure,hit,3.0705292224884033,NA
300,63xnq5!,False,285,1,equal,DT2_high_6_a1,P = T2?,Different,2,1,high,132,0.98,96,1.09,82,1.26,No,unsure,miss,2.3980112075805664,NA
301,63xnq5!,False,286,1,equal,ST1_high_2_a2,P = T1?,Same,1,2,high,112,1.13,82,1.49,112,0.97,Yes,unsure,hit,4.3022449016571045,NA
302,63xnq5!,False,287,1,equal,ST2_high_3_a1,P = T1?,Same,2,1,high,70,1.84,96,1.09,96,1.32,No,unsure,cr,1.1834630966186523,NA
303,63xnq5!,False,288,1,equal,ST2_high_3_a2,P = T1?,Same,2,2,high,70,1.59,96,1.4,96,1.24,Yes,unsure,fa,1.0226969718933105,NA
304,63xnq5!,False,289,1,equal,ST2_low_2_a1,P = T2?,Same,2,1,low,132,0.98,82,1.64,82,1.33,No,unsure,miss,1.3654792308807373,NA
305,63xnq5!,False,290,1,equal,ST1_low_2_a1,P = T2?,Same,1,1,low,132,0.95,82,1.32,132,0.88,No,quiteSure,cr,1.6537249088287354,NA
306,63xnq5!,False,291,1,equal,ST1_low_3_a2,P = T1?,Same,1,2,low,70,1.78,112,1.07,70,1.78,No,quiteSure,miss,1.9198601245880127,NA
307,63xnq5!,False,292,1,equal,STb_5_a2,P = T1?,Same,0,2,None,112,1.2,112,0.92,112,0.99,Yes,unsure,hit,1.6592941284179688,NA
308,63xnq5!,False,293,1,equal,ST2_high_1_a2,P = T1?,Same,2,2,high,82,1.44,112,0.89,112,1.23,Yes,quiteSure,fa,3.9507009983062744,NA
309,63xnq5!,False,294,1,equal,ST2_high_4_a1,P = T2?,Same,2,1,high,96,1.08,70,1.42,70,1.8,No,quiteSure,miss,5.751786947250366,NA
310,63xnq5!,False,295,1,equal,ST1_high_1_a1,P = T2?,Same,1,1,high,82,1.6,112,1.12,82,1.35,No,sure,cr,2.2629666328430176,NA
311,63xnq5!,False,296,1,equal,ST2_low_2_a1,P = T2?,Same,2,1,low,132,1.0,82,1.36,82,1.64,Yes,quiteSure,hit,2.278687000274658,NA
312,63xnq5!,False,297,1,equal,ST1_low_1_a1,P = T1?,Same,1,1,low,82,1.5,132,0.85,82,1.35,Yes,quiteSure,hit,1.9493091106414795,NA
313,63xnq5!,False,298,1,equal,DT2_low_3_a1,P = T1?,Different,2,1,low,70,1.17,112,1.0,132,0.98,No,unsure,cr,5.409040927886963,NA
314,63xnq5!,False,299,1,equal,ST2_high_6_a2,P = T1?,Same,2,2,high,132,0.91,96,1.32,96,1.42,No,sure,cr,2.287003993988037,NA
315,63xnq5!,False,300,1,equal,ST1_low_5_a2,P = T1?,Same,1,2,low,96,1.07,154,0.87,96,1.4,Yes,sure,hit,1.3149523735046387,NA
316,63xnq5!,False,301,1,equal,ST1_low_1_a1,P = T2?,Same,1,1,low,82,1.42,132,0.94,82,1.58,No,sure,cr,2.2403340339660645,NA
317,63xnq5!,False,302,1,equal,ST1_high_2_a1,P = T2?,Same,1,1,high,112,1.04,82,1.29,112,1.11,Yes,sure,fa,1.315222978591919,NA
318,63xnq5!,False,303,1,equal,DT1_low_2_a1,P = T2?,Different,1,1,low,132,1.03,82,1.43,154,0.76,No,sure,cr,2.7113311290740967,NA
319,63xnq5!,False,304,1,equal,ST2_high_2_a1,P = T2?,Same,2,1,high,112,1.15,82,1.55,82,1.49,Yes,sure,hit,1.0467360019683838,NA
320,63xnq5!,False,305,1,equal,DT2_low_1_a2,P = T1?,Different,2,2,low,82,1.44,132,0.97,154,0.81,No,sure,cr,1.3609669208526611,NA
321,63xnq5!,False,306,1,equal,ST2_low_3_a1,P = T2?,Same,2,1,low,70,1.78,112,1.23,112,1.16,Yes,sure,hit,1.017991065979004,NA
322,63xnq5!,False,307,1,equal,ST1_high_3_a1,P = T1?,Same,1,1,high,70,1.64,96,1.17,70,1.84,No,sure,miss,2.0806572437286377,NA
323,63xnq5!,False,308,1,equal,ST2_low_6_a2,P = T1?,Same,2,2,low,154,0.9,96,1.41,96,1.19,No,sure,cr,1.4493041038513184,NA
324,63xnq5!,False,309,1,equal,ST1_high_4_a2,P = T1?,Same,1,2,high,96,1.13,70,1.78,96,1.35,No,sure,miss,2.0565590858459473,NA
325,63xnq5!,False,310,1,equal,ST1_low_4_a1,P = T1?,Same,1,1,low,112,1.21,70,1.58,112,1.15,Yes,sure,hit,1.2260081768035889,NA
326,63xnq5!,False,311,1,equal,ST2_low_3_a1,P = T1?,Same,2,1,low,70,1.83,112,1.0,112,1.14,No,sure,cr,1.4491939544677734,NA
327,63xnq5!,False,312,1,equal,ST2_low_4_a1,P = T1?,Same,2,1,low,112,0.98,70,1.37,70,1.73,No,sure,cr,1.1570680141448975,NA
328,63xnq5!,False,313,1,equal,ST1_high_6_a1,P = T2?,Same,1,1,high,132,0.82,96,1.11,132,0.79,Yes,sure,fa,1.4073998928070068,NA
329,63xnq5!,False,314,1,equal,ST2_high_5_a2,P = T2?,Same,2,2,high,96,1.21,132,0.81,132,0.86,Yes,sure,hit,1.470276117324829,NA
330,63xnq5!,False,315,1,equal,ST1_low_6_a2,P = T1?,Same,1,2,low,154,0.73,96,1.07,154,0.9,Yes,sure,hit,1.157392978668213,NA
331,63xnq5!,False,316,1,equal,ST1_low_5_a2,P = T1?,Same,1,2,low,96,1.41,154,0.94,96,1.2,Yes,sure,hit,2.0581698417663574,NA
332,63xnq5!,False,317,1,equal,ST2_low_1_a2,P = T1?,Same,2,2,low,82,1.24,132,1.04,132,0.87,No,sure,cr,1.1364951133728027,NA
333,63xnq5!,False,318,1,equal,DT2_high_3_a2,P = T2?,Different,2,2,high,70,1.47,96,1.15,112,1.03,No,sure,miss,2.0568387508392334,NA
334,63xnq5!,False,319,1,equal,ST2_low_3_a1,P = T2?,Same,2,1,low,70,1.5,112,1.08,112,0.96,No,sure,miss,2.212534189224243,NA
335,63xnq5!,False,320,1,equal,ST1_high_5_a2,P = T1?,Same,1,2,high,96,1.21,132,0.94,96,1.32,Yes,sure,hit,1.2913110256195068,0.25
