,pcode,practice,trial,block,questionType,condition,question,PTS,TargetPosition,AccessoryPosition,TNS,T1_hz,T1_amp,T2_hz,T2_amp,P_hz,P_amp,response_dicho,response_rating,response_sdt,rt,P_correct
0,w0ep#21,True,1,2,unequal,ST2_high_3_a1,P != T1?,Same,2,1,high,70,1.21,96,1.26,96,1.2,Yes,quiteSure,hit,48.831262826919556,NA
1,w0ep#21,True,2,2,unequal,STb_2_a1,P != T1?,Same,0,1,None,70,1.67,70,1.56,70,1.72,No,quiteSure,cr,8.575005292892456,NA
2,w0ep#21,True,3,2,unequal,ST1_high_2_a1,P != T1?,Same,1,1,high,112,1.11,82,1.71,112,0.88,No,quiteSure,cr,6.757149934768677,NA
3,w0ep#21,True,4,2,unequal,ST1_low_3_a1,P != T2?,Same,1,1,low,70,1.47,112,0.82,70,1.69,Yes,quiteSure,hit,2.9705281257629395,NA
4,w0ep#21,True,5,2,unequal,ST2_high_6_a1,P != T2?,Same,2,1,high,132,0.85,96,1.42,96,1.27,No,quiteSure,cr,3.263385057449341,NA
5,w0ep#21,True,6,2,unequal,DT1_low_6_a1,P != T2?,Different,1,1,low,154,0.82,96,1.26,180,0.92,Yes,quiteSure,hit,3.1293907165527344,NA
6,w0ep#21,True,7,2,unequal,STb_8_a2,P != T2?,Same,0,2,None,180,0.91,180,0.7,180,0.7,No,quiteSure,cr,2.0280330181121826,NA
7,w0ep#21,True,8,2,unequal,STb_7_a2,P != T2?,Same,0,2,None,154,0.9,154,0.95,154,0.94,No,quiteSure,cr,6.657697677612305,NA
8,w0ep#21,True,9,2,unequal,DT2_high_1_a1,P != T1?,Different,2,1,high,82,1.46,112,1.0,132,0.8,No,quiteSure,miss,4.865401983261108,NA
9,w0ep#21,True,10,2,unequal,ST1_high_6_a2,P != T2?,Same,1,2,high,132,0.89,96,1.24,132,0.99,Yes,quiteSure,hit,2.1602702140808105,NA
10,w0ep#21,True,11,2,unequal,ST2_low_5_a1,P != T1?,Same,2,1,low,96,1.52,154,0.79,154,0.92,Yes,quiteSure,hit,5.491289138793945,NA
11,w0ep#21,True,12,2,unequal,ST1_high_6_a2,P != T1?,Same,1,2,high,132,0.73,96,1.04,132,0.76,No,quiteSure,cr,3.538351058959961,NA
12,w0ep#21,True,13,2,unequal,STb_8_a1,P != T1?,Same,0,1,None,180,0.77,180,0.79,180,0.8,No,quiteSure,cr,1.6453361511230469,NA
13,w0ep#21,True,14,2,unequal,DT1_high_5_a1,P != T1?,Different,1,1,high,96,1.35,132,0.81,82,1.23,Yes,quiteSure,fa,3.446197032928467,NA
14,w0ep#21,True,15,2,unequal,ST2_low_3_a1,P != T2?,Same,2,1,low,70,1.46,112,0.82,112,1.03,No,quiteSure,cr,2.295884847640991,NA
15,w0ep#21,True,16,2,unequal,DT2_high_3_a1,P != T2?,Different,2,1,high,70,1.53,96,1.23,112,1.09,Yes,quiteSure,fa,2.4981677532196045,0.625
16,w0ep#21,False,1,2,unequal,ST1_low_3_a1,P != T2?,Same,1,1,low,70,1.7,112,0.91,70,1.79,Yes,unsure,hit,4.2789318561553955,NA
17,w0ep#21,False,2,2,unequal,ST1_high_5_a2,P != T2?,Same,1,2,high,96,1.29,132,1.0,96,1.08,Yes,sure,hit,2.612154960632324,NA
18,w0ep#21,False,3,2,unequal,ST1_high_1_a2,P != T1?,Same,1,2,high,82,1.37,112,1.18,82,1.33,No,sure,cr,3.2172040939331055,NA
19,w0ep#21,False,4,2,unequal,ST1_high_4_a1,P != T2?,Same,1,1,high,96,1.41,70,1.41,96,1.33,Yes,sure,hit,2.0227839946746826,NA
20,w0ep#21,False,5,2,unequal,ST1_high_4_a1,P != T2?,Same,1,1,high,96,1.11,70,1.8,96,1.41,Yes,sure,hit,1.8705918788909912,NA
21,w0ep#21,False,6,2,unequal,ST1_high_3_a2,P != T2?,Same,1,2,high,70,1.58,96,1.37,70,1.82,Yes,sure,hit,2.722060203552246,NA
22,w0ep#21,False,7,2,unequal,DT1_low_1_a2,P != T1?,Different,1,2,low,82,1.29,132,0.93,70,1.75,No,sure,cr,2.272287130355835,NA
23,w0ep#21,False,8,2,unequal,ST2_low_4_a1,P != T2?,Same,2,1,low,112,1.14,70,1.66,70,1.62,No,sure,cr,2.85477876663208,NA
24,w0ep#21,False,9,2,unequal,ST2_high_1_a1,P != T2?,Same,2,1,high,82,1.63,112,1.05,112,1.2,No,sure,cr,1.913726806640625,NA
25,w0ep#21,False,10,2,unequal,ST2_low_5_a2,P != T2?,Same,2,2,low,96,1.16,154,0.91,154,0.93,No,sure,cr,1.9099352359771729,NA
26,w0ep#21,False,11,2,unequal,DT1_high_2_a1,P != T2?,Different,1,1,high,112,1.01,82,1.41,132,0.91,Yes,sure,hit,3.5331339836120605,NA
27,w0ep#21,False,12,2,unequal,ST1_high_2_a1,P != T2?,Same,1,1,high,112,1.01,82,1.33,112,1.14,Yes,sure,hit,3.3741049766540527,NA
28,w0ep#21,False,13,2,unequal,ST1_high_3_a1,P != T2?,Same,1,1,high,70,1.47,96,1.33,70,1.67,Yes,sure,hit,2.0927250385284424,NA
29,w0ep#21,False,14,2,unequal,ST1_high_2_a1,P != T1?,Same,1,1,high,112,1.0,82,1.42,112,0.97,No,sure,cr,3.3305952548980713,NA
30,w0ep#21,False,15,2,unequal,ST1_low_3_a2,P != T1?,Same,1,2,low,70,1.53,112,1.06,70,1.67,No,sure,cr,4.208535671234131,NA
31,w0ep#21,False,16,2,unequal,ST1_low_2_a1,P != T2?,Same,1,1,low,132,1.0,82,1.63,132,0.86,Yes,sure,hit,1.5998311042785645,NA
32,w0ep#21,False,17,2,unequal,ST2_high_2_a2,P != T1?,Same,2,2,high,112,1.05,82,1.27,82,1.47,Yes,sure,hit,2.1843011379241943,NA
33,w0ep#21,False,18,2,unequal,DT1_low_6_a1,P != T1?,Different,1,1,low,154,0.85,96,1.19,180,0.88,Yes,sure,fa,4.257646799087524,NA
34,w0ep#21,False,19,2,unequal,ST1_high_3_a1,P != T2?,Same,1,1,high,70,1.44,96,1.15,70,1.66,Yes,sure,hit,1.397718906402588,NA
35,w0ep#21,False,20,2,unequal,ST2_low_4_a2,P != T1?,Same,2,2,low,112,1.06,70,1.58,70,1.69,Yes,sure,hit,5.786242246627808,NA
36,w0ep#21,False,21,2,unequal,ST1_low_5_a1,P != T1?,Same,1,1,low,96,1.25,154,0.8,96,1.35,No,sure,cr,1.869724988937378,NA
37,w0ep#21,False,22,2,unequal,ST2_high_1_a1,P != T1?,Same,2,1,high,82,1.62,112,0.96,112,1.22,Yes,sure,hit,2.771959066390991,NA
38,w0ep#21,False,23,2,unequal,DT1_high_3_a2,P != T1?,Different,1,2,high,70,1.46,96,1.37,60,1.51,No,sure,cr,2.8151118755340576,NA
39,w0ep#21,False,24,2,unequal,ST1_low_6_a2,P != T1?,Same,1,2,low,154,0.92,96,1.34,154,0.71,No,sure,cr,1.439039945602417,NA
40,w0ep#21,False,25,2,unequal,DT1_high_5_a2,P != T1?,Different,1,2,high,96,1.1,132,1.0,82,1.54,No,sure,cr,4.319159030914307,NA
41,w0ep#21,False,26,2,unequal,ST2_low_3_a2,P != T1?,Same,2,2,low,70,1.71,112,1.18,112,1.03,Yes,sure,hit,10.509735107421875,NA
42,w0ep#21,False,27,2,unequal,ST1_high_3_a2,P != T1?,Same,1,2,high,70,1.66,96,1.37,70,1.43,No,sure,cr,1.2383098602294922,NA
43,w0ep#21,False,28,2,unequal,ST1_low_4_a1,P != T2?,Same,1,1,low,112,1.0,70,1.74,112,1.06,Yes,sure,hit,1.4616010189056396,NA
44,w0ep#21,False,29,2,unequal,ST2_low_2_a2,P != T1?,Same,2,2,low,132,0.94,82,1.36,82,1.34,Yes,sure,hit,4.995290756225586,NA
45,w0ep#21,False,30,2,unequal,ST1_high_6_a2,P != T2?,Same,1,2,high,132,0.79,96,1.22,132,1.02,Yes,sure,hit,3.04010009765625,NA
46,w0ep#21,False,31,2,unequal,ST2_low_4_a2,P != T2?,Same,2,2,low,112,1.05,70,1.77,70,1.58,No,sure,cr,2.002929925918579,NA
47,w0ep#21,False,32,2,unequal,ST1_low_4_a1,P != T1?,Same,1,1,low,112,1.23,70,1.62,112,0.92,No,sure,cr,1.7755756378173828,NA
48,w0ep#21,False,33,2,unequal,ST2_high_4_a2,P != T1?,Same,2,2,high,96,1.15,70,1.43,70,1.38,Yes,sure,hit,2.770477056503296,NA
49,w0ep#21,False,34,2,unequal,ST1_high_2_a2,P != T2?,Same,1,2,high,112,1.0,82,1.39,112,0.99,Yes,sure,hit,1.6875758171081543,NA
50,w0ep#21,False,35,2,unequal,ST1_high_5_a1,P != T2?,Same,1,1,high,96,1.28,132,0.88,96,1.3,Yes,sure,hit,1.2375478744506836,NA
51,w0ep#21,False,36,2,unequal,ST2_high_2_a1,P != T2?,Same,2,1,high,112,0.94,82,1.59,82,1.23,No,sure,cr,1.0141968727111816,NA
52,w0ep#21,False,37,2,unequal,ST2_high_1_a1,P != T2?,Same,2,1,high,82,1.29,112,1.03,112,1.04,No,sure,cr,1.5257818698883057,NA
53,w0ep#21,False,38,2,unequal,ST2_low_4_a2,P != T1?,Same,2,2,low,112,0.97,70,1.71,70,1.7,Yes,sure,hit,3.439337968826294,NA
54,w0ep#21,False,39,2,unequal,ST1_low_6_a1,P != T1?,Same,1,1,low,154,0.78,96,1.32,154,0.94,No,sure,cr,2.0935850143432617,NA
55,w0ep#21,False,40,2,unequal,ST1_high_2_a2,P != T1?,Same,1,2,high,112,1.0,82,1.61,112,0.99,No,sure,cr,3.3094708919525146,NA
56,w0ep#21,False,41,2,unequal,ST1_high_4_a2,P != T2?,Same,1,2,high,96,1.29,70,1.39,96,1.18,Yes,sure,hit,1.8481011390686035,NA
57,w0ep#21,False,42,2,unequal,ST2_high_6_a1,P != T2?,Same,2,1,high,132,1.04,96,1.16,96,1.16,No,sure,cr,1.2372469902038574,NA
58,w0ep#21,False,43,2,unequal,ST1_low_4_a2,P != T2?,Same,1,2,low,112,1.0,70,1.81,112,1.02,Yes,sure,hit,1.484917163848877,NA
59,w0ep#21,False,44,2,unequal,ST1_low_2_a1,P != T2?,Same,1,1,low,132,0.98,82,1.27,132,0.81,Yes,sure,hit,1.5054500102996826,NA
60,w0ep#21,False,45,2,unequal,ST1_high_3_a1,P != T1?,Same,1,1,high,70,1.38,96,1.09,70,1.63,No,sure,cr,1.708631992340088,NA
61,w0ep#21,False,46,2,unequal,ST1_high_4_a2,P != T1?,Same,1,2,high,96,1.29,70,1.42,96,1.22,No,sure,cr,1.8668200969696045,NA
62,w0ep#21,False,47,2,unequal,ST2_low_6_a2,P != T1?,Same,2,2,low,154,0.79,96,1.18,96,1.31,Yes,sure,hit,1.5297529697418213,NA
63,w0ep#21,False,48,2,unequal,ST1_high_3_a2,P != T2?,Same,1,2,high,70,1.76,96,1.37,70,1.83,Yes,sure,hit,1.2599000930786133,NA
64,w0ep#21,False,49,2,unequal,ST2_high_4_a1,P != T2?,Same,2,1,high,96,1.25,70,1.82,70,1.72,No,sure,cr,1.710641860961914,NA
65,w0ep#21,False,50,2,unequal,ST2_high_3_a1,P != T1?,Same,2,1,high,70,1.21,96,1.26,96,1.2,Yes,sure,hit,1.6390690803527832,NA
66,w0ep#21,False,51,2,unequal,ST1_low_2_a1,P != T2?,Same,1,1,low,132,0.96,82,1.28,132,0.8,Yes,sure,hit,1.4836018085479736,NA
67,w0ep#21,False,52,2,unequal,ST1_low_4_a1,P != T2?,Same,1,1,low,112,0.95,70,1.55,112,1.01,Yes,sure,hit,1.5734410285949707,NA
68,w0ep#21,False,53,2,unequal,ST2_low_1_a2,P != T2?,Same,2,2,low,82,1.48,132,0.84,132,1.06,No,sure,cr,1.2828788757324219,NA
69,w0ep#21,False,54,2,unequal,ST2_high_2_a1,P != T1?,Same,2,1,high,112,1.15,82,1.43,82,1.37,Yes,sure,hit,3.2193379402160645,NA
70,w0ep#21,False,55,2,unequal,ST1_high_6_a1,P != T1?,Same,1,1,high,132,0.82,96,1.41,132,1.0,No,sure,cr,1.7814440727233887,NA
71,w0ep#21,False,56,2,unequal,ST2_high_2_a1,P != T2?,Same,2,1,high,112,1.15,82,1.26,82,1.31,No,sure,cr,1.2641232013702393,NA
72,w0ep#21,False,57,2,unequal,ST2_high_1_a2,P != T2?,Same,2,2,high,82,1.63,112,0.96,112,1.08,No,sure,cr,0.9884569644927979,NA
73,w0ep#21,False,58,2,unequal,ST1_low_5_a2,P != T2?,Same,1,2,low,96,1.28,154,0.86,96,1.22,Yes,sure,hit,2.519026041030884,NA
74,w0ep#21,False,59,2,unequal,ST2_high_3_a1,P != T2?,Same,2,1,high,70,1.59,96,1.41,96,1.16,No,sure,cr,1.3898868560791016,NA
75,w0ep#21,False,60,2,unequal,ST2_high_1_a1,P != T1?,Same,2,1,high,82,1.51,112,1.03,112,1.19,Yes,sure,hit,4.090298891067505,NA
76,w0ep#21,False,61,2,unequal,ST2_high_6_a2,P != T2?,Same,2,2,high,132,0.9,96,1.08,96,1.33,No,sure,cr,1.5324859619140625,NA
77,w0ep#21,False,62,2,unequal,ST2_low_2_a2,P != T2?,Same,2,2,low,132,0.81,82,1.49,82,1.49,No,sure,cr,1.2357981204986572,NA
78,w0ep#21,False,63,2,unequal,ST2_high_2_a1,P != T1?,Same,2,1,high,112,0.98,82,1.32,82,1.49,Yes,sure,hit,1.1289920806884766,NA
79,w0ep#21,False,64,2,unequal,ST1_high_4_a2,P != T1?,Same,1,2,high,96,1.24,70,1.4,96,1.3,No,sure,cr,1.351180076599121,NA
80,w0ep#21,False,65,2,unequal,STb_4_a2,P != T1?,Same,0,2,None,96,1.17,96,1.08,96,1.1,No,sure,cr,1.1729390621185303,NA
81,w0ep#21,False,66,2,unequal,ST1_low_1_a2,P != T1?,Same,1,2,low,82,1.55,132,0.86,82,1.42,No,sure,cr,2.0069708824157715,NA
82,w0ep#21,False,67,2,unequal,ST2_low_6_a1,P != T1?,Same,2,1,low,154,0.78,96,1.11,96,1.35,Yes,sure,hit,17.590978860855103,NA
83,w0ep#21,False,68,2,unequal,ST1_low_3_a2,P != T1?,Same,1,2,low,70,1.72,112,1.02,70,1.51,No,sure,cr,1.868974208831787,NA
84,w0ep#21,False,69,2,unequal,ST1_low_1_a1,P != T2?,Same,1,1,low,82,1.61,132,0.86,82,1.22,Yes,sure,hit,2.296588897705078,NA
85,w0ep#21,False,70,2,unequal,ST2_low_2_a1,P != T2?,Same,2,1,low,132,0.93,82,1.25,82,1.6,No,sure,cr,1.3986120223999023,NA
86,w0ep#21,False,71,2,unequal,STb_5_a2,P != T2?,Same,0,2,None,112,1.17,112,1.11,112,1.23,No,sure,cr,0.9057328701019287,NA
87,w0ep#21,False,72,2,unequal,STb_3_a1,P != T2?,Same,0,1,None,82,1.39,82,1.57,82,1.55,No,sure,cr,1.4384300708770752,NA
88,w0ep#21,False,73,2,unequal,ST1_high_1_a2,P != T1?,Same,1,2,high,82,1.63,112,0.98,82,1.32,No,sure,cr,2.8161089420318604,NA
89,w0ep#21,False,74,2,unequal,ST2_low_2_a1,P != T2?,Same,2,1,low,132,1.01,82,1.27,82,1.61,No,sure,cr,1.3291728496551514,NA
90,w0ep#21,False,75,2,unequal,ST1_low_4_a1,P != T1?,Same,1,1,low,112,1.24,70,1.77,112,1.21,No,sure,cr,1.192188024520874,NA
91,w0ep#21,False,76,2,unequal,ST1_high_5_a1,P != T1?,Same,1,1,high,96,1.24,132,0.8,96,1.16,No,sure,cr,1.1912329196929932,NA
92,w0ep#21,False,77,2,unequal,ST2_low_6_a2,P != T2?,Same,2,2,low,154,0.75,96,1.41,96,1.12,No,sure,cr,1.0363438129425049,NA
93,w0ep#21,False,78,2,unequal,ST1_high_4_a1,P != T2?,Same,1,1,high,96,1.3,70,1.63,96,1.17,Yes,sure,hit,2.0462043285369873,NA
94,w0ep#21,False,79,2,unequal,ST2_high_6_a1,P != T2?,Same,2,1,high,132,0.96,96,1.12,96,1.18,No,sure,cr,1.4398078918457031,NA
95,w0ep#21,False,80,2,unequal,ST1_high_5_a2,P != T1?,Same,1,2,high,96,1.32,132,1.0,96,1.28,No,sure,cr,1.619987964630127,NA
96,w0ep#21,False,81,2,unequal,ST1_high_6_a2,P != T2?,Same,1,2,high,132,0.89,96,1.24,132,0.99,Yes,sure,hit,1.352025032043457,NA
97,w0ep#21,False,82,2,unequal,ST2_low_1_a1,P != T2?,Same,2,1,low,82,1.62,132,0.9,132,0.91,No,sure,cr,1.8896801471710205,NA
98,w0ep#21,False,83,2,unequal,STb_8_a2,P != T1?,Same,0,2,None,180,0.86,180,0.9,180,0.95,No,sure,cr,0.4048888683319092,NA
99,w0ep#21,False,84,2,unequal,ST2_high_2_a2,P != T2?,Same,2,2,high,112,0.95,82,1.36,82,1.36,No,sure,cr,1.420823097229004,NA
100,w0ep#21,False,85,2,unequal,ST2_high_5_a2,P != T1?,Same,2,2,high,96,1.08,132,1.06,132,1.03,Yes,sure,hit,2.0030131340026855,NA
101,w0ep#21,False,86,2,unequal,ST1_high_2_a2,P != T2?,Same,1,2,high,112,1.02,82,1.27,112,0.91,Yes,sure,hit,2.516150712966919,NA
102,w0ep#21,False,87,2,unequal,ST1_low_5_a1,P != T1?,Same,1,1,low,96,1.42,154,0.87,96,1.17,No,sure,cr,1.6642260551452637,NA
103,w0ep#21,False,88,2,unequal,ST2_low_3_a1,P != T2?,Same,2,1,low,70,1.41,112,1.22,112,1.03,No,sure,cr,2.5896480083465576,NA
104,w0ep#21,False,89,2,unequal,ST2_low_5_a1,P != T2?,Same,2,1,low,96,1.08,154,0.9,154,0.74,No,sure,cr,1.261955976486206,NA
105,w0ep#21,False,90,2,unequal,ST2_low_5_a2,P != T1?,Same,2,2,low,96,1.35,154,0.75,154,0.77,Yes,sure,hit,1.7999041080474854,NA
106,w0ep#21,False,91,2,unequal,ST2_low_1_a1,P != T1?,Same,2,1,low,82,1.61,132,0.91,132,0.94,Yes,sure,hit,1.4419200420379639,NA
107,w0ep#21,False,92,2,unequal,ST1_low_3_a1,P != T2?,Same,1,1,low,70,1.47,112,0.82,70,1.69,Yes,sure,hit,1.348167896270752,NA
108,w0ep#21,False,93,2,unequal,ST2_low_3_a2,P != T1?,Same,2,2,low,70,1.39,112,1.0,112,0.96,Yes,sure,hit,2.856184959411621,NA
109,w0ep#21,False,94,2,unequal,ST1_low_4_a2,P != T1?,Same,1,2,low,112,1.07,70,1.78,112,0.97,No,sure,cr,1.372227668762207,NA
110,w0ep#21,False,95,2,unequal,ST1_high_2_a1,P != T1?,Same,1,1,high,112,0.95,82,1.44,112,0.97,No,sure,cr,1.422003984451294,NA
111,w0ep#21,False,96,2,unequal,ST2_high_5_a1,P != T2?,Same,2,1,high,96,1.29,132,0.82,132,0.97,No,sure,cr,1.5757570266723633,NA
112,w0ep#21,False,97,2,unequal,ST1_high_1_a1,P != T2?,Same,1,1,high,82,1.5,112,0.92,82,1.23,No,sure,miss,2.4091098308563232,NA
113,w0ep#21,False,98,2,unequal,ST1_low_5_a2,P != T2?,Same,1,2,low,96,1.23,154,0.84,96,1.07,Yes,sure,hit,1.2606630325317383,NA
114,w0ep#21,False,99,2,unequal,DT1_high_1_a2,P != T1?,Different,1,2,high,82,1.6,112,0.93,70,1.46,No,sure,cr,1.599975347518921,NA
115,w0ep#21,False,100,2,unequal,ST2_high_3_a1,P != T1?,Same,2,1,high,70,1.82,96,1.12,96,1.25,Yes,sure,hit,1.6166391372680664,NA
116,w0ep#21,False,101,2,unequal,ST1_low_2_a2,P != T2?,Same,1,2,low,132,0.87,82,1.49,132,0.8,Yes,sure,hit,1.258256196975708,NA
117,w0ep#21,False,102,2,unequal,ST2_high_4_a2,P != T2?,Same,2,2,high,96,1.28,70,1.64,70,1.66,No,sure,cr,1.5547723770141602,NA
118,w0ep#21,False,103,2,unequal,DT1_low_5_a1,P != T2?,Different,1,1,low,96,1.21,154,0.77,82,1.27,Yes,sure,hit,3.484938144683838,NA
119,w0ep#21,False,104,2,unequal,ST1_high_5_a1,P != T2?,Same,1,1,high,96,1.39,132,0.87,96,1.08,Yes,sure,hit,1.6681499481201172,NA
120,w0ep#21,False,105,2,unequal,ST1_low_4_a1,P != T2?,Same,1,1,low,112,1.08,70,1.8,112,1.07,Yes,sure,hit,1.35316801071167,NA
121,w0ep#21,False,106,2,unequal,ST1_low_6_a2,P != T2?,Same,1,2,low,154,0.72,96,1.1,154,0.76,Yes,sure,hit,1.1206421852111816,NA
122,w0ep#21,False,107,2,unequal,ST2_low_2_a2,P != T1?,Same,2,2,low,132,0.98,82,1.39,82,1.62,Yes,sure,hit,2.6391119956970215,NA
123,w0ep#21,False,108,2,unequal,ST1_low_2_a2,P != T1?,Same,1,2,low,132,0.8,82,1.55,132,0.8,No,sure,cr,1.2403910160064697,NA
124,w0ep#21,False,109,2,unequal,ST2_low_2_a1,P != T1?,Same,2,1,low,132,1.0,82,1.29,82,1.35,Yes,sure,hit,2.2527549266815186,NA
125,w0ep#21,False,110,2,unequal,ST1_low_1_a1,P != T1?,Same,1,1,low,82,1.47,132,0.98,82,1.29,No,sure,cr,1.7325730323791504,NA
126,w0ep#21,False,111,2,unequal,ST2_low_4_a1,P != T1?,Same,2,1,low,112,1.15,70,1.47,70,1.37,Yes,sure,hit,1.3511688709259033,NA
127,w0ep#21,False,112,2,unequal,ST1_high_1_a1,P != T1?,Same,1,1,high,82,1.61,112,1.0,82,1.29,No,sure,cr,1.7069389820098877,NA
128,w0ep#21,False,113,2,unequal,STb_7_a1,P != T1?,Same,0,1,None,154,0.79,154,0.8,154,0.92,No,sure,cr,0.8326969146728516,NA
129,w0ep#21,False,114,2,unequal,ST1_low_5_a2,P != T1?,Same,1,2,low,96,1.14,154,0.92,96,1.12,No,sure,cr,1.3015859127044678,NA
130,w0ep#21,False,115,2,unequal,ST2_low_4_a2,P != T2?,Same,2,2,low,112,0.94,70,1.8,70,1.71,No,sure,cr,1.427103042602539,NA
131,w0ep#21,False,116,2,unequal,DT2_high_1_a2,P != T2?,Different,2,2,high,82,1.63,112,1.11,132,0.91,Yes,sure,fa,1.194911003112793,NA
132,w0ep#21,False,117,2,unequal,ST2_low_5_a2,P != T2?,Same,2,2,low,96,1.38,154,0.8,154,0.71,No,sure,cr,1.0807669162750244,NA
133,w0ep#21,False,118,2,unequal,ST1_low_6_a2,P != T2?,Same,1,2,low,154,0.82,96,1.27,154,0.87,Yes,sure,hit,1.0799579620361328,NA
134,w0ep#21,False,119,2,unequal,ST1_low_2_a2,P != T2?,Same,1,2,low,132,0.9,82,1.38,132,0.87,Yes,sure,hit,1.0770549774169922,NA
135,w0ep#21,False,120,2,unequal,ST2_low_3_a2,P != T2?,Same,2,2,low,70,1.41,112,1.13,112,1.17,No,sure,cr,1.1285371780395508,NA
136,w0ep#21,False,121,2,unequal,ST2_low_1_a1,P != T2?,Same,2,1,low,82,1.27,132,1.0,132,0.95,No,sure,cr,1.0583899021148682,NA
137,w0ep#21,False,122,2,unequal,ST2_high_5_a2,P != T2?,Same,2,2,high,96,1.3,132,0.9,132,0.97,No,sure,cr,1.3031611442565918,NA
138,w0ep#21,False,123,2,unequal,ST1_high_4_a2,P != T2?,Same,1,2,high,96,1.32,70,1.44,96,1.09,Yes,sure,hit,1.866481065750122,NA
139,w0ep#21,False,124,2,unequal,ST1_high_5_a1,P != T1?,Same,1,1,high,96,1.26,132,0.88,96,1.11,No,sure,cr,2.6569740772247314,NA
140,w0ep#21,False,125,2,unequal,ST1_high_1_a1,P != T2?,Same,1,1,high,82,1.6,112,1.14,82,1.3,Yes,sure,hit,1.7122550010681152,NA
141,w0ep#21,False,126,2,unequal,ST2_low_6_a1,P != T1?,Same,2,1,low,154,0.86,96,1.09,96,1.11,Yes,sure,hit,1.4408137798309326,NA
142,w0ep#21,False,127,2,unequal,DT2_low_1_a2,P != T2?,Different,2,2,low,82,1.38,132,0.92,154,0.75,Yes,sure,fa,1.3986220359802246,NA
143,w0ep#21,False,128,2,unequal,STb_1_a2,P != T2?,Same,0,2,None,60,1.72,60,1.69,60,1.54,No,sure,cr,0.2705519199371338,NA
144,w0ep#21,False,129,2,unequal,ST1_low_5_a1,P != T2?,Same,1,1,low,96,1.09,154,0.87,96,1.41,Yes,sure,hit,1.5068769454956055,NA
145,w0ep#21,False,130,2,unequal,ST1_high_6_a1,P != T2?,Same,1,1,high,132,0.92,96,1.24,132,0.9,Yes,sure,hit,1.3348851203918457,NA
146,w0ep#21,False,131,2,unequal,ST1_high_6_a1,P != T1?,Same,1,1,high,132,0.81,96,1.09,132,0.9,Yes,sure,fa,2.6133229732513428,NA
147,w0ep#21,False,132,2,unequal,ST2_high_4_a2,P != T2?,Same,2,2,high,96,1.35,70,1.59,70,1.51,No,sure,cr,1.4712140560150146,NA
148,w0ep#21,False,133,2,unequal,ST2_low_4_a1,P != T2?,Same,2,1,low,112,1.03,70,1.85,70,1.67,No,sure,cr,1.1217918395996094,NA
149,w0ep#21,False,134,2,unequal,ST1_high_2_a2,P != T2?,Same,1,2,high,112,1.2,82,1.31,112,1.24,Yes,sure,hit,1.1975228786468506,NA
150,w0ep#21,False,135,2,unequal,ST1_high_6_a2,P != T1?,Same,1,2,high,132,0.88,96,1.3,132,0.97,Yes,sure,fa,1.4859378337860107,NA
151,w0ep#21,False,136,2,unequal,ST2_low_5_a2,P != T1?,Same,2,2,low,96,1.08,154,0.84,154,0.91,Yes,sure,hit,2.1605799198150635,NA
152,w0ep#21,False,137,2,unequal,STb_6_a1,P != T2?,Same,0,1,None,132,0.93,132,0.89,132,0.99,No,sure,cr,4.82072901725769,NA
153,w0ep#21,False,138,2,unequal,ST1_low_3_a1,P != T1?,Same,1,1,low,70,1.45,112,0.96,70,1.81,No,sure,cr,3.0340099334716797,NA
154,w0ep#21,False,139,2,unequal,ST2_low_6_a1,P != T2?,Same,2,1,low,154,0.89,96,1.07,96,1.33,No,sure,cr,1.3531780242919922,NA
155,w0ep#21,False,140,2,unequal,ST2_low_2_a1,P != T1?,Same,2,1,low,132,0.91,82,1.27,82,1.29,Yes,sure,hit,1.4843409061431885,NA
156,w0ep#21,False,141,2,unequal,ST1_low_3_a2,P != T1?,Same,1,2,low,70,1.41,112,0.99,70,1.58,No,sure,cr,1.418788194656372,NA
157,w0ep#21,False,142,2,unequal,ST1_low_2_a1,P != T1?,Same,1,1,low,132,0.92,82,1.27,132,0.85,No,quiteSure,cr,2.0049331188201904,NA
158,w0ep#21,False,143,2,unequal,ST2_low_4_a1,P != T2?,Same,2,1,low,112,1.16,70,1.71,70,1.48,No,sure,cr,1.4830572605133057,NA
159,w0ep#21,False,144,2,unequal,ST2_high_4_a1,P != T2?,Same,2,1,high,96,1.2,70,1.64,70,1.58,No,quiteSure,cr,2.7633678913116455,NA
160,w0ep#21,False,145,2,unequal,ST2_high_3_a2,P != T2?,Same,2,2,high,70,1.39,96,1.19,96,1.41,No,sure,cr,2.6575939655303955,NA
161,w0ep#21,False,146,2,unequal,STb_4_a1,P != T2?,Same,0,1,None,96,1.39,96,1.15,96,1.31,No,sure,cr,0.2934889793395996,NA
162,w0ep#21,False,147,2,unequal,ST1_high_1_a2,P != T2?,Same,1,2,high,82,1.25,112,1.11,82,1.52,Yes,sure,hit,1.7307941913604736,NA
163,w0ep#21,False,148,2,unequal,ST1_low_5_a2,P != T1?,Same,1,2,low,96,1.23,154,0.78,96,1.28,No,sure,cr,1.6012790203094482,NA
164,w0ep#21,False,149,2,unequal,ST1_high_4_a1,P != T1?,Same,1,1,high,96,1.12,70,1.47,96,1.34,No,sure,cr,0.9888360500335693,NA
165,w0ep#21,False,150,2,unequal,ST1_high_2_a2,P != T1?,Same,1,2,high,112,1.03,82,1.48,112,0.99,No,quiteSure,cr,1.1255061626434326,NA
166,w0ep#21,False,151,2,unequal,ST1_low_3_a1,P != T2?,Same,1,1,low,70,1.76,112,0.93,70,1.42,Yes,sure,hit,1.4179229736328125,NA
167,w0ep#21,False,152,2,unequal,ST1_low_2_a1,P != T1?,Same,1,1,low,132,1.0,82,1.27,132,0.87,No,quiteSure,cr,1.2594118118286133,NA
168,w0ep#21,False,153,2,unequal,ST2_high_4_a2,P != T2?,Same,2,2,high,96,1.37,70,1.77,70,1.85,No,sure,cr,1.3301222324371338,NA
169,w0ep#21,False,154,2,unequal,STb_5_a2,P != T1?,Same,0,2,None,112,1.21,112,1.23,112,1.05,No,sure,cr,0.2515702247619629,NA
170,w0ep#21,False,155,2,unequal,ST2_low_6_a1,P != T1?,Same,2,1,low,154,0.72,96,1.43,96,1.07,Yes,sure,hit,1.3719689846038818,NA
171,w0ep#21,False,156,2,unequal,ST2_low_6_a2,P != T2?,Same,2,2,low,154,0.76,96,1.38,96,1.31,No,sure,cr,2.7663512229919434,NA
172,w0ep#21,False,157,2,unequal,ST2_high_3_a1,P != T2?,Same,2,1,high,70,1.48,96,1.13,96,1.25,No,sure,cr,1.2862889766693115,NA
173,w0ep#21,False,158,2,unequal,ST2_low_5_a1,P != T1?,Same,2,1,low,96,1.11,154,0.73,154,0.93,Yes,sure,hit,1.323326826095581,NA
174,w0ep#21,False,159,2,unequal,ST2_low_3_a1,P != T2?,Same,2,1,low,70,1.66,112,0.95,112,1.05,No,sure,cr,1.191330909729004,NA
175,w0ep#21,False,160,2,unequal,ST1_low_4_a2,P != T1?,Same,1,2,low,112,1.16,70,1.48,112,1.22,No,sure,cr,1.2566182613372803,NA
176,w0ep#21,False,161,2,unequal,ST1_high_5_a2,P != T2?,Same,1,2,high,96,1.2,132,1.05,96,1.11,Yes,sure,hit,1.239485263824463,NA
177,w0ep#21,False,162,2,unequal,ST2_high_1_a2,P != T2?,Same,2,2,high,82,1.47,112,1.2,112,1.01,No,sure,cr,1.5960588455200195,NA
178,w0ep#21,False,163,2,unequal,ST2_high_5_a1,P != T1?,Same,2,1,high,96,1.09,132,0.99,132,1.02,Yes,sure,hit,2.5893313884735107,NA
179,w0ep#21,False,164,2,unequal,ST1_low_6_a1,P != T1?,Same,1,1,low,154,0.93,96,1.32,154,0.93,No,sure,cr,1.121241807937622,NA
180,w0ep#21,False,165,2,unequal,ST1_low_3_a2,P != T2?,Same,1,2,low,70,1.37,112,1.06,70,1.69,Yes,sure,hit,4.926678895950317,NA
181,w0ep#21,False,166,2,unequal,ST1_high_3_a2,P != T1?,Same,1,2,high,70,1.62,96,1.25,70,1.66,No,sure,cr,1.600586175918579,NA
182,w0ep#21,False,167,2,unequal,ST1_low_6_a1,P != T2?,Same,1,1,low,154,0.83,96,1.19,154,0.79,Yes,sure,hit,1.3925230503082275,NA
183,w0ep#21,False,168,2,unequal,ST2_high_3_a2,P != T1?,Same,2,2,high,70,1.8,96,1.35,96,1.2,Yes,sure,hit,1.5284390449523926,NA
184,w0ep#21,False,169,2,unequal,ST2_high_1_a2,P != T2?,Same,2,2,high,82,1.31,112,1.0,112,0.95,No,sure,cr,1.4847919940948486,NA
185,w0ep#21,False,170,2,unequal,ST2_high_6_a1,P != T1?,Same,2,1,high,132,1.04,96,1.41,96,1.17,Yes,sure,hit,2.812354803085327,NA
186,w0ep#21,False,171,2,unequal,ST1_high_5_a2,P != T1?,Same,1,2,high,96,1.14,132,0.8,96,1.12,No,quiteSure,cr,1.3249928951263428,NA
187,w0ep#21,False,172,2,unequal,ST2_high_1_a1,P != T2?,Same,2,1,high,82,1.44,112,0.94,112,1.13,No,sure,cr,0.41690611839294434,NA
188,w0ep#21,False,173,2,unequal,ST1_low_6_a1,P != T1?,Same,1,1,low,154,0.95,96,1.27,154,0.71,No,sure,cr,1.0147597789764404,NA
189,w0ep#21,False,174,2,unequal,ST2_high_3_a1,P != T1?,Same,2,1,high,70,1.69,96,1.23,96,1.36,Yes,sure,hit,1.3720757961273193,NA
190,w0ep#21,False,175,2,unequal,STb_1_a1,P != T1?,Same,0,1,None,60,2.03,60,1.88,60,1.81,No,sure,cr,0.296130895614624,NA
191,w0ep#21,False,176,2,unequal,ST1_low_2_a2,P != T2?,Same,1,2,low,132,0.83,82,1.52,132,0.89,Yes,sure,hit,1.4823431968688965,NA
192,w0ep#21,False,177,2,unequal,ST1_high_2_a1,P != T1?,Same,1,1,high,112,1.11,82,1.71,112,0.88,No,sure,cr,0.8596718311309814,NA
193,w0ep#21,False,178,2,unequal,ST2_low_6_a2,P != T1?,Same,2,2,low,154,0.78,96,1.39,96,1.4,Yes,sure,hit,1.2803311347961426,NA
194,w0ep#21,False,179,2,unequal,ST2_low_4_a2,P != T1?,Same,2,2,low,112,1.16,70,1.82,70,1.51,Yes,sure,hit,1.505051851272583,NA
195,w0ep#21,False,180,2,unequal,DT1_high_6_a1,P != T1?,Different,1,1,high,132,0.82,96,1.07,154,0.9,Yes,sure,fa,1.4636521339416504,NA
196,w0ep#21,False,181,2,unequal,ST1_high_2_a2,P != T1?,Same,1,2,high,112,1.19,82,1.55,112,0.96,Yes,sure,fa,5.92366099357605,NA
197,w0ep#21,False,182,2,unequal,ST1_low_2_a2,P != T1?,Same,1,2,low,132,0.96,82,1.28,132,0.88,Yes,sure,fa,4.544471025466919,NA
198,w0ep#21,False,183,2,unequal,ST1_low_6_a2,P != T1?,Same,1,2,low,154,0.78,96,1.18,154,0.71,Yes,sure,fa,2.2682690620422363,NA
199,w0ep#21,False,184,2,unequal,DT1_high_6_a1,P != T2?,Different,1,1,high,132,0.98,96,1.15,154,0.76,Yes,sure,hit,1.7748961448669434,NA
200,w0ep#21,False,185,2,unequal,ST1_high_3_a1,P != T1?,Same,1,1,high,70,1.79,96,1.13,70,1.62,No,sure,cr,1.6423182487487793,NA
201,w0ep#21,False,186,2,unequal,ST2_high_2_a2,P != T2?,Same,2,2,high,112,1.06,82,1.39,82,1.23,No,sure,cr,11.410269975662231,NA
202,w0ep#21,False,187,2,unequal,ST1_low_3_a2,P != T2?,Same,1,2,low,70,1.78,112,1.11,70,1.46,Yes,sure,hit,7.828141212463379,NA
203,w0ep#21,False,188,2,unequal,ST1_high_1_a2,P != T2?,Same,1,2,high,82,1.6,112,1.23,82,1.46,No,sure,miss,2.701085090637207,NA
204,w0ep#21,False,189,2,unequal,ST2_low_6_a2,P != T1?,Same,2,2,low,154,0.89,96,1.39,96,1.38,No,sure,miss,2.6083977222442627,NA
205,w0ep#21,False,190,2,unequal,ST2_low_2_a2,P != T2?,Same,2,2,low,132,0.87,82,1.41,82,1.6,Yes,sure,fa,4.205893039703369,NA
206,w0ep#21,False,191,2,unequal,ST1_low_1_a2,P != T1?,Same,1,2,low,82,1.45,132,0.86,82,1.3,No,quiteSure,cr,1.7761592864990234,NA
207,w0ep#21,False,192,2,unequal,ST2_low_6_a1,P != T2?,Same,2,1,low,154,0.89,96,1.22,96,1.23,No,sure,cr,1.4166960716247559,NA
208,w0ep#21,False,193,2,unequal,ST1_low_1_a2,P != T2?,Same,1,2,low,82,1.52,132,0.9,82,1.21,Yes,sure,hit,13.94854187965393,NA
209,w0ep#21,False,194,2,unequal,ST1_high_3_a2,P != T2?,Same,1,2,high,70,1.65,96,1.1,70,1.61,No,sure,miss,4.540489196777344,NA
210,w0ep#21,False,195,2,unequal,ST1_high_4_a1,P != T1?,Same,1,1,high,96,1.29,70,1.61,96,1.22,No,sure,cr,6.793979167938232,NA
211,w0ep#21,False,196,2,unequal,ST2_low_3_a2,P != T2?,Same,2,2,low,70,1.46,112,1.18,112,0.96,No,sure,cr,1.7119569778442383,NA
212,w0ep#21,False,197,2,unequal,ST1_low_1_a1,P != T2?,Same,1,1,low,82,1.22,132,0.92,82,1.31,Yes,sure,hit,1.962900161743164,NA
213,w0ep#21,False,198,2,unequal,ST2_low_5_a1,P != T2?,Same,2,1,low,96,1.23,154,0.94,154,0.94,No,sure,cr,1.4158389568328857,NA
214,w0ep#21,False,199,2,unequal,ST2_low_1_a2,P != T1?,Same,2,2,low,82,1.44,132,0.86,132,0.91,Yes,sure,hit,1.3951609134674072,NA
215,w0ep#21,False,200,2,unequal,ST1_low_6_a1,P != T2?,Same,1,1,low,154,0.95,96,1.34,154,0.82,Yes,sure,hit,2.8531558513641357,NA
216,w0ep#21,False,201,2,unequal,ST2_high_1_a2,P != T1?,Same,2,2,high,82,1.57,112,1.09,112,0.94,Yes,sure,hit,3.6586010456085205,NA
217,w0ep#21,False,202,2,unequal,ST2_low_2_a1,P != T2?,Same,2,1,low,132,0.81,82,1.34,82,1.29,No,sure,cr,1.3720300197601318,NA
218,w0ep#21,False,203,2,unequal,ST2_low_1_a2,P != T2?,Same,2,2,low,82,1.26,132,0.93,132,0.81,Yes,sure,fa,4.229140996932983,NA
219,w0ep#21,False,204,2,unequal,ST2_low_2_a2,P != T2?,Same,2,2,low,132,0.86,82,1.24,82,1.34,No,sure,cr,1.4620800018310547,NA
220,w0ep#21,False,205,2,unequal,ST1_low_6_a2,P != T1?,Same,1,2,low,154,0.87,96,1.31,154,0.73,No,sure,cr,1.0817358493804932,NA
221,w0ep#21,False,206,2,unequal,ST1_high_3_a1,P != T2?,Same,1,1,high,70,1.57,96,1.34,70,1.4,Yes,sure,hit,1.598315954208374,NA
222,w0ep#21,False,207,2,unequal,ST1_low_4_a2,P != T2?,Same,1,2,low,112,1.0,70,1.66,112,1.04,Yes,sure,hit,1.036895990371704,NA
223,w0ep#21,False,208,2,unequal,ST2_low_2_a2,P != T1?,Same,2,2,low,132,0.81,82,1.31,82,1.63,Yes,sure,hit,1.3988878726959229,NA
224,w0ep#21,False,209,2,unequal,ST2_low_1_a1,P != T2?,Same,2,1,low,82,1.54,132,0.86,132,0.88,No,sure,cr,1.553229808807373,NA
225,w0ep#21,False,210,2,unequal,ST1_low_3_a1,P != T1?,Same,1,1,low,70,1.43,112,0.94,70,1.79,No,quiteSure,cr,2.5422658920288086,NA
226,w0ep#21,False,211,2,unequal,ST1_high_4_a1,P != T1?,Same,1,1,high,96,1.15,70,1.67,96,1.18,No,sure,cr,0.4260070323944092,NA
227,w0ep#21,False,212,2,unequal,ST2_high_6_a2,P != T2?,Same,2,2,high,132,0.93,96,1.23,96,1.13,No,sure,cr,4.2337610721588135,NA
228,w0ep#21,False,213,2,unequal,ST2_low_6_a1,P != T2?,Same,2,1,low,154,0.87,96,1.22,96,1.19,No,sure,cr,1.5561048984527588,NA
229,w0ep#21,False,214,2,unequal,ST2_high_2_a1,P != T2?,Same,2,1,high,112,0.98,82,1.32,82,1.63,No,sure,cr,2.3193860054016113,NA
230,w0ep#21,False,215,2,unequal,ST1_high_6_a1,P != T2?,Same,1,1,high,132,0.96,96,1.33,132,1.03,Yes,sure,hit,3.491290807723999,NA
231,w0ep#21,False,216,2,unequal,ST2_low_1_a1,P != T1?,Same,2,1,low,82,1.24,132,0.99,132,0.95,Yes,sure,hit,5.6503517627716064,NA
232,w0ep#21,False,217,2,unequal,ST2_high_2_a2,P != T1?,Same,2,2,high,112,0.96,82,1.21,82,1.52,Yes,sure,hit,4.723989963531494,NA
233,w0ep#21,False,218,2,unequal,ST1_low_1_a1,P != T1?,Same,1,1,low,82,1.35,132,0.84,82,1.62,No,sure,cr,1.3044359683990479,NA
234,w0ep#21,False,219,2,unequal,ST1_high_4_a2,P != T2?,Same,1,2,high,96,1.15,70,1.55,96,1.39,Yes,sure,hit,4.613343000411987,NA
235,w0ep#21,False,220,2,unequal,ST1_low_6_a1,P != T2?,Same,1,1,low,154,0.79,96,1.21,154,0.88,Yes,sure,hit,10.144437074661255,NA
236,w0ep#21,False,221,2,unequal,ST1_low_3_a1,P != T1?,Same,1,1,low,70,1.73,112,1.13,70,1.42,No,sure,cr,3.572967052459717,NA
237,w0ep#21,False,222,2,unequal,ST2_low_6_a2,P != T2?,Same,2,2,low,154,0.85,96,1.06,96,1.3,No,quiteSure,cr,3.043714761734009,NA
238,w0ep#21,False,223,2,unequal,ST1_low_3_a2,P != T2?,Same,1,2,low,70,1.39,112,0.98,70,1.55,Yes,sure,hit,2.004167079925537,NA
239,w0ep#21,False,224,2,unequal,ST1_high_3_a1,P != T1?,Same,1,1,high,70,1.85,96,1.22,70,1.8,No,quiteSure,cr,1.578385829925537,NA
240,w0ep#21,False,225,2,unequal,DT2_low_2_a2,P != T2?,Different,2,2,low,132,1.06,82,1.53,70,1.66,No,sure,cr,1.5747427940368652,NA
241,w0ep#21,False,226,2,unequal,ST2_high_2_a1,P != T1?,Same,2,1,high,112,1.16,82,1.57,82,1.48,Yes,sure,hit,1.6407899856567383,NA
242,w0ep#21,False,227,2,unequal,ST2_low_1_a2,P != T1?,Same,2,2,low,82,1.38,132,0.86,132,0.83,No,quiteSure,miss,1.5284171104431152,NA
243,w0ep#21,False,228,2,unequal,STb_5_a1,P != T1?,Same,0,1,None,112,1.23,112,1.05,112,1.05,Yes,sure,fa,5.624414920806885,NA
244,w0ep#21,False,229,2,unequal,ST2_low_1_a2,P != T1?,Same,2,2,low,82,1.35,132,0.98,132,0.83,Yes,sure,hit,1.849647045135498,NA
245,w0ep#21,False,230,2,unequal,ST1_high_6_a1,P != T2?,Same,1,1,high,132,1.01,96,1.22,132,0.8,Yes,sure,hit,3.4243052005767822,NA
246,w0ep#21,False,231,2,unequal,ST2_low_3_a2,P != T2?,Same,2,2,low,70,1.4,112,1.22,112,1.22,No,sure,cr,1.4241180419921875,NA
247,w0ep#21,False,232,2,unequal,ST2_high_5_a1,P != T2?,Same,2,1,high,96,1.4,132,0.79,132,0.91,No,sure,cr,2.562319755554199,NA
248,w0ep#21,False,233,2,unequal,ST2_high_6_a2,P != T2?,Same,2,2,high,132,0.88,96,1.3,96,1.18,No,sure,cr,1.6672298908233643,NA
249,w0ep#21,False,234,2,unequal,STb_5_a1,P != T2?,Same,0,1,None,112,1.1,112,0.95,112,1.17,No,sure,cr,1.4623863697052002,NA
250,w0ep#21,False,235,2,unequal,ST2_high_6_a1,P != T2?,Same,2,1,high,132,0.85,96,1.42,96,1.27,No,unsure,cr,7.174543142318726,NA
251,w0ep#21,False,236,2,unequal,ST1_low_4_a2,P != T2?,Same,1,2,low,112,1.18,70,1.75,112,1.23,Yes,sure,hit,2.070194959640503,NA
252,w0ep#21,False,237,2,unequal,ST2_low_4_a1,P != T1?,Same,2,1,low,112,0.97,70,1.53,70,1.8,Yes,sure,hit,4.3882951736450195,NA
253,w0ep#21,False,238,2,unequal,ST1_low_5_a2,P != T2?,Same,1,2,low,96,1.42,154,0.71,96,1.34,Yes,sure,hit,2.2960000038146973,NA
254,w0ep#21,False,239,2,unequal,STb_3_a2,P != T1?,Same,0,2,None,82,1.26,82,1.48,82,1.5,No,sure,cr,0.4943733215332031,NA
255,w0ep#21,False,240,2,unequal,ST2_high_3_a1,P != T2?,Same,2,1,high,70,1.37,96,1.43,96,1.19,No,quiteSure,cr,2.0671849250793457,NA
256,w0ep#21,False,241,2,unequal,ST2_low_5_a1,P != T1?,Same,2,1,low,96,1.52,154,0.79,154,0.92,Yes,sure,hit,1.5067107677459717,NA
257,w0ep#21,False,242,2,unequal,ST1_high_5_a1,P != T1?,Same,1,1,high,96,1.17,132,0.8,96,1.13,Yes,sure,fa,1.3072168827056885,NA
258,w0ep#21,False,243,2,unequal,ST1_low_5_a1,P != T2?,Same,1,1,low,96,1.29,154,0.92,96,1.32,Yes,sure,hit,1.3027300834655762,NA
259,w0ep#21,False,244,2,unequal,ST2_high_5_a1,P != T1?,Same,2,1,high,96,1.21,132,1.02,132,0.9,Yes,sure,hit,1.4169800281524658,NA
260,w0ep#21,False,245,2,unequal,ST1_high_5_a2,P != T2?,Same,1,2,high,96,1.15,132,1.04,96,1.42,Yes,sure,hit,3.0858089923858643,NA
261,w0ep#21,False,246,2,unequal,ST2_high_4_a2,P != T1?,Same,2,2,high,96,1.4,70,1.74,70,1.51,Yes,sure,hit,10.779439926147461,NA
262,w0ep#21,False,247,2,unequal,ST2_low_5_a2,P != T2?,Same,2,2,low,96,1.23,154,0.92,154,0.87,No,sure,cr,1.5543580055236816,NA
263,w0ep#21,False,248,2,unequal,ST2_low_5_a1,P != T1?,Same,2,1,low,96,1.24,154,0.91,154,0.78,Yes,sure,hit,1.4177112579345703,NA
264,w0ep#21,False,249,2,unequal,ST2_high_4_a1,P != T1?,Same,2,1,high,96,1.31,70,1.37,70,1.79,Yes,sure,hit,3.246450901031494,NA
265,w0ep#21,False,250,2,unequal,ST2_high_5_a2,P != T2?,Same,2,2,high,96,1.38,132,0.79,132,0.87,No,sure,cr,1.9801688194274902,NA
266,w0ep#21,False,251,2,unequal,ST2_high_5_a2,P != T2?,Same,2,2,high,96,1.37,132,0.91,132,0.92,No,sure,cr,1.9571177959442139,NA
267,w0ep#21,False,252,2,unequal,ST2_high_5_a1,P != T1?,Same,2,1,high,96,1.29,132,1.05,132,0.89,Yes,sure,hit,1.6233432292938232,NA
268,w0ep#21,False,253,2,unequal,ST1_high_3_a2,P != T1?,Same,1,2,high,70,1.61,96,1.37,70,1.61,Yes,unsure,fa,8.302655935287476,NA
269,w0ep#21,False,254,2,unequal,ST1_high_2_a1,P != T2?,Same,1,1,high,112,1.0,82,1.54,112,0.99,Yes,quiteSure,hit,4.520163059234619,NA
270,w0ep#21,False,255,2,unequal,ST2_high_4_a1,P != T1?,Same,2,1,high,96,1.33,70,1.75,70,1.42,No,sure,miss,2.4941329956054688,NA
271,w0ep#21,False,256,2,unequal,ST1_high_6_a1,P != T1?,Same,1,1,high,132,0.89,96,1.39,132,1.02,No,sure,cr,3.376688003540039,NA
272,w0ep#21,False,257,2,unequal,ST2_low_1_a1,P != T1?,Same,2,1,low,82,1.57,132,0.84,132,1.01,Yes,sure,hit,4.096073865890503,NA
273,w0ep#21,False,258,2,unequal,ST2_high_2_a2,P != T1?,Same,2,2,high,112,1.22,82,1.45,82,1.24,Yes,sure,hit,3.3257830142974854,NA
274,w0ep#21,False,259,2,unequal,ST2_high_1_a1,P != T1?,Same,2,1,high,82,1.41,112,1.11,112,1.01,Yes,sure,hit,3.2382006645202637,NA
275,w0ep#21,False,260,2,unequal,ST2_high_5_a2,P != T1?,Same,2,2,high,96,1.33,132,0.8,132,0.91,No,unsure,miss,4.552112340927124,NA
276,w0ep#21,False,261,2,unequal,ST2_high_3_a2,P != T2?,Same,2,2,high,70,1.37,96,1.32,96,1.11,No,sure,cr,0.4497401714324951,NA
277,w0ep#21,False,262,2,unequal,ST1_low_1_a2,P != T1?,Same,1,2,low,82,1.35,132,1.05,82,1.23,No,quiteSure,cr,1.3288629055023193,NA
278,w0ep#21,False,263,2,unequal,ST1_high_6_a2,P != T2?,Same,1,2,high,132,1.02,96,1.32,132,0.91,Yes,sure,hit,1.925191879272461,NA
279,w0ep#21,False,264,2,unequal,ST2_low_3_a2,P != T1?,Same,2,2,low,70,1.51,112,1.18,112,0.93,Yes,quiteSure,hit,2.6096789836883545,NA
280,w0ep#21,False,265,2,unequal,ST2_low_3_a1,P != T1?,Same,2,1,low,70,1.7,112,1.13,112,0.97,Yes,sure,hit,2.564272165298462,NA
281,w0ep#21,False,266,2,unequal,ST2_high_6_a2,P != T1?,Same,2,2,high,132,0.86,96,1.31,96,1.42,Yes,sure,hit,2.7207632064819336,NA
282,w0ep#21,False,267,2,unequal,ST2_high_3_a2,P != T1?,Same,2,2,high,70,1.77,96,1.19,96,1.21,No,sure,miss,0.5175478458404541,NA
283,w0ep#21,False,268,2,unequal,ST2_low_5_a1,P != T2?,Same,2,1,low,96,1.36,154,0.74,154,0.95,No,quiteSure,cr,2.6093578338623047,NA
284,w0ep#21,False,269,2,unequal,ST1_low_6_a2,P != T2?,Same,1,2,low,154,0.89,96,1.13,154,0.75,Yes,sure,hit,1.3537540435791016,NA
285,w0ep#21,False,270,2,unequal,ST1_high_1_a1,P != T2?,Same,1,1,high,82,1.51,112,0.95,82,1.26,Yes,sure,hit,2.4045639038085938,NA
286,w0ep#21,False,271,2,unequal,ST2_high_5_a2,P != T1?,Same,2,2,high,96,1.12,132,0.83,132,0.85,Yes,sure,hit,1.4655518531799316,NA
287,w0ep#21,False,272,2,unequal,ST2_high_6_a1,P != T1?,Same,2,1,high,132,0.87,96,1.41,96,1.38,Yes,sure,hit,1.4397709369659424,NA
288,w0ep#21,False,273,2,unequal,ST2_low_2_a1,P != T1?,Same,2,1,low,132,0.84,82,1.51,82,1.63,Yes,sure,hit,1.2383239269256592,NA
289,w0ep#21,False,274,2,unequal,ST2_high_6_a1,P != T1?,Same,2,1,high,132,0.94,96,1.4,96,1.14,Yes,sure,hit,1.5747411251068115,NA
290,w0ep#21,False,275,2,unequal,STb_2_a1,P != T2?,Same,0,1,None,70,1.65,70,1.82,70,1.73,No,sure,cr,0.4279179573059082,NA
291,w0ep#21,False,276,2,unequal,ST2_high_6_a2,P != T1?,Same,2,2,high,132,0.89,96,1.28,96,1.22,Yes,quiteSure,hit,1.3719696998596191,NA
292,w0ep#21,False,277,2,unequal,ST1_low_5_a1,P != T2?,Same,1,1,low,96,1.18,154,0.8,96,1.23,Yes,quiteSure,hit,2.3634140491485596,NA
293,w0ep#21,False,278,2,unequal,ST2_low_3_a1,P != T1?,Same,2,1,low,70,1.73,112,1.13,112,1.04,Yes,sure,hit,2.790682792663574,NA
294,w0ep#21,False,279,2,unequal,ST1_high_1_a2,P != T2?,Same,1,2,high,82,1.39,112,1.11,82,1.28,Yes,sure,hit,5.334339141845703,NA
295,w0ep#21,False,280,2,unequal,ST2_low_1_a2,P != T2?,Same,2,2,low,82,1.61,132,1.06,132,1.06,No,sure,cr,1.6705348491668701,NA
296,w0ep#21,False,281,2,unequal,ST1_high_1_a2,P != T1?,Same,1,2,high,82,1.39,112,0.94,82,1.4,No,quiteSure,cr,2.2948691844940186,NA
297,w0ep#21,False,282,2,unequal,ST2_high_6_a2,P != T1?,Same,2,2,high,132,0.89,96,1.4,96,1.35,Yes,sure,hit,6.814948081970215,NA
298,w0ep#21,False,283,2,unequal,ST1_low_1_a2,P != T2?,Same,1,2,low,82,1.58,132,0.82,82,1.47,Yes,sure,hit,1.6006269454956055,NA
299,w0ep#21,False,284,2,unequal,STb_8_a2,P != T2?,Same,0,2,None,180,0.91,180,0.7,180,0.7,No,sure,cr,0.4775059223175049,NA
300,w0ep#21,False,285,2,unequal,ST2_high_4_a2,P != T1?,Same,2,2,high,96,1.07,70,1.79,70,1.69,No,quiteSure,miss,5.194265127182007,NA
301,w0ep#21,False,286,2,unequal,DT2_high_2_a2,P != T1?,Different,2,2,high,112,1.06,82,1.44,70,1.67,Yes,quiteSure,hit,1.8891019821166992,NA
302,w0ep#21,False,287,2,unequal,ST2_high_1_a2,P != T1?,Same,2,2,high,82,1.58,112,0.95,112,0.95,Yes,sure,hit,1.7704567909240723,NA
303,w0ep#21,False,288,2,unequal,ST2_low_5_a2,P != T1?,Same,2,2,low,96,1.11,154,0.94,154,0.87,Yes,sure,hit,1.6906530857086182,NA
304,w0ep#21,False,289,2,unequal,ST2_high_4_a1,P != T1?,Same,2,1,high,96,1.27,70,1.56,70,1.65,Yes,sure,hit,1.284776210784912,NA
305,w0ep#21,False,290,2,unequal,ST1_high_5_a1,P != T2?,Same,1,1,high,96,1.35,132,0.9,96,1.1,Yes,sure,hit,4.385952949523926,NA
306,w0ep#21,False,291,2,unequal,ST2_low_3_a1,P != T2?,Same,2,1,low,70,1.46,112,0.82,112,1.03,No,sure,cr,1.641664981842041,NA
307,w0ep#21,False,292,2,unequal,DT1_high_2_a1,P != T1?,Different,1,1,high,112,1.21,82,1.27,132,1.0,No,unsure,cr,4.635308027267456,NA
308,w0ep#21,False,293,2,unequal,ST1_high_2_a1,P != T2?,Same,1,1,high,112,1.04,82,1.34,112,1.1,Yes,sure,hit,1.3773019313812256,NA
309,w0ep#21,False,294,2,unequal,ST2_low_3_a1,P != T1?,Same,2,1,low,70,1.6,112,1.21,112,1.14,Yes,sure,hit,1.5758891105651855,NA
310,w0ep#21,False,295,2,unequal,ST1_high_1_a1,P != T1?,Same,1,1,high,82,1.27,112,1.04,82,1.64,No,unsure,cr,8.171926021575928,NA
311,w0ep#21,False,296,2,unequal,DT2_low_4_a2,P != T2?,Different,2,2,low,112,0.95,70,1.55,60,1.89,No,quiteSure,cr,3.7789533138275146,NA
312,w0ep#21,False,297,2,unequal,ST2_high_3_a2,P != T1?,Same,2,2,high,70,1.62,96,1.4,96,1.28,Yes,sure,hit,1.7535550594329834,NA
313,w0ep#21,False,298,2,unequal,ST1_low_4_a1,P != T1?,Same,1,1,low,112,1.09,70,1.48,112,1.12,No,sure,cr,1.8701467514038086,NA
314,w0ep#21,False,299,2,unequal,ST1_low_5_a1,P != T1?,Same,1,1,low,96,1.42,154,0.89,96,1.21,Yes,sure,fa,1.5298690795898438,NA
315,w0ep#21,False,300,2,unequal,ST2_high_5_a1,P != T2?,Same,2,1,high,96,1.12,132,0.86,132,0.97,No,sure,cr,1.3480308055877686,NA
316,w0ep#21,False,301,2,unequal,DT2_low_3_a2,P != T2?,Different,2,2,low,70,1.39,112,0.91,132,0.98,No,sure,cr,1.4189271926879883,NA
317,w0ep#21,False,302,2,unequal,ST2_low_4_a1,P != T1?,Same,2,1,low,112,1.11,70,1.41,70,1.8,Yes,sure,hit,1.6639480590820312,NA
318,w0ep#21,False,303,2,unequal,ST2_high_1_a2,P != T1?,Same,2,2,high,82,1.47,112,1.04,112,0.93,Yes,sure,hit,2.472990036010742,NA
319,w0ep#21,False,304,2,unequal,ST1_low_1_a1,P != T1?,Same,1,1,low,82,1.57,132,0.87,82,1.45,No,sure,cr,1.281109094619751,NA
320,w0ep#21,False,305,2,unequal,ST1_low_5_a2,P != T1?,Same,1,2,low,96,1.09,154,0.79,96,1.15,No,sure,cr,1.196070909500122,NA
321,w0ep#21,False,306,2,unequal,ST1_low_2_a1,P != T1?,Same,1,1,low,132,0.9,82,1.28,132,0.79,No,quiteSure,cr,1.6813898086547852,NA
322,w0ep#21,False,307,2,unequal,ST1_high_1_a1,P != T1?,Same,1,1,high,82,1.24,112,1.12,82,1.31,Yes,sure,fa,1.934161901473999,NA
323,w0ep#21,False,308,2,unequal,ST1_high_6_a2,P != T1?,Same,1,2,high,132,0.87,96,1.32,132,0.98,No,sure,cr,1.6663320064544678,NA
324,w0ep#21,False,309,2,unequal,ST2_high_4_a1,P != T2?,Same,2,1,high,96,1.42,70,1.5,70,1.37,No,sure,cr,1.1249809265136719,NA
325,w0ep#21,False,310,2,unequal,ST2_low_4_a2,P != T2?,Same,2,2,low,112,1.08,70,1.69,70,1.66,No,sure,cr,1.2585668563842773,NA
326,w0ep#21,False,311,2,unequal,ST1_high_6_a2,P != T1?,Same,1,2,high,132,0.73,96,1.04,132,0.76,No,unsure,cr,2.473217010498047,NA
327,w0ep#21,False,312,2,unequal,ST1_high_4_a2,P != T1?,Same,1,2,high,96,1.11,70,1.39,96,1.07,Yes,unsure,fa,6.888230085372925,NA
328,w0ep#21,False,313,2,unequal,ST1_low_2_a2,P != T1?,Same,1,2,low,132,0.96,82,1.58,132,0.91,No,sure,cr,1.4605789184570312,NA
329,w0ep#21,False,314,2,unequal,STb_3_a1,P != T1?,Same,0,1,None,82,1.55,82,1.51,82,1.53,No,sure,cr,0.3794717788696289,NA
330,w0ep#21,False,315,2,unequal,ST2_high_3_a2,P != T2?,Same,2,2,high,70,1.42,96,1.28,96,1.19,No,sure,cr,1.346614122390747,NA
331,w0ep#21,False,316,2,unequal,ST1_high_5_a2,P != T1?,Same,1,2,high,96,1.17,132,0.81,96,1.34,No,sure,cr,10.886831998825073,NA
332,w0ep#21,False,317,2,unequal,ST1_low_1_a1,P != T2?,Same,1,1,low,82,1.41,132,0.8,82,1.55,Yes,sure,hit,5.360376834869385,NA
333,w0ep#21,False,318,2,unequal,ST1_low_1_a2,P != T2?,Same,1,2,low,82,1.56,132,0.83,82,1.28,Yes,sure,hit,1.4436049461364746,NA
334,w0ep#21,False,319,2,unequal,ST2_high_2_a2,P != T2?,Same,2,2,high,112,0.93,82,1.54,82,1.26,No,sure,cr,0.3631322383880615,NA
335,w0ep#21,False,320,2,unequal,ST1_low_4_a2,P != T1?,Same,1,2,low,112,1.18,70,1.57,112,0.93,No,sure,cr,1.0773749351501465,1.0
