,pcode,practice,trial,block,questionType,condition,question,PTS,TargetPosition,AccessoryPosition,TNS,T1_hz,T1_amp,T2_hz,T2_amp,P_hz,P_amp,response_dicho,response_rating,response_sdt,rt,P_correct
0,t#jc019,True,1,1,equal,ST1_low_2_a1,P = T1?,Same,1,1,low,132,0.79,82,1.27,132,1.12,No,sure,miss,1.2548184394836426,NA
1,t#jc019,True,2,1,equal,STb_2_a1,P = T2?,Same,0,1,None,70,1.43,70,1.77,70,1.56,Yes,sure,hit,2.6179330348968506,NA
2,t#jc019,True,3,1,equal,DT1_low_2_a2,P = T1?,Different,1,2,low,132,1.05,82,1.31,154,0.83,Yes,quiteSure,hit,1.2309679985046387,NA
3,t#jc019,True,4,1,equal,STb_8_a2,P = T2?,Same,0,2,None,180,0.81,180,0.92,180,0.76,Yes,sure,hit,0.694122314453125,NA
4,t#jc019,True,5,1,equal,ST2_low_3_a1,P = T2?,Same,2,1,low,70,1.6,112,1.04,112,1.28,Yes,sure,hit,0.947303295135498,NA
5,t#jc019,True,6,1,equal,ST1_high_6_a2,P = T2?,Same,1,2,high,132,0.91,96,1.15,132,0.86,No,quiteSure,cr,1.272092342376709,NA
6,t#jc019,True,7,1,equal,ST2_high_6_a1,P = T2?,Same,2,1,high,132,1.16,96,1.55,96,1.23,Yes,quiteSure,hit,1.2201650142669678,NA
7,t#jc019,True,8,1,equal,STb_3_a2,P = T1?,Same,0,2,None,82,1.47,82,1.56,82,1.28,Yes,sure,hit,3.112431287765503,NA
8,t#jc019,True,9,1,equal,ST1_low_4_a1,P = T1?,Same,1,1,low,112,1.07,70,1.72,112,1.22,Yes,quiteSure,hit,0.9116382598876953,NA
9,t#jc019,True,10,1,equal,ST2_high_3_a2,P = T1?,Same,2,2,high,70,1.58,96,1.18,96,1.19,No,quiteSure,cr,1.1740334033966064,NA
10,t#jc019,True,11,1,equal,DT2_high_2_a2,P = T2?,Different,2,2,high,112,1.23,82,1.44,70,1.52,No,quiteSure,miss,1.571033000946045,NA
11,t#jc019,True,12,1,equal,ST1_high_4_a1,P = T2?,Same,1,1,high,96,1.2,70,1.6,96,1.16,No,quiteSure,cr,1.8761677742004395,NA
12,t#jc019,True,13,1,equal,DT2_high_5_a2,P = T2?,Different,2,2,high,96,1.23,132,0.95,154,0.94,Yes,sure,hit,1.008901834487915,NA
13,t#jc019,True,14,1,equal,STb_7_a1,P = T1?,Same,0,1,None,154,0.78,154,0.68,154,0.97,Yes,sure,hit,0.665250301361084,NA
14,t#jc019,True,15,1,equal,DT1_high_4_a2,P = T1?,Different,1,2,high,96,1.41,70,1.44,112,1.05,Yes,sure,hit,0.7908861637115479,NA
15,t#jc019,True,16,1,equal,ST2_low_6_a2,P = T1?,Same,2,2,low,154,0.78,96,1.46,96,0.98,No,sure,cr,1.0042533874511719,0.75
16,t#jc019,False,1,1,equal,ST1_low_1_a1,P = T2?,Same,1,1,low,82,1.47,132,0.81,82,1.26,Yes,quiteSure,fa,1.2115325927734375,NA
17,t#jc019,False,2,1,equal,ST1_high_3_a2,P = T2?,Same,1,2,high,70,1.42,96,1.3,70,1.64,No,quiteSure,cr,2.3232738971710205,NA
18,t#jc019,False,3,1,equal,ST1_high_2_a1,P = T2?,Same,1,1,high,112,0.98,82,1.61,112,1.15,Yes,sure,fa,0.7113363742828369,NA
19,t#jc019,False,4,1,equal,ST2_high_3_a2,P = T2?,Same,2,2,high,70,1.68,96,1.36,96,1.33,Yes,sure,hit,1.1805694103240967,NA
20,t#jc019,False,5,1,equal,ST1_high_6_a2,P = T1?,Same,1,2,high,132,0.97,96,1.33,132,1.04,Yes,sure,hit,1.0399634838104248,NA
21,t#jc019,False,6,1,equal,ST1_low_2_a1,P = T2?,Same,1,1,low,132,0.81,82,1.32,132,0.81,No,sure,cr,0.86962890625,NA
22,t#jc019,False,7,1,equal,DT1_low_6_a2,P = T2?,Different,1,2,low,154,0.73,96,1.17,180,0.74,Yes,sure,fa,1.1383464336395264,NA
23,t#jc019,False,8,1,equal,ST2_high_3_a1,P = T1?,Same,2,1,high,70,1.47,96,1.39,96,1.13,No,sure,cr,0.9246232509613037,NA
24,t#jc019,False,9,1,equal,STb_2_a1,P = T2?,Same,0,1,None,70,1.43,70,1.77,70,1.56,Yes,sure,hit,2.0421416759490967,NA
25,t#jc019,False,10,1,equal,ST1_low_3_a2,P = T1?,Same,1,2,low,70,1.56,112,1.21,70,1.48,Yes,quiteSure,hit,3.1320316791534424,NA
26,t#jc019,False,11,1,equal,ST1_high_3_a1,P = T2?,Same,1,1,high,70,1.66,96,1.37,70,1.58,No,quiteSure,cr,1.6193642616271973,NA
27,t#jc019,False,12,1,equal,ST2_high_6_a2,P = T1?,Same,2,2,high,132,0.79,96,1.31,96,1.34,Yes,sure,fa,0.914252519607544,NA
28,t#jc019,False,13,1,equal,ST2_high_2_a2,P = T2?,Same,2,2,high,112,1.21,82,1.41,82,1.55,Yes,sure,hit,1.0674035549163818,NA
29,t#jc019,False,14,1,equal,ST1_low_5_a1,P = T2?,Same,1,1,low,96,1.27,154,0.78,96,1.42,No,quiteSure,cr,0.882960319519043,NA
30,t#jc019,False,15,1,equal,DT2_low_1_a2,P = T2?,Different,2,2,low,82,1.5,132,0.99,154,0.78,Yes,sure,hit,3.357670545578003,NA
31,t#jc019,False,16,1,equal,ST2_low_3_a2,P = T1?,Same,2,2,low,70,1.6,112,0.92,112,1.1,No,sure,cr,0.8906309604644775,NA
32,t#jc019,False,17,1,equal,ST2_high_2_a1,P = T1?,Same,2,1,high,112,1.14,82,1.53,82,1.41,No,sure,cr,1.4039218425750732,NA
33,t#jc019,False,18,1,equal,ST2_low_4_a2,P = T2?,Same,2,2,low,112,1.21,70,1.56,70,1.39,Yes,sure,hit,1.018326759338379,NA
34,t#jc019,False,19,1,equal,ST1_high_5_a2,P = T2?,Same,1,2,high,96,1.35,132,0.84,96,1.22,No,sure,cr,1.1044456958770752,NA
35,t#jc019,False,20,1,equal,DT1_high_6_a2,P = T1?,Different,1,2,high,132,0.85,96,1.42,154,0.76,No,sure,miss,1.2368524074554443,NA
36,t#jc019,False,21,1,equal,DT1_high_5_a2,P = T1?,Different,1,2,high,96,1.41,132,0.93,82,1.28,No,quiteSure,miss,3.4426488876342773,NA
37,t#jc019,False,22,1,equal,ST1_low_3_a1,P = T1?,Same,1,1,low,70,1.75,112,1.1,70,1.72,Yes,sure,hit,2.5285651683807373,NA
38,t#jc019,False,23,1,equal,ST1_high_2_a2,P = T2?,Same,1,2,high,112,1.16,82,1.55,112,1.18,No,sure,cr,1.6547317504882812,NA
39,t#jc019,False,24,1,equal,ST2_low_2_a1,P = T1?,Same,2,1,low,132,0.9,82,1.61,82,1.49,No,quiteSure,cr,0.8859727382659912,NA
40,t#jc019,False,25,1,equal,ST1_high_1_a2,P = T2?,Same,1,2,high,82,1.62,112,1.11,82,1.27,No,sure,cr,1.1171324253082275,NA
41,t#jc019,False,26,1,equal,ST2_low_5_a2,P = T2?,Same,2,2,low,96,1.12,154,0.94,154,0.73,Yes,sure,hit,1.169377326965332,NA
42,t#jc019,False,27,1,equal,ST2_low_1_a2,P = T1?,Same,2,2,low,82,1.31,132,0.83,132,1.06,No,sure,cr,1.0437400341033936,NA
43,t#jc019,False,28,1,equal,ST2_low_3_a1,P = T2?,Same,2,1,low,70,1.6,112,1.04,112,1.28,Yes,sure,hit,0.9378921985626221,NA
44,t#jc019,False,29,1,equal,ST2_high_2_a1,P = T2?,Same,2,1,high,112,1.13,82,1.28,82,1.22,Yes,sure,hit,1.1887664794921875,NA
45,t#jc019,False,30,1,equal,ST1_low_6_a2,P = T1?,Same,1,2,low,154,0.73,96,1.26,154,0.92,Yes,quiteSure,hit,2.4722304344177246,NA
46,t#jc019,False,31,1,equal,ST2_high_3_a2,P = T1?,Same,2,2,high,70,1.58,96,1.18,96,1.19,No,sure,cr,1.1629037857055664,NA
47,t#jc019,False,32,1,equal,ST1_low_5_a2,P = T2?,Same,1,2,low,96,1.27,154,0.76,96,1.39,No,quiteSure,cr,1.0714685916900635,NA
48,t#jc019,False,33,1,equal,ST1_high_1_a1,P = T2?,Same,1,1,high,82,1.53,112,0.99,82,1.42,No,quiteSure,cr,1.3610148429870605,NA
49,t#jc019,False,34,1,equal,ST2_high_5_a1,P = T2?,Same,2,1,high,96,1.37,132,0.95,132,0.94,No,sure,miss,8.65799331665039,NA
50,t#jc019,False,35,1,equal,ST1_high_4_a2,P = T1?,Same,1,2,high,96,1.38,70,1.65,96,1.39,Yes,sure,hit,1.2395670413970947,NA
51,t#jc019,False,36,1,equal,ST2_high_5_a2,P = T2?,Same,2,2,high,96,1.39,132,0.84,132,0.84,Yes,sure,hit,1.9300079345703125,NA
52,t#jc019,False,37,1,equal,ST1_high_4_a1,P = T1?,Same,1,1,high,96,1.17,70,1.56,96,1.27,Yes,sure,hit,0.9858691692352295,NA
53,t#jc019,False,38,1,equal,ST1_high_5_a1,P = T1?,Same,1,1,high,96,1.32,132,1.01,96,1.32,Yes,sure,hit,1.0670106410980225,NA
54,t#jc019,False,39,1,equal,ST2_high_6_a1,P = T1?,Same,2,1,high,132,0.79,96,1.12,96,1.43,No,sure,cr,0.8700625896453857,NA
55,t#jc019,False,40,1,equal,ST1_low_6_a2,P = T2?,Same,1,2,low,154,0.81,96,1.07,154,0.76,No,quiteSure,cr,1.0954575538635254,NA
56,t#jc019,False,41,1,equal,ST1_low_3_a1,P = T2?,Same,1,1,low,70,1.47,112,1.08,70,1.55,No,sure,cr,1.0914723873138428,NA
57,t#jc019,False,42,1,equal,ST2_high_3_a1,P = T2?,Same,2,1,high,70,1.66,96,1.08,96,1.29,Yes,sure,hit,1.312375783920288,NA
58,t#jc019,False,43,1,equal,ST1_high_6_a2,P = T2?,Same,1,2,high,132,0.91,96,1.15,132,0.86,No,sure,cr,2.141659736633301,NA
59,t#jc019,False,44,1,equal,ST1_high_2_a1,P = T1?,Same,1,1,high,112,1.09,82,1.33,112,1.09,Yes,sure,hit,1.812248706817627,NA
60,t#jc019,False,45,1,equal,ST1_low_5_a1,P = T1?,Same,1,1,low,96,1.07,154,0.78,96,1.23,Yes,sure,hit,1.143822193145752,NA
61,t#jc019,False,46,1,equal,ST1_high_5_a1,P = T2?,Same,1,1,high,96,1.21,132,0.79,96,1.24,No,quiteSure,cr,0.8643515110015869,NA
62,t#jc019,False,47,1,equal,STb_1_a2,P = T2?,Same,0,2,None,60,1.66,60,1.9,60,2.04,Yes,sure,hit,1.1704649925231934,NA
63,t#jc019,False,48,1,equal,ST2_low_6_a1,P = T2?,Same,2,1,low,154,0.72,96,1.22,96,1.38,Yes,quiteSure,hit,1.204984426498413,NA
64,t#jc019,False,49,1,equal,ST2_low_5_a1,P = T2?,Same,2,1,low,96,1.1,154,0.87,154,0.82,No,unsure,miss,1.1497609615325928,NA
65,t#jc019,False,50,1,equal,ST1_low_5_a2,P = T1?,Same,1,2,low,96,1.15,154,0.94,96,1.39,Yes,sure,hit,0.8253095149993896,NA
66,t#jc019,False,51,1,equal,ST2_high_2_a2,P = T1?,Same,2,2,high,112,1.02,82,1.32,82,1.53,No,unsure,cr,2.3541059494018555,NA
67,t#jc019,False,52,1,equal,DT1_high_4_a1,P = T2?,Different,1,1,high,96,1.41,70,1.73,112,0.96,No,quiteSure,cr,2.284169912338257,NA
68,t#jc019,False,53,1,equal,ST2_low_5_a2,P = T1?,Same,2,2,low,96,1.3,154,0.81,154,0.72,No,quiteSure,cr,3.0289623737335205,NA
69,t#jc019,False,54,1,equal,STb_1_a2,P = T1?,Same,0,2,None,60,1.61,60,1.8,60,1.86,Yes,sure,hit,3.0793237686157227,NA
70,t#jc019,False,55,1,equal,ST1_low_6_a1,P = T1?,Same,1,1,low,154,0.93,96,1.34,154,0.87,Yes,sure,hit,2.963104248046875,NA
71,t#jc019,False,56,1,equal,STb_5_a1,P = T1?,Same,0,1,None,112,1.04,112,1.19,112,1.16,Yes,sure,hit,1.285853624343872,NA
72,t#jc019,False,57,1,equal,ST2_low_3_a1,P = T1?,Same,2,1,low,70,1.41,112,1.04,112,1.15,No,quiteSure,cr,1.0223932266235352,NA
73,t#jc019,False,58,1,equal,ST2_high_5_a1,P = T1?,Same,2,1,high,96,1.38,132,1.05,132,0.91,No,sure,cr,1.6605150699615479,NA
74,t#jc019,False,59,1,equal,ST1_high_5_a2,P = T1?,Same,1,2,high,96,1.11,132,0.84,96,1.09,Yes,unsure,hit,6.704440593719482,NA
75,t#jc019,False,60,1,equal,ST2_high_1_a1,P = T1?,Same,2,1,high,82,1.41,112,0.92,112,1.07,Yes,unsure,fa,4.623606204986572,NA
76,t#jc019,False,61,1,equal,ST1_low_4_a2,P = T1?,Same,1,2,low,112,1.21,70,1.59,112,1.22,Yes,sure,hit,2.252211332321167,NA
77,t#jc019,False,62,1,equal,ST2_low_1_a1,P = T1?,Same,2,1,low,82,1.44,132,0.79,132,1.0,No,unsure,cr,1.996934175491333,NA
78,t#jc019,False,63,1,equal,STb_7_a1,P = T1?,Same,0,1,None,154,0.78,154,0.68,154,0.97,No,unsure,miss,4.13840389251709,NA
79,t#jc019,False,64,1,equal,ST2_low_1_a1,P = T2?,Same,2,1,low,82,1.58,132,0.81,132,0.83,Yes,sure,hit,6.539905071258545,NA
80,t#jc019,False,65,1,equal,ST1_low_4_a1,P = T1?,Same,1,1,low,112,1.07,70,1.72,112,1.22,No,unsure,miss,1.462028980255127,NA
81,t#jc019,False,66,1,equal,ST2_high_5_a2,P = T1?,Same,2,2,high,96,1.15,132,0.86,132,0.92,Yes,sure,fa,1.6537179946899414,NA
82,t#jc019,False,67,1,equal,STb_4_a2,P = T2?,Same,0,2,None,96,1.09,96,1.16,96,1.23,Yes,sure,hit,0.48784422874450684,NA
83,t#jc019,False,68,1,equal,ST2_low_1_a2,P = T2?,Same,2,2,low,82,1.27,132,0.92,132,0.97,Yes,sure,hit,0.48923397064208984,NA
84,t#jc019,False,69,1,equal,ST1_high_4_a2,P = T2?,Same,1,2,high,96,1.32,70,1.68,96,1.32,No,sure,cr,1.0041844844818115,NA
85,t#jc019,False,70,1,equal,STb_6_a2,P = T2?,Same,0,2,None,132,0.93,132,0.85,132,0.84,Yes,sure,hit,0.27483558654785156,NA
86,t#jc019,False,71,1,equal,ST1_high_4_a1,P = T2?,Same,1,1,high,96,1.2,70,1.6,96,1.16,No,sure,cr,1.5296015739440918,NA
87,t#jc019,False,72,1,equal,ST2_high_4_a1,P = T1?,Same,2,1,high,96,1.3,70,1.39,70,1.77,No,quiteSure,cr,1.2235515117645264,NA
88,t#jc019,False,73,1,equal,ST2_high_6_a1,P = T2?,Same,2,1,high,132,1.16,96,1.55,96,1.23,Yes,sure,hit,1.2385728359222412,NA
89,t#jc019,False,74,1,equal,STb_8_a1,P = T1?,Same,0,1,None,180,0.82,180,0.79,180,0.71,Yes,sure,hit,0.9668676853179932,NA
90,t#jc019,False,75,1,equal,ST2_low_3_a2,P = T2?,Same,2,2,low,70,1.57,112,1.01,112,1.2,Yes,sure,hit,0.8341197967529297,NA
91,t#jc019,False,76,1,equal,ST1_high_2_a2,P = T1?,Same,1,2,high,112,1.09,82,1.29,112,1.22,Yes,sure,hit,0.9560556411743164,NA
92,t#jc019,False,77,1,equal,ST2_low_2_a1,P = T2?,Same,2,1,low,132,0.91,82,1.45,82,1.52,Yes,sure,hit,0.8178744316101074,NA
93,t#jc019,False,78,1,equal,ST2_high_4_a2,P = T2?,Same,2,2,high,96,1.07,70,1.52,70,1.77,Yes,sure,hit,1.3375728130340576,NA
94,t#jc019,False,79,1,equal,DT2_low_3_a2,P = T1?,Different,2,2,low,70,1.46,112,1.03,132,1.05,No,sure,cr,1.0237691402435303,NA
95,t#jc019,False,80,1,equal,ST2_low_6_a2,P = T1?,Same,2,2,low,154,0.78,96,1.46,96,0.98,No,quiteSure,cr,0.9337911605834961,NA
96,t#jc019,False,81,1,equal,ST1_low_2_a2,P = T1?,Same,1,2,low,132,0.8,82,1.44,132,0.89,Yes,sure,hit,1.1925294399261475,NA
97,t#jc019,False,82,1,equal,ST2_low_2_a2,P = T1?,Same,2,2,low,132,0.97,82,1.64,82,1.5,No,sure,cr,0.859748363494873,NA
98,t#jc019,False,83,1,equal,ST2_low_2_a2,P = T2?,Same,2,2,low,132,0.91,82,1.43,82,1.38,Yes,sure,hit,2.7581589221954346,NA
99,t#jc019,False,84,1,equal,ST1_low_4_a2,P = T2?,Same,1,2,low,112,1.07,70,1.73,112,1.05,Yes,sure,fa,0.8172309398651123,NA
100,t#jc019,False,85,1,equal,ST1_high_3_a2,P = T1?,Same,1,2,high,70,1.38,96,1.21,70,1.84,Yes,sure,hit,0.890411376953125,NA
101,t#jc019,False,86,1,equal,ST2_low_4_a1,P = T1?,Same,2,1,low,112,0.92,70,1.52,70,1.57,No,sure,cr,1.0582530498504639,NA
102,t#jc019,False,87,1,equal,ST2_low_4_a1,P = T2?,Same,2,1,low,112,1.0,70,1.42,70,1.76,Yes,sure,hit,1.357957124710083,NA
103,t#jc019,False,88,1,equal,ST2_low_6_a1,P = T1?,Same,2,1,low,154,0.89,96,1.2,96,1.08,No,sure,cr,1.7600257396697998,NA
104,t#jc019,False,89,1,equal,ST2_low_4_a2,P = T1?,Same,2,2,low,112,0.94,70,1.81,70,1.5,No,sure,cr,1.2722744941711426,NA
105,t#jc019,False,90,1,equal,ST1_high_1_a1,P = T1?,Same,1,1,high,82,1.58,112,1.04,82,1.27,Yes,sure,hit,0.7360455989837646,NA
106,t#jc019,False,91,1,equal,ST2_high_1_a2,P = T2?,Same,2,2,high,82,1.59,112,1.12,112,1.04,Yes,sure,hit,0.7536096572875977,NA
107,t#jc019,False,92,1,equal,ST1_high_6_a1,P = T2?,Same,1,1,high,132,0.88,96,1.28,132,0.88,No,sure,cr,1.2129180431365967,NA
108,t#jc019,False,93,1,equal,ST2_high_1_a1,P = T2?,Same,2,1,high,82,1.29,112,1.01,112,1.22,Yes,sure,hit,1.488753080368042,NA
109,t#jc019,False,94,1,equal,ST2_low_5_a1,P = T1?,Same,2,1,low,96,1.16,154,0.82,154,0.9,No,sure,cr,1.7001688480377197,NA
110,t#jc019,False,95,1,equal,DT2_high_1_a1,P = T1?,Different,2,1,high,82,1.46,112,1.03,132,0.95,Yes,sure,fa,1.1998777389526367,NA
111,t#jc019,False,96,1,equal,ST1_high_3_a1,P = T1?,Same,1,1,high,70,1.69,96,1.11,70,1.62,Yes,sure,hit,1.091991901397705,NA
112,t#jc019,False,97,1,equal,DT1_low_4_a2,P = T2?,Different,1,2,low,112,0.92,70,1.49,132,0.81,Yes,sure,fa,2.306932210922241,NA
113,t#jc019,False,98,1,equal,ST1_high_6_a1,P = T1?,Same,1,1,high,132,0.96,96,1.17,132,1.02,Yes,sure,hit,1.0087246894836426,NA
114,t#jc019,False,99,1,equal,ST2_low_6_a2,P = T2?,Same,2,2,low,154,0.71,96,1.23,96,1.42,Yes,sure,hit,0.6166915893554688,NA
115,t#jc019,False,100,1,equal,ST2_high_4_a1,P = T2?,Same,2,1,high,96,1.33,70,1.62,70,1.37,Yes,sure,hit,0.6672112941741943,NA
116,t#jc019,False,101,1,equal,ST1_low_4_a1,P = T2?,Same,1,1,low,112,1.15,70,1.57,112,0.99,No,sure,cr,3.8795828819274902,NA
117,t#jc019,False,102,1,equal,ST1_low_3_a2,P = T2?,Same,1,2,low,70,1.47,112,1.13,70,1.44,No,sure,cr,2.18965482711792,NA
118,t#jc019,False,103,1,equal,ST2_high_6_a2,P = T2?,Same,2,2,high,132,0.96,96,1.32,96,1.08,Yes,sure,hit,1.7356746196746826,NA
119,t#jc019,False,104,1,equal,ST1_low_2_a1,P = T1?,Same,1,1,low,132,0.79,82,1.27,132,1.12,Yes,sure,hit,1.7229607105255127,NA
120,t#jc019,False,105,1,equal,ST1_low_1_a1,P = T1?,Same,1,1,low,82,1.22,132,0.95,82,1.41,Yes,sure,hit,1.1162540912628174,NA
121,t#jc019,False,106,1,equal,ST1_high_1_a2,P = T1?,Same,1,2,high,82,1.53,112,1.06,82,1.25,Yes,sure,hit,0.6630218029022217,NA
122,t#jc019,False,107,1,equal,ST1_low_2_a2,P = T2?,Same,1,2,low,132,0.89,82,1.3,132,0.81,No,sure,cr,1.0447423458099365,NA
123,t#jc019,False,108,1,equal,ST2_high_1_a2,P = T1?,Same,2,2,high,82,1.46,112,1.12,112,1.07,No,sure,cr,1.189748764038086,NA
124,t#jc019,False,109,1,equal,ST1_low_1_a2,P = T2?,Same,1,2,low,82,1.47,132,0.94,82,1.43,No,quiteSure,cr,1.0520241260528564,NA
125,t#jc019,False,110,1,equal,ST1_low_6_a1,P = T2?,Same,1,1,low,154,0.95,96,1.15,154,0.83,No,quiteSure,cr,1.1166877746582031,NA
126,t#jc019,False,111,1,equal,ST1_low_1_a2,P = T1?,Same,1,2,low,82,1.26,132,0.83,82,1.49,Yes,sure,hit,0.7967314720153809,NA
127,t#jc019,False,112,1,equal,ST2_high_4_a2,P = T1?,Same,2,2,high,96,1.24,70,1.76,70,1.69,No,quiteSure,cr,1.0920696258544922,1.0
