,pcode,practice,trial,block,questionType,condition,question,PTS,TargetPosition,AccessoryPosition,TNS,T1_hz,T1_amp,T2_hz,T2_amp,P_hz,P_amp,response_dicho,response_rating,response_sdt,rt,P_correct
0,l29up!1,True,1,2,unequal,STb_1_a1,P != T1?,Same,0,1,None,60,1.87,60,1.72,60,1.58,No,quiteSure,cr,2.924970865249634,NA
1,l29up!1,True,2,2,unequal,DT2_high_4_a2,P != T1?,Different,2,2,high,96,1.36,70,1.54,60,1.92,Yes,quiteSure,hit,3.4252500534057617,NA
2,l29up!1,True,3,2,unequal,ST1_high_1_a1,P != T1?,Same,1,1,high,82,1.35,112,1.06,82,1.27,No,quiteSure,cr,1.889301061630249,NA
3,l29up!1,True,4,2,unequal,STb_3_a1,P != T2?,Same,0,1,None,82,1.54,82,1.39,82,1.3,No,quiteSure,cr,1.417391061782837,NA
4,l29up!1,True,5,2,unequal,DT2_high_4_a1,P != T1?,Different,2,1,high,96,1.32,70,1.51,60,1.86,Yes,sure,hit,1.508267879486084,NA
5,l29up!1,True,6,2,unequal,DT1_high_5_a1,P != T2?,Different,1,1,high,96,1.35,132,0.84,82,1.35,Yes,sure,hit,1.7089910507202148,NA
6,l29up!1,True,7,2,unequal,DT2_low_6_a2,P != T2?,Different,2,2,low,154,0.89,96,1.34,82,1.54,No,quiteSure,cr,4.614073038101196,NA
7,l29up!1,True,8,2,unequal,STb_8_a2,P != T1?,Same,0,2,None,180,0.92,180,0.72,180,0.95,No,sure,cr,3.1708858013153076,NA
8,l29up!1,True,9,2,unequal,ST1_high_1_a1,P != T2?,Same,1,1,high,82,1.2,112,1.19,82,1.41,No,quiteSure,miss,5.01664400100708,NA
9,l29up!1,True,10,2,unequal,ST2_high_2_a1,P != T1?,Same,2,1,high,112,0.93,82,1.27,82,1.46,Yes,quiteSure,hit,1.8904240131378174,NA
10,l29up!1,True,11,2,unequal,ST1_high_5_a2,P != T2?,Same,1,2,high,96,1.03,132,0.98,96,1.39,No,quiteSure,miss,3.03733491897583,NA
11,l29up!1,True,12,2,unequal,ST2_high_1_a1,P != T2?,Same,2,1,high,82,1.45,112,1.0,112,1.38,No,quiteSure,cr,2.2545299530029297,NA
12,l29up!1,True,13,2,unequal,ST1_high_4_a2,P != T1?,Same,1,2,high,96,1.14,70,1.53,96,1.33,No,unsure,cr,3.8928451538085938,NA
13,l29up!1,True,14,2,unequal,ST2_high_3_a2,P != T2?,Same,2,2,high,70,1.51,96,1.14,96,1.48,No,quiteSure,cr,3.511399984359741,NA
14,l29up!1,True,15,2,unequal,STb_1_a2,P != T2?,Same,0,2,None,60,1.92,60,1.5,60,1.32,No,sure,cr,2.0480051040649414,NA
15,l29up!1,True,16,2,unequal,ST2_high_5_a1,P != T1?,Same,2,1,high,96,1.02,132,0.9,132,0.88,Yes,sure,hit,2.156696081161499,0.75
16,l29up!1,False,1,2,unequal,ST2_low_2_a2,P != T2?,Same,2,2,low,132,0.96,82,1.28,82,1.54,No,quiteSure,cr,9.313945055007935,NA
17,l29up!1,False,2,2,unequal,ST2_high_5_a2,P != T1?,Same,2,2,high,96,1.14,132,0.84,132,1.02,Yes,quiteSure,hit,1.552931785583496,NA
18,l29up!1,False,3,2,unequal,ST1_low_4_a2,P != T2?,Same,1,2,low,112,1.09,70,1.61,112,1.06,No,quiteSure,miss,1.9075119495391846,NA
19,l29up!1,False,4,2,unequal,ST2_low_1_a2,P != T1?,Same,2,2,low,82,1.26,132,0.84,132,0.99,Yes,sure,hit,1.1667189598083496,NA
20,l29up!1,False,5,2,unequal,ST1_high_2_a1,P != T1?,Same,1,1,high,112,1.12,82,1.58,112,0.92,No,quiteSure,cr,3.3536670207977295,NA
21,l29up!1,False,6,2,unequal,ST1_high_5_a1,P != T1?,Same,1,1,high,96,1.36,132,1.0,96,1.39,No,quiteSure,cr,2.22049617767334,NA
22,l29up!1,False,7,2,unequal,ST1_high_4_a2,P != T1?,Same,1,2,high,96,1.34,70,1.52,96,1.33,No,quiteSure,cr,4.025743007659912,NA
23,l29up!1,False,8,2,unequal,ST2_low_5_a2,P != T2?,Same,2,2,low,96,1.14,154,0.79,154,0.87,No,sure,cr,1.6198008060455322,NA
24,l29up!1,False,9,2,unequal,ST1_low_6_a2,P != T2?,Same,1,2,low,154,0.93,96,1.34,154,0.84,Yes,sure,hit,2.7691688537597656,NA
25,l29up!1,False,10,2,unequal,ST2_low_1_a2,P != T1?,Same,2,2,low,82,1.34,132,0.98,132,1.04,Yes,sure,hit,1.7964849472045898,NA
26,l29up!1,False,11,2,unequal,ST2_high_4_a1,P != T1?,Same,2,1,high,96,1.31,70,1.83,70,1.82,Yes,sure,hit,2.8098440170288086,NA
27,l29up!1,False,12,2,unequal,ST2_low_2_a1,P != T1?,Same,2,1,low,132,1.01,82,1.36,82,1.53,Yes,sure,hit,1.7555160522460938,NA
28,l29up!1,False,13,2,unequal,ST2_low_3_a1,P != T2?,Same,2,1,low,70,1.78,112,0.97,112,1.02,No,sure,cr,1.4799041748046875,NA
29,l29up!1,False,14,2,unequal,ST2_low_2_a1,P != T1?,Same,2,1,low,132,1.02,82,1.34,82,1.62,No,sure,miss,1.5486268997192383,NA
30,l29up!1,False,15,2,unequal,ST2_low_5_a2,P != T2?,Same,2,2,low,96,1.35,154,0.72,154,0.87,No,sure,cr,5.266539812088013,NA
31,l29up!1,False,16,2,unequal,ST2_low_6_a2,P != T1?,Same,2,2,low,154,0.83,96,1.3,96,1.25,Yes,sure,hit,1.6861779689788818,NA
32,l29up!1,False,17,2,unequal,ST1_low_3_a1,P != T2?,Same,1,1,low,70,1.41,112,1.01,70,1.49,Yes,sure,hit,2.608783006668091,NA
33,l29up!1,False,18,2,unequal,ST1_high_4_a1,P != T2?,Same,1,1,high,96,1.25,70,1.59,96,1.14,No,quiteSure,miss,1.392730951309204,NA
34,l29up!1,False,19,2,unequal,ST1_low_4_a1,P != T1?,Same,1,1,low,112,1.16,70,1.65,112,1.2,No,quiteSure,cr,1.8877546787261963,NA
35,l29up!1,False,20,2,unequal,ST1_high_2_a1,P != T2?,Same,1,1,high,112,1.0,82,1.59,112,1.03,Yes,sure,hit,2.718825101852417,NA
36,l29up!1,False,21,2,unequal,ST2_high_1_a2,P != T2?,Same,2,2,high,82,1.38,112,1.2,112,1.01,No,quiteSure,cr,1.9755160808563232,NA
37,l29up!1,False,22,2,unequal,ST2_low_5_a1,P != T2?,Same,2,1,low,96,1.27,154,0.86,154,0.77,No,quiteSure,cr,2.2918219566345215,NA
38,l29up!1,False,23,2,unequal,ST1_high_3_a2,P != T1?,Same,1,2,high,70,1.55,96,1.33,70,1.54,No,quiteSure,cr,2.1359598636627197,NA
39,l29up!1,False,24,2,unequal,ST1_low_6_a2,P != T2?,Same,1,2,low,154,0.89,96,1.26,154,0.93,Yes,sure,hit,2.562407970428467,NA
40,l29up!1,False,25,2,unequal,ST2_high_4_a1,P != T2?,Same,2,1,high,96,1.42,70,1.83,70,1.71,No,sure,cr,1.282749891281128,NA
41,l29up!1,False,26,2,unequal,ST1_low_2_a1,P != T1?,Same,1,1,low,132,0.93,82,1.44,132,0.84,No,quiteSure,cr,4.544907093048096,NA
42,l29up!1,False,27,2,unequal,ST1_high_5_a2,P != T1?,Same,1,2,high,96,1.28,132,0.92,96,1.13,No,unsure,cr,4.587646007537842,NA
43,l29up!1,False,28,2,unequal,ST2_low_4_a2,P != T1?,Same,2,2,low,112,1.13,70,1.81,70,1.62,No,quiteSure,miss,2.1543359756469727,NA
44,l29up!1,False,29,2,unequal,ST2_low_3_a2,P != T1?,Same,2,2,low,70,1.68,112,1.19,112,1.16,Yes,quiteSure,hit,2.9887471199035645,NA
45,l29up!1,False,30,2,unequal,ST2_low_4_a1,P != T1?,Same,2,1,low,112,0.96,70,1.43,70,1.53,Yes,quiteSure,hit,3.0609426498413086,NA
46,l29up!1,False,31,2,unequal,ST1_high_1_a2,P != T2?,Same,1,2,high,82,1.51,112,0.94,82,1.33,No,quiteSure,miss,1.954463005065918,NA
47,l29up!1,False,32,2,unequal,ST1_high_4_a2,P != T2?,Same,1,2,high,96,1.09,70,1.66,96,1.29,No,quiteSure,miss,4.0942542552948,NA
48,l29up!1,False,33,2,unequal,ST1_high_2_a1,P != T2?,Same,1,1,high,112,1.15,82,1.27,112,1.07,Yes,sure,hit,1.5741839408874512,NA
49,l29up!1,False,34,2,unequal,ST2_low_1_a1,P != T1?,Same,2,1,low,82,1.44,132,0.81,132,0.85,Yes,sure,hit,2.3152310848236084,NA
50,l29up!1,False,35,2,unequal,ST2_high_1_a1,P != T2?,Same,2,1,high,82,1.45,112,1.0,112,1.38,No,sure,cr,2.267275810241699,NA
51,l29up!1,False,36,2,unequal,ST1_high_2_a2,P != T1?,Same,1,2,high,112,1.03,82,1.41,112,1.19,No,sure,cr,1.5729060173034668,NA
52,l29up!1,False,37,2,unequal,STb_7_a2,P != T2?,Same,0,2,None,154,0.77,154,0.82,154,0.73,No,sure,cr,1.5991759300231934,NA
53,l29up!1,False,38,2,unequal,ST2_low_1_a2,P != T2?,Same,2,2,low,82,1.51,132,0.81,132,0.89,No,quiteSure,cr,1.4142060279846191,NA
54,l29up!1,False,39,2,unequal,ST1_low_3_a2,P != T2?,Same,1,2,low,70,1.51,112,0.94,70,1.65,Yes,quiteSure,hit,2.789600133895874,NA
55,l29up!1,False,40,2,unequal,ST1_low_5_a1,P != T1?,Same,1,1,low,96,1.3,154,0.72,96,1.26,No,quiteSure,cr,4.184156894683838,NA
56,l29up!1,False,41,2,unequal,ST1_low_1_a2,P != T2?,Same,1,2,low,82,1.6,132,0.96,82,1.55,Yes,sure,hit,1.6443052291870117,NA
57,l29up!1,False,42,2,unequal,ST2_high_6_a1,P != T1?,Same,2,1,high,132,0.91,96,1.18,96,1.31,Yes,quiteSure,hit,2.0446572303771973,NA
58,l29up!1,False,43,2,unequal,STb_3_a1,P != T1?,Same,0,1,None,82,1.29,82,1.28,82,1.32,Yes,quiteSure,fa,3.370281934738159,NA
59,l29up!1,False,44,2,unequal,ST1_high_3_a1,P != T1?,Same,1,1,high,70,1.41,96,1.15,70,1.85,Yes,sure,fa,2.812859058380127,NA
60,l29up!1,False,45,2,unequal,ST1_low_1_a1,P != T1?,Same,1,1,low,82,1.32,132,1.03,82,1.45,No,quiteSure,cr,3.2425858974456787,NA
61,l29up!1,False,46,2,unequal,ST1_low_6_a1,P != T2?,Same,1,1,low,154,0.84,96,1.11,154,0.94,Yes,sure,hit,1.6898481845855713,NA
62,l29up!1,False,47,2,unequal,ST1_high_1_a1,P != T2?,Same,1,1,high,82,1.51,112,1.08,82,1.37,Yes,sure,hit,2.7428910732269287,NA
63,l29up!1,False,48,2,unequal,DT1_high_4_a2,P != T2?,Different,1,2,high,96,1.3,70,1.47,112,0.95,Yes,sure,hit,1.9557900428771973,NA
64,l29up!1,False,49,2,unequal,ST2_low_2_a1,P != T2?,Same,2,1,low,132,0.94,82,1.4,82,1.46,No,sure,cr,1.729956865310669,NA
65,l29up!1,False,50,2,unequal,ST1_high_6_a1,P != T1?,Same,1,1,high,132,0.94,96,1.2,132,0.95,Yes,sure,fa,1.6853737831115723,NA
66,l29up!1,False,51,2,unequal,ST2_high_5_a1,P != T2?,Same,2,1,high,96,1.22,132,0.84,132,0.95,No,sure,cr,1.213590145111084,NA
67,l29up!1,False,52,2,unequal,ST1_low_3_a1,P != T1?,Same,1,1,low,70,1.44,112,0.98,70,1.77,No,quiteSure,cr,3.0335609912872314,NA
68,l29up!1,False,53,2,unequal,ST1_low_3_a2,P != T1?,Same,1,2,low,70,1.82,112,1.18,70,1.54,Yes,quiteSure,fa,2.7886879444122314,NA
69,l29up!1,False,54,2,unequal,ST1_low_1_a1,P != T2?,Same,1,1,low,82,1.52,132,0.85,82,1.58,Yes,sure,hit,1.8831350803375244,NA
70,l29up!1,False,55,2,unequal,ST2_high_2_a2,P != T1?,Same,2,2,high,112,1.13,82,1.53,82,1.34,Yes,quiteSure,hit,1.8893330097198486,NA
71,l29up!1,False,56,2,unequal,ST1_low_6_a2,P != T1?,Same,1,2,low,154,0.93,96,1.2,154,0.71,No,quiteSure,cr,1.844466209411621,NA
72,l29up!1,False,57,2,unequal,ST2_low_3_a2,P != T1?,Same,2,2,low,70,1.4,112,1.06,112,1.04,Yes,sure,hit,3.621638059616089,NA
73,l29up!1,False,58,2,unequal,ST1_high_3_a2,P != T2?,Same,1,2,high,70,1.64,96,1.17,70,1.55,No,quiteSure,miss,4.066976070404053,NA
74,l29up!1,False,59,2,unequal,ST2_high_6_a1,P != T2?,Same,2,1,high,132,0.86,96,1.24,96,1.13,No,sure,cr,2.0263659954071045,NA
75,l29up!1,False,60,2,unequal,ST2_low_6_a2,P != T2?,Same,2,2,low,154,0.73,96,1.37,96,1.25,No,quiteSure,cr,1.9361050128936768,NA
76,l29up!1,False,61,2,unequal,ST1_low_4_a1,P != T1?,Same,1,1,low,112,1.01,70,1.8,112,1.17,No,sure,cr,2.205717086791992,NA
77,l29up!1,False,62,2,unequal,ST2_high_6_a2,P != T1?,Same,2,2,high,132,0.85,96,1.12,96,1.41,No,quiteSure,miss,2.834887981414795,NA
78,l29up!1,False,63,2,unequal,STb_1_a2,P != T2?,Same,0,2,None,60,1.92,60,1.5,60,1.32,No,sure,cr,1.4414331912994385,NA
79,l29up!1,False,64,2,unequal,ST1_high_1_a1,P != T1?,Same,1,1,high,82,1.46,112,0.98,82,1.55,Yes,quiteSure,fa,2.360123872756958,NA
80,l29up!1,False,65,2,unequal,STb_7_a2,P != T1?,Same,0,2,None,154,0.85,154,0.88,154,0.89,No,sure,cr,2.046553134918213,NA
81,l29up!1,False,66,2,unequal,ST2_high_3_a1,P != T1?,Same,2,1,high,70,1.6,96,1.27,96,1.34,Yes,quiteSure,hit,3.0171382427215576,NA
82,l29up!1,False,67,2,unequal,ST1_high_6_a2,P != T2?,Same,1,2,high,132,0.97,96,1.11,132,0.83,No,quiteSure,miss,1.411895751953125,NA
83,l29up!1,False,68,2,unequal,ST1_low_2_a1,P != T1?,Same,1,1,low,132,1.01,82,1.61,132,0.83,No,quiteSure,cr,2.183958053588867,NA
84,l29up!1,False,69,2,unequal,ST2_low_1_a1,P != T2?,Same,2,1,low,82,1.54,132,0.97,132,0.87,No,quiteSure,cr,2.3580572605133057,NA
85,l29up!1,False,70,2,unequal,ST2_low_1_a2,P != T2?,Same,2,2,low,82,1.57,132,0.83,132,1.01,No,quiteSure,cr,1.6672909259796143,NA
86,l29up!1,False,71,2,unequal,ST2_low_4_a1,P != T1?,Same,2,1,low,112,1.0,70,1.43,70,1.74,Yes,quiteSure,hit,2.4274842739105225,NA
87,l29up!1,False,72,2,unequal,ST1_high_6_a2,P != T1?,Same,1,2,high,132,0.95,96,1.25,132,1.01,Yes,quiteSure,fa,2.7676680088043213,NA
88,l29up!1,False,73,2,unequal,ST1_high_5_a2,P != T1?,Same,1,2,high,96,1.24,132,0.93,96,1.21,Yes,unsure,fa,4.052879095077515,NA
89,l29up!1,False,74,2,unequal,ST1_low_3_a1,P != T2?,Same,1,1,low,70,1.76,112,1.21,70,1.54,Yes,sure,hit,1.9979658126831055,NA
90,l29up!1,False,75,2,unequal,ST2_high_4_a2,P != T1?,Same,2,2,high,96,1.22,70,1.79,70,1.61,Yes,quiteSure,hit,3.580256938934326,NA
91,l29up!1,False,76,2,unequal,ST2_low_6_a1,P != T1?,Same,2,1,low,154,0.73,96,1.23,96,1.31,Yes,sure,hit,2.0025980472564697,NA
92,l29up!1,False,77,2,unequal,STb_3_a2,P != T2?,Same,0,2,None,82,1.51,82,1.5,82,1.54,No,sure,cr,2.4547667503356934,NA
93,l29up!1,False,78,2,unequal,ST2_low_3_a2,P != T1?,Same,2,2,low,70,1.46,112,1.03,112,1.2,Yes,quiteSure,hit,2.094590902328491,NA
94,l29up!1,False,79,2,unequal,ST1_low_2_a2,P != T2?,Same,1,2,low,132,0.79,82,1.37,132,1.03,Yes,quiteSure,hit,4.115622282028198,NA
95,l29up!1,False,80,2,unequal,ST2_high_4_a1,P != T2?,Same,2,1,high,96,1.34,70,1.55,70,1.63,No,quiteSure,cr,1.7065107822418213,NA
96,l29up!1,False,81,2,unequal,STb_2_a1,P != T2?,Same,0,1,None,70,1.43,70,1.61,70,1.56,No,sure,cr,1.4845292568206787,NA
97,l29up!1,False,82,2,unequal,DT1_low_1_a2,P != T1?,Different,1,2,low,82,1.3,132,0.94,70,1.51,No,sure,cr,2.4292399883270264,NA
98,l29up!1,False,83,2,unequal,ST2_low_5_a1,P != T1?,Same,2,1,low,96,1.32,154,0.91,154,0.73,Yes,sure,hit,1.708723783493042,NA
99,l29up!1,False,84,2,unequal,ST2_high_3_a1,P != T2?,Same,2,1,high,70,1.45,96,1.37,96,1.13,No,quiteSure,cr,1.886409044265747,NA
100,l29up!1,False,85,2,unequal,ST2_high_4_a1,P != T1?,Same,2,1,high,96,1.36,70,1.43,70,1.83,Yes,quiteSure,hit,2.1131701469421387,NA
101,l29up!1,False,86,2,unequal,ST2_high_3_a2,P != T1?,Same,2,2,high,70,1.67,96,1.33,96,1.32,No,quiteSure,miss,1.865248680114746,NA
102,l29up!1,False,87,2,unequal,ST2_low_5_a1,P != T1?,Same,2,1,low,96,1.25,154,0.79,154,0.77,Yes,sure,hit,2.4912142753601074,NA
103,l29up!1,False,88,2,unequal,STb_1_a2,P != T1?,Same,0,2,None,60,1.61,60,1.94,60,1.99,No,quiteSure,cr,2.4907147884368896,NA
104,l29up!1,False,89,2,unequal,ST1_high_5_a1,P != T2?,Same,1,1,high,96,1.13,132,0.86,96,1.28,Yes,quiteSure,hit,1.8237180709838867,NA
105,l29up!1,False,90,2,unequal,ST1_low_4_a2,P != T2?,Same,1,2,low,112,0.93,70,1.73,112,1.09,Yes,quiteSure,hit,1.5496220588684082,NA
106,l29up!1,False,91,2,unequal,ST1_high_4_a2,P != T1?,Same,1,2,high,96,1.17,70,1.74,96,1.25,Yes,sure,fa,2.3158111572265625,NA
107,l29up!1,False,92,2,unequal,ST1_high_3_a1,P != T1?,Same,1,1,high,70,1.54,96,1.34,70,1.72,No,quiteSure,cr,3.9569950103759766,NA
108,l29up!1,False,93,2,unequal,ST1_low_6_a2,P != T1?,Same,1,2,low,154,0.91,96,1.08,154,0.71,No,sure,cr,1.3294501304626465,NA
109,l29up!1,False,94,2,unequal,ST2_low_2_a1,P != T2?,Same,2,1,low,132,0.95,82,1.56,82,1.3,No,quiteSure,cr,1.909754991531372,NA
110,l29up!1,False,95,2,unequal,ST1_low_4_a2,P != T1?,Same,1,2,low,112,1.1,70,1.58,112,0.94,No,sure,cr,1.6884188652038574,NA
111,l29up!1,False,96,2,unequal,ST1_low_1_a1,P != T2?,Same,1,1,low,82,1.31,132,0.99,82,1.22,Yes,sure,hit,1.4389638900756836,NA
112,l29up!1,False,97,2,unequal,ST2_high_4_a2,P != T2?,Same,2,2,high,96,1.27,70,1.42,70,1.55,No,quiteSure,cr,1.8410277366638184,NA
113,l29up!1,False,98,2,unequal,ST2_high_6_a2,P != T2?,Same,2,2,high,132,1.0,96,1.34,96,1.07,No,sure,cr,2.9241809844970703,NA
114,l29up!1,False,99,2,unequal,ST1_low_5_a1,P != T2?,Same,1,1,low,96,1.28,154,0.82,96,1.14,Yes,sure,hit,1.707812786102295,NA
115,l29up!1,False,100,2,unequal,STb_8_a2,P != T2?,Same,0,2,None,180,0.91,180,0.88,180,0.85,No,sure,cr,2.634124755859375,NA
116,l29up!1,False,101,2,unequal,ST2_high_2_a1,P != T1?,Same,2,1,high,112,1.13,82,1.44,82,1.53,Yes,quiteSure,hit,2.609848976135254,NA
117,l29up!1,False,102,2,unequal,ST1_high_5_a1,P != T2?,Same,1,1,high,96,1.34,132,0.9,96,1.11,No,sure,miss,2.070604085922241,NA
118,l29up!1,False,103,2,unequal,ST1_high_1_a1,P != T2?,Same,1,1,high,82,1.56,112,1.01,82,1.46,No,sure,miss,1.8870439529418945,NA
119,l29up!1,False,104,2,unequal,ST2_high_1_a1,P != T1?,Same,2,1,high,82,1.3,112,1.18,112,1.03,Yes,sure,hit,2.426766872406006,NA
120,l29up!1,False,105,2,unequal,ST1_low_6_a1,P != T1?,Same,1,1,low,154,0.95,96,1.34,154,0.95,No,sure,cr,1.934035062789917,NA
121,l29up!1,False,106,2,unequal,ST2_high_2_a1,P != T1?,Same,2,1,high,112,0.93,82,1.58,82,1.43,Yes,sure,hit,2.2063090801239014,NA
122,l29up!1,False,107,2,unequal,ST2_high_3_a2,P != T1?,Same,2,2,high,70,1.63,96,1.3,96,1.12,Yes,sure,hit,1.7747321128845215,NA
123,l29up!1,False,108,2,unequal,ST2_low_6_a1,P != T2?,Same,2,1,low,154,0.9,96,1.29,96,1.13,No,sure,cr,2.0516390800476074,NA
124,l29up!1,False,109,2,unequal,ST1_low_3_a1,P != T1?,Same,1,1,low,70,1.8,112,1.21,70,1.68,No,sure,cr,3.0361452102661133,NA
125,l29up!1,False,110,2,unequal,ST1_high_6_a1,P != T2?,Same,1,1,high,132,0.88,96,1.33,132,0.85,Yes,sure,hit,1.7085089683532715,NA
126,l29up!1,False,111,2,unequal,STb_2_a1,P != T1?,Same,0,1,None,70,1.46,70,1.39,70,1.58,Yes,quiteSure,fa,3.0265018939971924,NA
127,l29up!1,False,112,2,unequal,ST1_high_3_a2,P != T2?,Same,1,2,high,70,1.57,96,1.14,70,1.57,Yes,quiteSure,hit,1.815783977508545,NA
128,l29up!1,False,113,2,unequal,ST1_high_4_a2,P != T2?,Same,1,2,high,96,1.15,70,1.78,96,1.27,Yes,quiteSure,hit,1.684156894683838,NA
129,l29up!1,False,114,2,unequal,ST2_low_5_a2,P != T1?,Same,2,2,low,96,1.19,154,0.93,154,0.8,Yes,sure,hit,1.6602120399475098,NA
130,l29up!1,False,115,2,unequal,ST2_high_6_a2,P != T2?,Same,2,2,high,132,0.95,96,1.18,96,1.15,No,quiteSure,cr,1.777278184890747,NA
131,l29up!1,False,116,2,unequal,ST1_low_1_a2,P != T1?,Same,1,2,low,82,1.47,132,0.82,82,1.29,No,quiteSure,cr,2.066859006881714,NA
132,l29up!1,False,117,2,unequal,ST2_high_3_a2,P != T2?,Same,2,2,high,70,1.53,96,1.24,96,1.15,No,sure,cr,1.7282741069793701,NA
133,l29up!1,False,118,2,unequal,ST2_low_3_a1,P != T1?,Same,2,1,low,70,1.7,112,0.96,112,1.08,Yes,sure,hit,2.0019211769104004,NA
134,l29up!1,False,119,2,unequal,ST1_low_4_a1,P != T2?,Same,1,1,low,112,1.06,70,1.62,112,1.11,Yes,sure,hit,1.6844806671142578,NA
135,l29up!1,False,120,2,unequal,ST1_high_2_a1,P != T1?,Same,1,1,high,112,1.17,82,1.58,112,1.22,No,quiteSure,cr,2.54278302192688,NA
136,l29up!1,False,121,2,unequal,ST2_low_4_a1,P != T1?,Same,2,1,low,112,1.11,70,1.47,70,1.4,Yes,sure,hit,1.7795708179473877,NA
137,l29up!1,False,122,2,unequal,ST2_high_6_a1,P != T2?,Same,2,1,high,132,1.06,96,1.34,96,1.32,No,unsure,cr,4.4657440185546875,NA
138,l29up!1,False,123,2,unequal,ST1_high_4_a2,P != T1?,Same,1,2,high,96,1.14,70,1.53,96,1.33,No,unsure,cr,2.7627110481262207,NA
139,l29up!1,False,124,2,unequal,ST1_low_2_a2,P != T1?,Same,1,2,low,132,0.94,82,1.62,132,0.79,No,quiteSure,cr,3.1010091304779053,NA
140,l29up!1,False,125,2,unequal,ST1_high_6_a2,P != T2?,Same,1,2,high,132,0.87,96,1.27,132,0.96,Yes,quiteSure,hit,1.6825768947601318,NA
141,l29up!1,False,126,2,unequal,ST1_high_2_a2,P != T2?,Same,1,2,high,112,1.12,82,1.43,112,1.0,Yes,sure,hit,1.6201229095458984,NA
142,l29up!1,False,127,2,unequal,ST2_high_5_a2,P != T2?,Same,2,2,high,96,1.12,132,0.82,132,0.96,No,quiteSure,cr,1.7297561168670654,NA
143,l29up!1,False,128,2,unequal,ST1_high_2_a2,P != T2?,Same,1,2,high,112,1.06,82,1.51,112,0.98,Yes,sure,hit,1.6629400253295898,NA
144,l29up!1,False,129,2,unequal,ST1_high_3_a2,P != T1?,Same,1,2,high,70,1.48,96,1.15,70,1.72,Yes,quiteSure,fa,3.151045083999634,NA
145,l29up!1,False,130,2,unequal,ST2_high_1_a2,P != T1?,Same,2,2,high,82,1.58,112,1.21,112,1.23,Yes,sure,hit,1.462602138519287,NA
146,l29up!1,False,131,2,unequal,ST2_high_5_a1,P != T1?,Same,2,1,high,96,1.02,132,0.9,132,0.88,Yes,quiteSure,hit,1.4376978874206543,NA
147,l29up!1,False,132,2,unequal,ST1_high_6_a2,P != T1?,Same,1,2,high,132,0.88,96,1.27,132,0.8,No,quiteSure,cr,2.4470770359039307,NA
148,l29up!1,False,133,2,unequal,ST2_low_3_a2,P != T2?,Same,2,2,low,70,1.62,112,1.0,112,0.95,No,quiteSure,cr,1.6192882061004639,NA
149,l29up!1,False,134,2,unequal,ST1_high_1_a1,P != T2?,Same,1,1,high,82,1.2,112,1.19,82,1.41,No,unsure,miss,2.2026071548461914,NA
150,l29up!1,False,135,2,unequal,ST1_low_1_a1,P != T2?,Same,1,1,low,82,1.47,132,1.0,82,1.35,Yes,sure,hit,2.0907199382781982,NA
151,l29up!1,False,136,2,unequal,ST2_high_4_a2,P != T1?,Same,2,2,high,96,1.38,70,1.42,70,1.59,No,quiteSure,miss,2.135852098464966,NA
152,l29up!1,False,137,2,unequal,ST2_high_3_a1,P != T2?,Same,2,1,high,70,1.8,96,1.4,96,1.28,No,sure,cr,2.83339786529541,NA
153,l29up!1,False,138,2,unequal,DT2_high_1_a1,P != T2?,Different,2,1,high,82,1.39,112,1.14,132,0.79,No,quiteSure,cr,1.8186140060424805,NA
154,l29up!1,False,139,2,unequal,ST2_low_4_a2,P != T2?,Same,2,2,low,112,1.01,70,1.65,70,1.42,No,quiteSure,cr,1.843230962753296,NA
155,l29up!1,False,140,2,unequal,ST2_low_1_a2,P != T2?,Same,2,2,low,82,1.49,132,0.96,132,0.93,No,sure,cr,1.5913050174713135,NA
156,l29up!1,False,141,2,unequal,ST1_high_1_a2,P != T1?,Same,1,2,high,82,1.25,112,0.95,82,1.39,No,quiteSure,cr,1.6202409267425537,NA
157,l29up!1,False,142,2,unequal,ST2_low_4_a1,P != T2?,Same,2,1,low,112,1.22,70,1.48,70,1.39,No,quiteSure,cr,1.6374599933624268,NA
158,l29up!1,False,143,2,unequal,ST1_low_5_a1,P != T1?,Same,1,1,low,96,1.07,154,0.78,96,1.39,No,sure,cr,4.676564931869507,NA
159,l29up!1,False,144,2,unequal,ST2_high_6_a1,P != T2?,Same,2,1,high,132,1.05,96,1.25,96,1.32,No,quiteSure,cr,1.5501470565795898,NA
160,l29up!1,False,145,2,unequal,ST2_low_2_a2,P != T1?,Same,2,2,low,132,0.95,82,1.62,82,1.24,Yes,sure,hit,1.755162239074707,NA
161,l29up!1,False,146,2,unequal,ST2_high_4_a2,P != T1?,Same,2,2,high,96,1.26,70,1.48,70,1.61,Yes,quiteSure,hit,1.6669411659240723,NA
162,l29up!1,False,147,2,unequal,DT1_low_3_a1,P != T2?,Different,1,1,low,70,1.78,112,1.14,60,1.99,Yes,sure,hit,1.619521141052246,NA
163,l29up!1,False,148,2,unequal,ST1_high_1_a2,P != T2?,Same,1,2,high,82,1.46,112,0.91,82,1.56,Yes,sure,hit,3.5980043411254883,NA
164,l29up!1,False,149,2,unequal,ST1_low_3_a1,P != T1?,Same,1,1,low,70,1.6,112,1.05,70,1.66,No,unsure,cr,3.978677988052368,NA
165,l29up!1,False,150,2,unequal,ST2_high_5_a1,P != T2?,Same,2,1,high,96,1.4,132,0.84,132,1.0,No,quiteSure,cr,2.0237879753112793,NA
166,l29up!1,False,151,2,unequal,ST2_high_6_a2,P != T1?,Same,2,2,high,132,0.87,96,1.21,96,1.32,No,quiteSure,miss,3.235304832458496,NA
167,l29up!1,False,152,2,unequal,ST1_high_3_a1,P != T2?,Same,1,1,high,70,1.68,96,1.37,70,1.56,Yes,unsure,hit,1.6384382247924805,NA
168,l29up!1,False,153,2,unequal,ST2_low_4_a2,P != T2?,Same,2,2,low,112,1.18,70,1.76,70,1.77,No,quiteSure,cr,1.846592903137207,NA
169,l29up!1,False,154,2,unequal,ST2_low_1_a1,P != T1?,Same,2,1,low,82,1.27,132,0.91,132,0.89,Yes,sure,hit,1.6621098518371582,NA
170,l29up!1,False,155,2,unequal,ST1_high_3_a1,P != T2?,Same,1,1,high,70,1.8,96,1.29,70,1.6,No,quiteSure,miss,2.901963949203491,NA
171,l29up!1,False,156,2,unequal,ST1_high_4_a1,P != T1?,Same,1,1,high,96,1.3,70,1.42,96,1.42,Yes,quiteSure,fa,4.739321947097778,NA
172,l29up!1,False,157,2,unequal,ST2_low_4_a1,P != T2?,Same,2,1,low,112,1.13,70,1.58,70,1.48,No,sure,cr,1.7057831287384033,NA
173,l29up!1,False,158,2,unequal,ST1_low_6_a1,P != T2?,Same,1,1,low,154,0.75,96,1.19,154,0.72,Yes,sure,hit,1.7498748302459717,NA
174,l29up!1,False,159,2,unequal,ST2_high_3_a2,P != T2?,Same,2,2,high,70,1.51,96,1.14,96,1.48,No,quiteSure,cr,3.6442618370056152,NA
175,l29up!1,False,160,2,unequal,ST2_low_2_a2,P != T1?,Same,2,2,low,132,1.02,82,1.63,82,1.42,Yes,sure,hit,1.4825780391693115,NA
176,l29up!1,False,161,2,unequal,ST1_low_6_a1,P != T1?,Same,1,1,low,154,0.89,96,1.07,154,0.79,No,sure,cr,1.7118940353393555,NA
177,l29up!1,False,162,2,unequal,ST2_low_3_a2,P != T2?,Same,2,2,low,70,1.77,112,1.01,112,0.92,No,sure,cr,1.7340052127838135,NA
178,l29up!1,False,163,2,unequal,ST2_high_4_a1,P != T2?,Same,2,1,high,96,1.25,70,1.46,70,1.83,No,sure,cr,4.743032693862915,NA
179,l29up!1,False,164,2,unequal,ST1_high_6_a1,P != T1?,Same,1,1,high,132,1.01,96,1.22,132,0.85,No,quiteSure,cr,1.3952357769012451,NA
180,l29up!1,False,165,2,unequal,ST2_high_5_a2,P != T1?,Same,2,2,high,96,1.23,132,0.94,132,1.01,Yes,sure,hit,1.5950047969818115,NA
181,l29up!1,False,166,2,unequal,ST1_low_5_a1,P != T2?,Same,1,1,low,96,1.37,154,0.75,96,1.23,No,quiteSure,miss,2.805466890335083,NA
182,l29up!1,False,167,2,unequal,ST2_low_1_a1,P != T2?,Same,2,1,low,82,1.3,132,1.03,132,1.01,No,sure,cr,1.7743492126464844,NA
183,l29up!1,False,168,2,unequal,DT1_high_5_a2,P != T1?,Different,1,2,high,96,1.28,132,0.99,82,1.62,No,quiteSure,cr,2.2236621379852295,NA
184,l29up!1,False,169,2,unequal,ST2_high_5_a2,P != T2?,Same,2,2,high,96,1.13,132,0.81,132,0.98,No,quiteSure,cr,1.5746939182281494,NA
185,l29up!1,False,170,2,unequal,STb_8_a1,P != T2?,Same,0,1,None,180,0.88,180,0.86,180,0.94,No,sure,cr,1.4634029865264893,NA
186,l29up!1,False,171,2,unequal,DT2_high_1_a2,P != T2?,Different,2,2,high,82,1.56,112,0.99,132,0.91,No,quiteSure,cr,1.8668370246887207,NA
187,l29up!1,False,172,2,unequal,DT2_low_5_a1,P != T2?,Different,2,1,low,96,1.14,154,0.93,180,0.76,No,sure,cr,1.6633639335632324,NA
188,l29up!1,False,173,2,unequal,ST1_high_3_a2,P != T2?,Same,1,2,high,70,1.52,96,1.29,70,1.65,Yes,unsure,hit,1.7320561408996582,NA
189,l29up!1,False,174,2,unequal,DT1_low_5_a1,P != T1?,Different,1,1,low,96,1.2,154,0.83,82,1.38,No,unsure,cr,6.187873125076294,NA
190,l29up!1,False,175,2,unequal,ST1_low_2_a1,P != T2?,Same,1,1,low,132,0.96,82,1.28,132,1.02,Yes,sure,hit,1.9801580905914307,NA
191,l29up!1,False,176,2,unequal,ST2_low_6_a2,P != T1?,Same,2,2,low,154,0.96,96,1.2,96,1.08,Yes,sure,hit,1.4399960041046143,NA
192,l29up!1,False,177,2,unequal,ST1_high_5_a1,P != T1?,Same,1,1,high,96,1.23,132,1.05,96,1.11,No,quiteSure,cr,3.418144941329956,NA
193,l29up!1,False,178,2,unequal,ST1_low_5_a2,P != T2?,Same,1,2,low,96,1.19,154,0.93,96,1.28,Yes,sure,hit,1.3706707954406738,NA
194,l29up!1,False,179,2,unequal,ST2_high_6_a1,P != T1?,Same,2,1,high,132,0.87,96,1.29,96,1.26,No,quiteSure,miss,3.258333206176758,NA
195,l29up!1,False,180,2,unequal,ST2_high_3_a2,P != T1?,Same,2,2,high,70,1.41,96,1.07,96,1.42,Yes,sure,hit,1.3450989723205566,NA
196,l29up!1,False,181,2,unequal,ST2_low_1_a2,P != T1?,Same,2,2,low,82,1.49,132,0.96,132,0.87,Yes,sure,hit,2.18192195892334,NA
197,l29up!1,False,182,2,unequal,ST2_high_1_a2,P != T1?,Same,2,2,high,82,1.43,112,1.16,112,0.96,Yes,sure,hit,1.7060792446136475,NA
198,l29up!1,False,183,2,unequal,ST1_high_5_a2,P != T2?,Same,1,2,high,96,1.07,132,1.04,96,1.4,Yes,sure,hit,1.2785489559173584,NA
199,l29up!1,False,184,2,unequal,ST1_low_6_a2,P != T1?,Same,1,2,low,154,0.94,96,1.23,154,0.82,No,sure,cr,1.7803189754486084,NA
200,l29up!1,False,185,2,unequal,ST2_high_1_a1,P != T2?,Same,2,1,high,82,1.54,112,1.18,112,1.1,No,quiteSure,cr,1.4819509983062744,NA
201,l29up!1,False,186,2,unequal,ST2_low_6_a2,P != T2?,Same,2,2,low,154,0.92,96,1.39,96,1.18,No,quiteSure,cr,1.3904681205749512,NA
202,l29up!1,False,187,2,unequal,ST1_high_5_a1,P != T2?,Same,1,1,high,96,1.23,132,0.96,96,1.26,Yes,sure,hit,1.61726713180542,NA
203,l29up!1,False,188,2,unequal,ST2_low_3_a2,P != T2?,Same,2,2,low,70,1.74,112,0.94,112,1.17,No,unsure,cr,1.6404221057891846,NA
204,l29up!1,False,189,2,unequal,ST2_high_3_a2,P != T2?,Same,2,2,high,70,1.52,96,1.23,96,1.39,No,quiteSure,cr,2.270235300064087,NA
205,l29up!1,False,190,2,unequal,ST1_low_2_a1,P != T1?,Same,1,1,low,132,0.85,82,1.3,132,0.8,No,quiteSure,cr,2.988149881362915,NA
206,l29up!1,False,191,2,unequal,ST1_high_5_a2,P != T2?,Same,1,2,high,96,1.03,132,0.98,96,1.39,Yes,quiteSure,hit,1.4126002788543701,NA
207,l29up!1,False,192,2,unequal,ST2_high_2_a2,P != T1?,Same,2,2,high,112,1.07,82,1.26,82,1.5,Yes,quiteSure,hit,1.414057970046997,NA
208,l29up!1,False,193,2,unequal,ST1_low_3_a2,P != T2?,Same,1,2,low,70,1.79,112,1.18,70,1.81,Yes,quiteSure,hit,2.7421350479125977,NA
209,l29up!1,False,194,2,unequal,ST1_low_5_a2,P != T2?,Same,1,2,low,96,1.12,154,0.84,96,1.28,Yes,sure,hit,1.1467351913452148,NA
210,l29up!1,False,195,2,unequal,ST2_high_5_a1,P != T1?,Same,2,1,high,96,1.28,132,0.84,132,0.88,Yes,sure,hit,1.4152302742004395,NA
211,l29up!1,False,196,2,unequal,ST1_low_5_a2,P != T1?,Same,1,2,low,96,1.26,154,0.94,96,1.06,No,quiteSure,cr,2.297598123550415,NA
212,l29up!1,False,197,2,unequal,ST1_low_2_a2,P != T2?,Same,1,2,low,132,1.01,82,1.54,132,0.92,Yes,sure,hit,1.3052599430084229,NA
213,l29up!1,False,198,2,unequal,ST1_high_4_a1,P != T2?,Same,1,1,high,96,1.38,70,1.56,96,1.43,Yes,sure,hit,1.326153039932251,NA
214,l29up!1,False,199,2,unequal,ST2_low_2_a2,P != T2?,Same,2,2,low,132,0.94,82,1.58,82,1.44,No,quiteSure,cr,1.6654717922210693,NA
215,l29up!1,False,200,2,unequal,ST2_high_6_a2,P != T1?,Same,2,2,high,132,0.88,96,1.25,96,1.2,No,quiteSure,miss,2.761047124862671,NA
216,l29up!1,False,201,2,unequal,STb_2_a2,P != T2?,Same,0,2,None,70,1.82,70,1.62,70,1.76,No,sure,cr,1.3013739585876465,NA
217,l29up!1,False,202,2,unequal,STb_5_a2,P != T1?,Same,0,2,None,112,0.98,112,1.2,112,1.1,No,sure,cr,1.2385690212249756,NA
218,l29up!1,False,203,2,unequal,STb_4_a2,P != T1?,Same,0,2,None,96,1.42,96,1.08,96,1.2,No,sure,cr,1.1909470558166504,NA
219,l29up!1,False,204,2,unequal,ST2_low_4_a1,P != T2?,Same,2,1,low,112,1.12,70,1.69,70,1.81,No,quiteSure,cr,1.645508050918579,NA
220,l29up!1,False,205,2,unequal,ST2_high_1_a1,P != T1?,Same,2,1,high,82,1.63,112,1.05,112,0.94,Yes,sure,hit,2.945045232772827,NA
221,l29up!1,False,206,2,unequal,DT2_low_6_a1,P != T1?,Different,2,1,low,154,0.71,96,1.26,82,1.24,Yes,quiteSure,hit,2.450606107711792,NA
222,l29up!1,False,207,2,unequal,ST2_high_2_a1,P != T2?,Same,2,1,high,112,1.12,82,1.42,82,1.53,No,quiteSure,cr,1.5035531520843506,NA
223,l29up!1,False,208,2,unequal,ST1_low_5_a2,P != T2?,Same,1,2,low,96,1.25,154,0.92,96,1.25,Yes,sure,hit,1.5721831321716309,NA
224,l29up!1,False,209,2,unequal,ST2_high_2_a2,P != T2?,Same,2,2,high,112,1.08,82,1.44,82,1.27,No,quiteSure,cr,1.8427650928497314,NA
225,l29up!1,False,210,2,unequal,ST2_high_2_a1,P != T1?,Same,2,1,high,112,0.93,82,1.27,82,1.46,Yes,unsure,hit,2.7864770889282227,NA
226,l29up!1,False,211,2,unequal,ST1_low_5_a2,P != T1?,Same,1,2,low,96,1.38,154,0.86,96,1.27,No,quiteSure,cr,1.7999651432037354,NA
227,l29up!1,False,212,2,unequal,STb_3_a2,P != T1?,Same,0,2,None,82,1.32,82,1.32,82,1.42,Yes,unsure,fa,4.068619966506958,NA
228,l29up!1,False,213,2,unequal,ST1_high_4_a1,P != T1?,Same,1,1,high,96,1.34,70,1.59,96,1.09,No,unsure,cr,2.4532830715179443,NA
229,l29up!1,False,214,2,unequal,ST2_low_5_a1,P != T1?,Same,2,1,low,96,1.36,154,0.77,154,0.77,Yes,sure,hit,2.1782658100128174,NA
230,l29up!1,False,215,2,unequal,ST2_low_5_a2,P != T1?,Same,2,2,low,96,1.16,154,0.88,154,0.91,Yes,sure,hit,2.902880907058716,NA
231,l29up!1,False,216,2,unequal,ST1_high_3_a1,P != T2?,Same,1,1,high,70,1.58,96,1.29,70,1.59,No,quiteSure,miss,1.9753520488739014,NA
232,l29up!1,False,217,2,unequal,ST1_high_1_a2,P != T1?,Same,1,2,high,82,1.26,112,1.22,82,1.48,No,quiteSure,cr,1.70633864402771,NA
233,l29up!1,False,218,2,unequal,ST2_low_6_a2,P != T2?,Same,2,2,low,154,0.9,96,1.2,96,1.18,No,sure,cr,1.644056797027588,NA
234,l29up!1,False,219,2,unequal,ST1_high_2_a1,P != T2?,Same,1,1,high,112,0.97,82,1.42,112,0.94,Yes,sure,hit,2.879925012588501,NA
235,l29up!1,False,220,2,unequal,DT1_low_3_a2,P != T2?,Different,1,2,low,70,1.76,112,0.96,60,1.7,Yes,sure,hit,1.5731682777404785,NA
236,l29up!1,False,221,2,unequal,ST1_low_4_a2,P != T2?,Same,1,2,low,112,1.04,70,1.82,112,1.23,Yes,sure,hit,1.5548818111419678,NA
237,l29up!1,False,222,2,unequal,ST2_high_3_a1,P != T1?,Same,2,1,high,70,1.74,96,1.36,96,1.1,No,sure,miss,1.2817931175231934,NA
238,l29up!1,False,223,2,unequal,ST1_low_6_a2,P != T2?,Same,1,2,low,154,0.92,96,1.3,154,0.9,Yes,sure,hit,2.3765411376953125,NA
239,l29up!1,False,224,2,unequal,ST2_low_1_a1,P != T2?,Same,2,1,low,82,1.23,132,0.89,132,0.96,No,sure,cr,1.5933630466461182,NA
240,l29up!1,False,225,2,unequal,ST1_low_2_a1,P != T2?,Same,1,1,low,132,0.93,82,1.6,132,1.04,Yes,sure,hit,2.3638880252838135,NA
241,l29up!1,False,226,2,unequal,DT1_low_2_a1,P != T2?,Different,1,1,low,132,0.91,82,1.61,154,0.87,Yes,sure,hit,1.326258897781372,NA
242,l29up!1,False,227,2,unequal,ST1_high_2_a2,P != T2?,Same,1,2,high,112,1.18,82,1.36,112,0.92,Yes,sure,hit,2.2501060962677,NA
243,l29up!1,False,228,2,unequal,ST1_high_6_a1,P != T2?,Same,1,1,high,132,0.85,96,1.08,132,0.84,Yes,sure,hit,4.091814279556274,NA
244,l29up!1,False,229,2,unequal,DT1_high_3_a2,P != T1?,Different,1,2,high,70,1.83,96,1.12,60,1.61,No,quiteSure,cr,2.2226390838623047,NA
245,l29up!1,False,230,2,unequal,STb_4_a1,P != T1?,Same,0,1,None,96,1.18,96,1.12,96,1.26,No,quiteSure,cr,1.8433680534362793,NA
246,l29up!1,False,231,2,unequal,ST2_high_5_a2,P != T1?,Same,2,2,high,96,1.32,132,0.83,132,1.01,Yes,quiteSure,hit,1.6640031337738037,NA
247,l29up!1,False,232,2,unequal,ST1_high_5_a2,P != T2?,Same,1,2,high,96,1.19,132,0.93,96,1.34,Yes,quiteSure,hit,1.5726408958435059,NA
248,l29up!1,False,233,2,unequal,ST1_high_6_a1,P != T1?,Same,1,1,high,132,1.06,96,1.26,132,0.98,No,quiteSure,cr,6.299903154373169,NA
249,l29up!1,False,234,2,unequal,ST2_high_1_a2,P != T2?,Same,2,2,high,82,1.61,112,1.22,112,1.05,No,quiteSure,cr,1.9043381214141846,NA
250,l29up!1,False,235,2,unequal,ST1_low_2_a1,P != T2?,Same,1,1,low,132,0.97,82,1.55,132,0.79,Yes,sure,hit,1.3065369129180908,NA
251,l29up!1,False,236,2,unequal,ST2_low_3_a1,P != T1?,Same,2,1,low,70,1.37,112,1.07,112,0.92,No,unsure,miss,4.3351991176605225,NA
252,l29up!1,False,237,2,unequal,ST1_high_5_a1,P != T1?,Same,1,1,high,96,1.39,132,0.82,96,1.16,No,unsure,cr,3.1718151569366455,NA
253,l29up!1,False,238,2,unequal,ST2_low_4_a2,P != T1?,Same,2,2,low,112,1.17,70,1.5,70,1.77,Yes,quiteSure,hit,1.8853859901428223,NA
254,l29up!1,False,239,2,unequal,ST1_low_3_a2,P != T1?,Same,1,2,low,70,1.7,112,1.17,70,1.57,No,quiteSure,cr,1.504615068435669,NA
255,l29up!1,False,240,2,unequal,ST2_high_6_a1,P != T1?,Same,2,1,high,132,1.04,96,1.29,96,1.1,No,quiteSure,miss,1.574397087097168,NA
256,l29up!1,False,241,2,unequal,ST2_low_6_a1,P != T2?,Same,2,1,low,154,0.72,96,1.1,96,1.32,No,sure,cr,2.3408639430999756,NA
257,l29up!1,False,242,2,unequal,ST2_high_4_a1,P != T1?,Same,2,1,high,96,1.16,70,1.57,70,1.69,Yes,quiteSure,hit,2.2946157455444336,NA
258,l29up!1,False,243,2,unequal,ST2_low_2_a2,P != T1?,Same,2,2,low,132,0.85,82,1.55,82,1.34,Yes,sure,hit,1.234868049621582,NA
259,l29up!1,False,244,2,unequal,ST2_high_4_a2,P != T2?,Same,2,2,high,96,1.2,70,1.74,70,1.69,No,quiteSure,cr,1.907926082611084,NA
260,l29up!1,False,245,2,unequal,ST2_high_2_a2,P != T2?,Same,2,2,high,112,1.09,82,1.58,82,1.58,No,quiteSure,cr,1.462528944015503,NA
261,l29up!1,False,246,2,unequal,ST1_high_3_a2,P != T1?,Same,1,2,high,70,1.49,96,1.19,70,1.68,Yes,quiteSure,fa,1.5949680805206299,NA
262,l29up!1,False,247,2,unequal,DT1_high_3_a2,P != T2?,Different,1,2,high,70,1.51,96,1.39,60,1.6,Yes,sure,hit,1.2618110179901123,NA
263,l29up!1,False,248,2,unequal,ST1_high_1_a2,P != T1?,Same,1,2,high,82,1.27,112,1.05,82,1.61,Yes,sure,fa,1.6185977458953857,NA
264,l29up!1,False,249,2,unequal,ST2_low_3_a1,P != T2?,Same,2,1,low,70,1.53,112,1.15,112,1.0,No,sure,cr,1.8502581119537354,NA
265,l29up!1,False,250,2,unequal,ST1_low_1_a2,P != T2?,Same,1,2,low,82,1.5,132,0.97,82,1.38,Yes,sure,hit,1.502554178237915,NA
266,l29up!1,False,251,2,unequal,ST2_low_5_a2,P != T1?,Same,2,2,low,96,1.18,154,0.75,154,0.84,Yes,unsure,hit,1.9340729713439941,NA
267,l29up!1,False,252,2,unequal,ST1_low_1_a1,P != T1?,Same,1,1,low,82,1.24,132,1.05,82,1.46,No,quiteSure,cr,2.0868310928344727,NA
268,l29up!1,False,253,2,unequal,ST2_low_3_a1,P != T2?,Same,2,1,low,70,1.45,112,1.18,112,1.04,No,quiteSure,cr,2.788851022720337,NA
269,l29up!1,False,254,2,unequal,ST1_high_1_a2,P != T2?,Same,1,2,high,82,1.61,112,0.96,82,1.41,Yes,quiteSure,hit,1.2600507736206055,NA
270,l29up!1,False,255,2,unequal,ST2_high_1_a1,P != T2?,Same,2,1,high,82,1.31,112,1.12,112,0.92,Yes,unsure,fa,5.314542770385742,NA
271,l29up!1,False,256,2,unequal,ST1_low_6_a1,P != T1?,Same,1,1,low,154,0.93,96,1.18,154,0.71,No,sure,cr,1.9577457904815674,NA
272,l29up!1,False,257,2,unequal,ST1_low_4_a1,P != T1?,Same,1,1,low,112,1.13,70,1.51,112,0.97,No,quiteSure,cr,2.0904948711395264,NA
273,l29up!1,False,258,2,unequal,ST2_low_3_a1,P != T1?,Same,2,1,low,70,1.6,112,1.01,112,1.12,No,quiteSure,miss,1.6220862865447998,NA
274,l29up!1,False,259,2,unequal,ST2_high_1_a1,P != T1?,Same,2,1,high,82,1.31,112,1.03,112,1.16,Yes,sure,hit,2.7397239208221436,NA
275,l29up!1,False,260,2,unequal,ST2_high_1_a2,P != T2?,Same,2,2,high,82,1.35,112,1.11,112,0.93,No,quiteSure,cr,1.7319519519805908,NA
276,l29up!1,False,261,2,unequal,ST2_low_6_a1,P != T1?,Same,2,1,low,154,0.88,96,1.16,96,1.4,Yes,sure,hit,1.7768738269805908,NA
277,l29up!1,False,262,2,unequal,ST1_low_2_a2,P != T1?,Same,1,2,low,132,1.02,82,1.61,132,1.0,No,quiteSure,cr,2.7436351776123047,NA
278,l29up!1,False,263,2,unequal,ST2_high_5_a1,P != T1?,Same,2,1,high,96,1.36,132,0.98,132,1.02,Yes,sure,hit,1.6408801078796387,NA
279,l29up!1,False,264,2,unequal,ST2_high_2_a1,P != T2?,Same,2,1,high,112,0.94,82,1.52,82,1.52,No,quiteSure,cr,1.9339158535003662,NA
280,l29up!1,False,265,2,unequal,ST1_low_4_a1,P != T2?,Same,1,1,low,112,1.18,70,1.4,112,1.21,No,quiteSure,miss,2.8597939014434814,NA
281,l29up!1,False,266,2,unequal,DT2_high_4_a1,P != T1?,Different,2,1,high,96,1.32,70,1.51,60,1.86,No,quiteSure,miss,1.6405613422393799,NA
282,l29up!1,False,267,2,unequal,ST2_high_2_a2,P != T1?,Same,2,2,high,112,1.08,82,1.62,82,1.26,Yes,quiteSure,hit,2.430767774581909,NA
283,l29up!1,False,268,2,unequal,ST2_low_6_a1,P != T1?,Same,2,1,low,154,0.83,96,1.41,96,1.3,No,sure,miss,1.3067340850830078,NA
284,l29up!1,False,269,2,unequal,ST1_low_5_a1,P != T2?,Same,1,1,low,96,1.17,154,0.82,96,1.37,No,sure,miss,1.8183770179748535,NA
285,l29up!1,False,270,2,unequal,ST1_low_6_a1,P != T2?,Same,1,1,low,154,0.9,96,1.3,154,0.78,Yes,sure,hit,1.4839510917663574,NA
286,l29up!1,False,271,2,unequal,ST1_low_5_a2,P != T1?,Same,1,2,low,96,1.22,154,0.94,96,1.16,No,quiteSure,cr,1.6865010261535645,NA
287,l29up!1,False,272,2,unequal,ST1_high_4_a1,P != T1?,Same,1,1,high,96,1.31,70,1.66,96,1.36,No,quiteSure,cr,1.012153148651123,NA
288,l29up!1,False,273,2,unequal,ST1_low_3_a2,P != T1?,Same,1,2,low,70,1.8,112,1.07,70,1.61,No,quiteSure,cr,1.3970439434051514,NA
289,l29up!1,False,274,2,unequal,ST1_high_6_a2,P != T1?,Same,1,2,high,132,0.91,96,1.08,132,0.91,No,sure,cr,1.414708137512207,NA
290,l29up!1,False,275,2,unequal,ST2_low_2_a1,P != T2?,Same,2,1,low,132,0.92,82,1.32,82,1.28,No,sure,cr,1.411100149154663,NA
291,l29up!1,False,276,2,unequal,ST1_low_5_a1,P != T1?,Same,1,1,low,96,1.12,154,0.94,96,1.09,No,unsure,cr,3.2135608196258545,NA
292,l29up!1,False,277,2,unequal,ST2_high_3_a1,P != T2?,Same,2,1,high,70,1.66,96,1.43,96,1.32,No,quiteSure,cr,3.842695951461792,NA
293,l29up!1,False,278,2,unequal,ST1_low_4_a1,P != T2?,Same,1,1,low,112,0.91,70,1.71,112,0.92,Yes,quiteSure,hit,4.115311145782471,NA
294,l29up!1,False,279,2,unequal,ST1_high_4_a1,P != T2?,Same,1,1,high,96,1.13,70,1.47,96,1.29,Yes,quiteSure,hit,1.3728909492492676,NA
295,l29up!1,False,280,2,unequal,ST1_high_2_a2,P != T1?,Same,1,2,high,112,0.93,82,1.53,112,1.04,No,sure,cr,1.4406211376190186,NA
296,l29up!1,False,281,2,unequal,ST1_high_1_a1,P != T1?,Same,1,1,high,82,1.35,112,1.06,82,1.27,No,unsure,cr,5.781955003738403,NA
297,l29up!1,False,282,2,unequal,ST2_low_5_a2,P != T2?,Same,2,2,low,96,1.27,154,0.92,154,0.88,No,sure,cr,1.61903715133667,NA
298,l29up!1,False,283,2,unequal,ST1_low_2_a2,P != T2?,Same,1,2,low,132,0.79,82,1.49,132,1.03,Yes,sure,hit,2.0261218547821045,NA
299,l29up!1,False,284,2,unequal,ST2_low_2_a2,P != T2?,Same,2,2,low,132,1.01,82,1.51,82,1.39,No,sure,cr,2.0031309127807617,NA
300,l29up!1,False,285,2,unequal,ST1_low_1_a2,P != T1?,Same,1,2,low,82,1.25,132,0.86,82,1.52,Yes,unsure,fa,3.392388105392456,NA
301,l29up!1,False,286,2,unequal,ST2_low_1_a1,P != T1?,Same,2,1,low,82,1.55,132,0.79,132,0.93,Yes,sure,hit,1.5689852237701416,NA
302,l29up!1,False,287,2,unequal,ST1_low_3_a1,P != T2?,Same,1,1,low,70,1.64,112,1.14,70,1.67,Yes,sure,hit,1.1438701152801514,NA
303,l29up!1,False,288,2,unequal,ST1_high_6_a2,P != T2?,Same,1,2,high,132,0.8,96,1.23,132,0.97,Yes,unsure,hit,1.9328148365020752,NA
304,l29up!1,False,289,2,unequal,STb_1_a1,P != T2?,Same,0,1,None,60,1.92,60,1.78,60,1.71,No,sure,cr,2.682387351989746,NA
305,l29up!1,False,290,2,unequal,ST1_low_4_a2,P != T1?,Same,1,2,low,112,1.04,70,1.4,112,1.17,No,quiteSure,cr,1.8620219230651855,NA
306,l29up!1,False,291,2,unequal,ST2_high_3_a1,P != T1?,Same,2,1,high,70,1.51,96,1.06,96,1.3,Yes,sure,hit,2.4739580154418945,NA
307,l29up!1,False,292,2,unequal,ST2_high_2_a1,P != T2?,Same,2,1,high,112,1.07,82,1.29,82,1.35,No,quiteSure,cr,1.9153242111206055,NA
308,l29up!1,False,293,2,unequal,ST2_high_5_a2,P != T2?,Same,2,2,high,96,1.38,132,0.82,132,0.93,No,unsure,cr,7.153390169143677,NA
309,l29up!1,False,294,2,unequal,ST2_high_1_a2,P != T1?,Same,2,2,high,82,1.6,112,1.1,112,1.19,Yes,sure,hit,1.4791259765625,NA
310,l29up!1,False,295,2,unequal,ST1_high_6_a1,P != T2?,Same,1,1,high,132,0.91,96,1.26,132,0.89,Yes,sure,hit,1.4362716674804688,NA
311,l29up!1,False,296,2,unequal,ST2_high_2_a2,P != T2?,Same,2,2,high,112,1.23,82,1.29,82,1.54,No,quiteSure,cr,1.5534789562225342,NA
312,l29up!1,False,297,2,unequal,ST1_high_2_a2,P != T1?,Same,1,2,high,112,1.19,82,1.43,112,0.99,No,sure,cr,1.280442237854004,NA
313,l29up!1,False,298,2,unequal,ST1_high_1_a1,P != T1?,Same,1,1,high,82,1.41,112,0.98,82,1.57,No,quiteSure,cr,2.942814826965332,NA
314,l29up!1,False,299,2,unequal,ST1_low_3_a2,P != T2?,Same,1,2,low,70,1.41,112,1.13,70,1.67,Yes,sure,hit,1.169475793838501,NA
315,l29up!1,False,300,2,unequal,ST2_low_5_a1,P != T2?,Same,2,1,low,96,1.26,154,0.9,154,0.8,No,sure,cr,1.5948951244354248,NA
316,l29up!1,False,301,2,unequal,ST1_low_1_a1,P != T1?,Same,1,1,low,82,1.47,132,0.95,82,1.57,No,quiteSure,cr,2.547597885131836,NA
317,l29up!1,False,302,2,unequal,ST1_high_3_a1,P != T1?,Same,1,1,high,70,1.39,96,1.23,70,1.79,No,quiteSure,cr,1.952204942703247,NA
318,l29up!1,False,303,2,unequal,ST1_low_1_a2,P != T2?,Same,1,2,low,82,1.23,132,0.92,82,1.36,No,quiteSure,miss,1.6652898788452148,NA
319,l29up!1,False,304,2,unequal,ST2_high_4_a2,P != T2?,Same,2,2,high,96,1.27,70,1.68,70,1.72,No,sure,cr,2.155578136444092,NA
320,l29up!1,False,305,2,unequal,ST2_low_4_a2,P != T1?,Same,2,2,low,112,1.1,70,1.85,70,1.47,Yes,sure,hit,1.352811574935913,NA
321,l29up!1,False,306,2,unequal,ST1_low_2_a2,P != T1?,Same,1,2,low,132,1.03,82,1.47,132,0.93,No,quiteSure,cr,3.419322967529297,NA
322,l29up!1,False,307,2,unequal,DT1_high_1_a2,P != T1?,Different,1,2,high,82,1.62,112,1.15,70,1.37,No,unsure,cr,5.685687065124512,NA
323,l29up!1,False,308,2,unequal,ST1_low_4_a2,P != T1?,Same,1,2,low,112,1.15,70,1.83,112,1.1,No,quiteSure,cr,1.594191074371338,NA
324,l29up!1,False,309,2,unequal,ST1_high_5_a2,P != T1?,Same,1,2,high,96,1.07,132,1.05,96,1.4,Yes,sure,fa,1.3758766651153564,NA
325,l29up!1,False,310,2,unequal,ST1_high_2_a1,P != T1?,Same,1,1,high,112,1.05,82,1.54,112,1.13,No,quiteSure,cr,1.7989270687103271,NA
326,l29up!1,False,311,2,unequal,ST2_low_2_a1,P != T1?,Same,2,1,low,132,1.03,82,1.22,82,1.36,Yes,quiteSure,hit,1.7189550399780273,NA
327,l29up!1,False,312,2,unequal,ST2_high_5_a1,P != T2?,Same,2,1,high,96,1.14,132,0.92,132,0.86,No,sure,cr,1.6046950817108154,NA
328,l29up!1,False,313,2,unequal,ST1_low_1_a2,P != T1?,Same,1,2,low,82,1.56,132,1.01,82,1.29,No,sure,cr,4.5049121379852295,NA
329,l29up!1,False,314,2,unequal,ST2_low_5_a1,P != T2?,Same,2,1,low,96,1.4,154,0.91,154,0.87,No,sure,cr,1.4400818347930908,NA
330,l29up!1,False,315,2,unequal,DT2_high_6_a2,P != T1?,Different,2,2,high,132,0.98,96,1.4,82,1.61,No,sure,miss,3.1488661766052246,NA
331,l29up!1,False,316,2,unequal,ST2_low_4_a2,P != T2?,Same,2,2,low,112,1.1,70,1.63,70,1.56,No,sure,cr,1.5033471584320068,NA
332,l29up!1,False,317,2,unequal,ST1_high_4_a2,P != T2?,Same,1,2,high,96,1.2,70,1.84,96,1.08,Yes,sure,hit,4.457574844360352,NA
333,l29up!1,False,318,2,unequal,ST2_low_6_a2,P != T1?,Same,2,2,low,154,0.88,96,1.18,96,1.36,Yes,sure,hit,3.19396710395813,NA
334,l29up!1,False,319,2,unequal,ST2_high_6_a2,P != T2?,Same,2,2,high,132,0.89,96,1.4,96,1.3,No,quiteSure,cr,3.6238601207733154,NA
335,l29up!1,False,320,2,unequal,ST2_low_6_a1,P != T2?,Same,2,1,low,154,0.79,96,1.08,96,1.21,No,quiteSure,cr,1.4396421909332275,0.75
