,pcode,practice,trial,block,questionType,condition,question,PTS,TargetPosition,AccessoryPosition,TNS,T1_hz,T1_amp,T2_hz,T2_amp,P_hz,P_amp,response_dicho,response_rating,response_sdt,rt,P_correct
0,3!4zpq5,True,1,2,equal,ST2_high_6_a1,P = T1?,Same,2,1,high,132,0.76,96,1.4,96,1.2,No,unsure,cr,4.118841171264648,NA
1,3!4zpq5,True,2,2,equal,STb_8_a2,P = T2?,Same,0,2,None,180,0.86,180,0.87,180,0.73,Yes,sure,hit,2.407693862915039,NA
2,3!4zpq5,True,3,2,equal,STb_6_a2,P = T1?,Same,0,2,None,132,1.08,132,1.09,132,0.88,Yes,sure,hit,1.4447479248046875,NA
3,3!4zpq5,True,4,2,equal,ST2_low_1_a1,P = T1?,Same,2,1,low,82,1.49,132,1.02,132,0.95,No,quiteSure,cr,2.7657721042633057,NA
4,3!4zpq5,True,5,2,equal,DT1_low_6_a1,P = T1?,Different,1,1,low,154,0.9,96,1.19,180,0.8,No,sure,miss,2.922999143600464,NA
5,3!4zpq5,True,6,2,equal,ST1_high_5_a2,P = T2?,Same,1,2,high,96,1.49,132,0.78,96,1.23,No,unsure,cr,5.06318211555481,NA
6,3!4zpq5,True,7,2,equal,ST1_low_1_a1,P = T1?,Same,1,1,low,82,1.15,132,0.94,82,1.13,Yes,unsure,hit,3.2678163051605225,NA
7,3!4zpq5,True,8,2,equal,ST1_high_3_a1,P = T1?,Same,1,1,high,70,1.66,96,1.45,70,1.54,Yes,sure,hit,1.6646630764007568,NA
8,3!4zpq5,True,9,2,equal,STb_1_a2,P = T2?,Same,0,2,None,60,1.82,60,1.76,60,1.84,Yes,sure,hit,1.4410028457641602,NA
9,3!4zpq5,True,10,2,equal,ST2_low_6_a2,P = T2?,Same,2,2,low,154,0.9,96,1.52,96,1.35,Yes,sure,hit,1.848405122756958,NA
10,3!4zpq5,True,11,2,equal,DT1_high_6_a2,P = T2?,Different,1,2,high,132,0.81,96,1.27,154,0.83,No,sure,cr,1.6929922103881836,NA
11,3!4zpq5,True,12,2,equal,STb_8_a1,P = T1?,Same,0,1,None,180,1.06,180,0.74,180,0.9,Yes,sure,hit,1.310159683227539,NA
12,3!4zpq5,True,13,2,equal,DT2_high_4_a1,P = T1?,Different,2,1,high,96,1.08,70,1.82,60,1.87,No,sure,cr,1.8693890571594238,NA
13,3!4zpq5,True,14,2,equal,ST2_high_2_a1,P = T2?,Same,2,1,high,112,1.14,82,1.38,82,1.37,Yes,sure,hit,1.6660258769989014,NA
14,3!4zpq5,True,15,2,equal,ST1_low_2_a1,P = T2?,Same,1,1,low,132,0.98,82,1.25,132,0.75,No,sure,cr,2.38462495803833,NA
15,3!4zpq5,True,16,2,equal,DT2_low_4_a1,P = T2?,Different,2,1,low,112,1.08,70,1.41,60,1.59,Yes,sure,hit,2.009345054626465,0.875
16,3!4zpq5,False,1,2,equal,STb_8_a1,P = T1?,Same,0,1,None,180,1.06,180,0.74,180,0.9,Yes,sure,hit,2.2295119762420654,NA
17,3!4zpq5,False,2,2,equal,STb_1_a2,P = T2?,Same,0,2,None,60,1.82,60,1.76,60,1.84,Yes,sure,hit,1.1970512866973877,NA
18,3!4zpq5,False,3,2,equal,ST2_high_2_a2,P = T1?,Same,2,2,high,112,1.18,82,1.45,82,1.45,No,quiteSure,cr,1.6634869575500488,NA
19,3!4zpq5,False,4,2,equal,ST2_high_5_a2,P = T1?,Same,2,2,high,96,1.12,132,0.84,132,1.05,No,sure,cr,1.7774279117584229,NA
20,3!4zpq5,False,5,2,equal,ST2_low_3_a1,P = T2?,Same,2,1,low,70,1.56,112,1.08,112,1.23,Yes,sure,hit,1.5076229572296143,NA
21,3!4zpq5,False,6,2,equal,ST1_high_5_a2,P = T2?,Same,1,2,high,96,1.49,132,0.78,96,1.23,Yes,unsure,fa,2.4552769660949707,NA
22,3!4zpq5,False,7,2,equal,STb_2_a2,P = T2?,Same,0,2,None,70,1.39,70,1.77,70,1.75,Yes,sure,hit,1.0132310390472412,NA
23,3!4zpq5,False,8,2,equal,ST2_low_4_a1,P = T1?,Same,2,1,low,112,1.22,70,1.49,70,1.84,No,quiteSure,cr,4.162709951400757,NA
24,3!4zpq5,False,9,2,equal,ST2_low_1_a2,P = T2?,Same,2,2,low,82,1.41,132,1.02,132,0.83,Yes,sure,hit,1.6657400131225586,NA
25,3!4zpq5,False,10,2,equal,ST2_low_1_a1,P = T1?,Same,2,1,low,82,1.45,132,0.89,132,0.97,No,sure,cr,2.2981412410736084,NA
26,3!4zpq5,False,11,2,equal,ST1_low_5_a2,P = T1?,Same,1,2,low,96,1.35,154,0.76,96,1.42,Yes,unsure,hit,2.202507972717285,NA
27,3!4zpq5,False,12,2,equal,ST1_low_4_a1,P = T1?,Same,1,1,low,112,1.23,70,1.47,112,1.01,Yes,sure,hit,1.1710789203643799,NA
28,3!4zpq5,False,13,2,equal,ST2_low_3_a2,P = T1?,Same,2,2,low,70,1.55,112,1.12,112,1.18,Yes,quiteSure,fa,1.7761290073394775,NA
29,3!4zpq5,False,14,2,equal,ST1_low_3_a2,P = T2?,Same,1,2,low,70,1.85,112,1.0,70,1.42,Yes,sure,fa,1.728316068649292,NA
30,3!4zpq5,False,15,2,equal,ST2_high_1_a1,P = T2?,Same,2,1,high,82,1.46,112,1.18,112,1.04,Yes,sure,hit,1.2604851722717285,NA
31,3!4zpq5,False,16,2,equal,ST2_low_6_a2,P = T2?,Same,2,2,low,154,0.74,96,1.36,96,1.28,Yes,sure,hit,1.1479709148406982,NA
32,3!4zpq5,False,17,2,equal,ST2_high_3_a1,P = T1?,Same,2,1,high,70,1.43,96,1.12,96,1.31,No,quiteSure,cr,4.230389833450317,NA
33,3!4zpq5,False,18,2,equal,ST2_low_6_a2,P = T2?,Same,2,2,low,154,0.9,96,1.52,96,1.35,Yes,sure,hit,1.667992115020752,NA
34,3!4zpq5,False,19,2,equal,ST2_low_4_a2,P = T1?,Same,2,2,low,112,0.98,70,1.76,70,1.77,No,sure,cr,1.2784278392791748,NA
35,3!4zpq5,False,20,2,equal,ST2_high_5_a2,P = T1?,Same,2,2,high,96,1.06,132,1.06,132,0.79,No,sure,cr,1.708266019821167,NA
36,3!4zpq5,False,21,2,equal,ST2_high_6_a2,P = T2?,Same,2,2,high,132,0.93,96,1.2,96,1.41,Yes,sure,hit,1.3250038623809814,NA
37,3!4zpq5,False,22,2,equal,ST1_low_5_a1,P = T2?,Same,1,1,low,96,1.34,154,0.96,96,1.22,No,sure,cr,1.754418134689331,NA
38,3!4zpq5,False,23,2,equal,ST1_low_6_a2,P = T2?,Same,1,2,low,154,0.93,96,1.1,154,0.83,No,sure,cr,1.4619359970092773,NA
39,3!4zpq5,False,24,2,equal,ST2_low_3_a1,P = T2?,Same,2,1,low,70,1.67,112,1.15,112,1.12,Yes,sure,hit,1.3490931987762451,NA
40,3!4zpq5,False,25,2,equal,STb_5_a2,P = T1?,Same,0,2,None,112,1.22,112,1.17,112,0.98,Yes,sure,hit,1.0152947902679443,NA
41,3!4zpq5,False,26,2,equal,ST2_high_5_a1,P = T2?,Same,2,1,high,96,1.36,132,1.05,132,0.88,Yes,sure,hit,1.286034345626831,NA
42,3!4zpq5,False,27,2,equal,ST1_low_3_a1,P = T1?,Same,1,1,low,70,1.53,112,1.03,70,1.58,Yes,sure,hit,1.1260998249053955,NA
43,3!4zpq5,False,28,2,equal,ST1_high_4_a1,P = T1?,Same,1,1,high,96,1.11,70,1.58,96,1.15,Yes,sure,hit,1.1454839706420898,NA
44,3!4zpq5,False,29,2,equal,ST1_high_4_a1,P = T2?,Same,1,1,high,96,1.25,70,1.56,96,1.43,No,sure,cr,1.5529100894927979,NA
45,3!4zpq5,False,30,2,equal,DT1_high_6_a2,P = T1?,Different,1,2,high,132,0.93,96,1.12,154,0.76,No,quiteSure,miss,2.5635628700256348,NA
46,3!4zpq5,False,31,2,equal,ST2_low_5_a2,P = T1?,Same,2,2,low,96,1.21,154,0.73,154,0.82,No,sure,cr,2.315598726272583,NA
47,3!4zpq5,False,32,2,equal,ST1_high_4_a1,P = T2?,Same,1,1,high,96,1.08,70,1.73,96,1.35,No,unsure,cr,1.5747029781341553,NA
48,3!4zpq5,False,33,2,equal,ST1_high_4_a2,P = T2?,Same,1,2,high,96,1.16,70,1.56,96,1.39,Yes,quiteSure,fa,2.5890538692474365,NA
49,3!4zpq5,False,34,2,equal,ST1_low_5_a1,P = T2?,Same,1,1,low,96,1.17,154,0.82,96,1.27,No,sure,cr,1.3709509372711182,NA
50,3!4zpq5,False,35,2,equal,ST2_high_3_a1,P = T1?,Same,2,1,high,70,1.37,96,1.18,96,1.06,No,quiteSure,cr,2.3877439498901367,NA
51,3!4zpq5,False,36,2,equal,ST2_high_6_a1,P = T1?,Same,2,1,high,132,0.76,96,1.4,96,1.2,No,sure,cr,2.742457866668701,NA
52,3!4zpq5,False,37,2,equal,ST1_high_1_a1,P = T1?,Same,1,1,high,82,1.63,112,1.03,82,1.32,Yes,sure,hit,1.4193520545959473,NA
53,3!4zpq5,False,38,2,equal,ST2_low_2_a2,P = T2?,Same,2,2,low,132,0.79,82,1.27,82,1.28,Yes,sure,hit,1.280059814453125,NA
54,3!4zpq5,False,39,2,equal,ST2_low_6_a1,P = T1?,Same,2,1,low,154,0.74,96,1.2,96,1.34,No,quiteSure,cr,1.9571897983551025,NA
55,3!4zpq5,False,40,2,equal,ST2_low_6_a1,P = T1?,Same,2,1,low,154,0.74,96,1.1,96,1.4,No,unsure,cr,4.948970079421997,NA
56,3!4zpq5,False,41,2,equal,ST1_low_1_a1,P = T2?,Same,1,1,low,82,1.36,132,0.94,82,1.61,No,sure,cr,1.983098030090332,NA
57,3!4zpq5,False,42,2,equal,ST1_high_1_a1,P = T2?,Same,1,1,high,82,1.31,112,1.17,82,1.53,No,sure,cr,2.0010809898376465,NA
58,3!4zpq5,False,43,2,equal,ST1_high_6_a2,P = T1?,Same,1,2,high,132,0.8,96,1.15,132,0.98,Yes,unsure,hit,6.859840154647827,NA
59,3!4zpq5,False,44,2,equal,ST2_high_5_a1,P = T2?,Same,2,1,high,96,1.39,132,1.05,132,0.92,Yes,sure,hit,1.1918740272521973,NA
60,3!4zpq5,False,45,2,equal,ST2_low_6_a1,P = T1?,Same,2,1,low,154,0.81,96,1.33,96,1.34,No,quiteSure,cr,1.710691213607788,NA
61,3!4zpq5,False,46,2,equal,ST1_high_4_a2,P = T1?,Same,1,2,high,96,1.39,70,1.51,96,1.32,Yes,sure,hit,1.2182807922363281,NA
62,3!4zpq5,False,47,2,equal,ST1_high_6_a1,P = T2?,Same,1,1,high,132,0.8,96,1.3,132,1.03,No,sure,cr,1.2852699756622314,NA
63,3!4zpq5,False,48,2,equal,ST1_high_1_a1,P = T1?,Same,1,1,high,82,1.35,112,1.08,82,1.63,Yes,sure,hit,1.259126901626587,NA
64,3!4zpq5,False,49,2,equal,ST2_high_3_a2,P = T2?,Same,2,2,high,70,1.75,96,1.21,96,1.3,No,quiteSure,miss,2.590733051300049,NA
65,3!4zpq5,False,50,2,equal,ST1_low_6_a1,P = T2?,Same,1,1,low,154,0.8,96,1.3,154,0.88,Yes,unsure,fa,1.6651148796081543,NA
66,3!4zpq5,False,51,2,equal,ST2_high_4_a1,P = T1?,Same,2,1,high,96,1.27,70,1.52,70,1.65,Yes,sure,fa,2.3420662879943848,NA
67,3!4zpq5,False,52,2,equal,ST2_high_2_a2,P = T2?,Same,2,2,high,112,1.14,82,1.55,82,1.6,Yes,sure,hit,1.1933679580688477,NA
68,3!4zpq5,False,53,2,equal,ST1_high_4_a1,P = T1?,Same,1,1,high,96,1.3,70,1.42,96,1.37,Yes,sure,hit,1.105647087097168,NA
69,3!4zpq5,False,54,2,equal,ST2_low_6_a1,P = T2?,Same,2,1,low,154,0.94,96,1.12,96,1.09,Yes,quiteSure,hit,1.3084712028503418,NA
70,3!4zpq5,False,55,2,equal,ST2_high_3_a1,P = T2?,Same,2,1,high,70,1.7,96,1.12,96,1.28,No,unsure,miss,6.008177280426025,NA
71,3!4zpq5,False,56,2,equal,ST1_high_3_a2,P = T1?,Same,1,2,high,70,1.74,96,1.41,70,1.39,Yes,sure,hit,1.4892261028289795,NA
72,3!4zpq5,False,57,2,equal,ST1_high_4_a1,P = T2?,Same,1,1,high,96,1.25,70,1.54,96,1.2,No,sure,cr,1.5987021923065186,NA
73,3!4zpq5,False,58,2,equal,ST1_high_3_a2,P = T2?,Same,1,2,high,70,1.83,96,1.07,70,1.46,No,quiteSure,cr,2.5233559608459473,NA
74,3!4zpq5,False,59,2,equal,ST1_low_5_a1,P = T1?,Same,1,1,low,96,1.29,154,0.88,96,1.16,Yes,sure,hit,1.619654893875122,NA
75,3!4zpq5,False,60,2,equal,ST2_low_4_a2,P = T2?,Same,2,2,low,112,1.02,70,1.8,70,1.53,No,quiteSure,miss,1.7169499397277832,NA
76,3!4zpq5,False,61,2,equal,ST2_high_5_a2,P = T2?,Same,2,2,high,96,1.3,132,0.99,132,0.85,Yes,sure,hit,1.5710289478302002,NA
77,3!4zpq5,False,62,2,equal,ST1_low_4_a2,P = T2?,Same,1,2,low,112,1.13,70,1.7,112,1.02,No,quiteSure,cr,2.136953115463257,NA
78,3!4zpq5,False,63,2,equal,DT1_high_5_a1,P = T1?,Different,1,1,high,96,1.24,132,1.03,82,1.39,Yes,unsure,hit,2.044400215148926,NA
79,3!4zpq5,False,64,2,equal,DT1_high_2_a2,P = T1?,Different,1,2,high,112,1.15,82,1.53,132,0.88,Yes,quiteSure,hit,1.981637954711914,NA
80,3!4zpq5,False,65,2,equal,ST1_high_1_a1,P = T2?,Same,1,1,high,82,1.32,112,0.91,82,1.56,Yes,sure,fa,1.488279104232788,NA
81,3!4zpq5,False,66,2,equal,ST1_low_2_a2,P = T1?,Same,1,2,low,132,0.9,82,1.43,132,0.84,Yes,sure,hit,1.2627418041229248,NA
82,3!4zpq5,False,67,2,equal,DT1_low_3_a2,P = T1?,Different,1,2,low,70,1.73,112,1.02,60,1.62,No,sure,miss,1.5103809833526611,NA
83,3!4zpq5,False,68,2,equal,STb_1_a2,P = T1?,Same,0,2,None,60,1.85,60,1.96,60,1.64,Yes,sure,hit,0.7899260520935059,NA
84,3!4zpq5,False,69,2,equal,ST1_high_1_a2,P = T1?,Same,1,2,high,82,1.51,112,0.99,82,1.55,Yes,unsure,hit,3.061000347137451,NA
85,3!4zpq5,False,70,2,equal,STb_6_a2,P = T1?,Same,0,2,None,132,1.08,132,1.09,132,0.88,Yes,sure,hit,0.812762975692749,NA
86,3!4zpq5,False,71,2,equal,ST1_high_6_a2,P = T2?,Same,1,2,high,132,0.99,96,1.36,132,0.98,No,sure,cr,1.258012056350708,NA
87,3!4zpq5,False,72,2,equal,ST2_low_2_a2,P = T1?,Same,2,2,low,132,0.91,82,1.42,82,1.43,No,quiteSure,cr,3.3060500621795654,NA
88,3!4zpq5,False,73,2,equal,ST1_high_5_a1,P = T2?,Same,1,1,high,96,1.14,132,0.79,96,1.16,No,quiteSure,cr,2.7925190925598145,NA
89,3!4zpq5,False,74,2,equal,ST1_high_5_a1,P = T2?,Same,1,1,high,96,1.17,132,0.85,96,1.17,No,sure,cr,2.0699141025543213,NA
90,3!4zpq5,False,75,2,equal,STb_2_a2,P = T1?,Same,0,2,None,70,1.69,70,1.7,70,1.48,Yes,sure,hit,1.0249888896942139,NA
91,3!4zpq5,False,76,2,equal,ST2_high_3_a1,P = T2?,Same,2,1,high,70,1.62,96,1.19,96,1.22,Yes,sure,hit,1.415506362915039,NA
92,3!4zpq5,False,77,2,equal,DT2_low_6_a1,P = T2?,Different,2,1,low,154,0.9,96,1.32,82,1.36,Yes,quiteSure,hit,1.8230528831481934,NA
93,3!4zpq5,False,78,2,equal,ST2_high_2_a2,P = T2?,Same,2,2,high,112,0.98,82,1.32,82,1.44,Yes,sure,hit,1.1054809093475342,NA
94,3!4zpq5,False,79,2,equal,ST2_low_2_a1,P = T2?,Same,2,1,low,132,0.92,82,1.28,82,1.25,Yes,quiteSure,hit,1.1901030540466309,NA
95,3!4zpq5,False,80,2,equal,ST1_low_5_a2,P = T1?,Same,1,2,low,96,1.39,154,0.76,96,1.23,Yes,sure,hit,2.293475866317749,NA
96,3!4zpq5,False,81,2,equal,ST2_low_5_a2,P = T2?,Same,2,2,low,96,1.28,154,0.92,154,0.92,Yes,quiteSure,hit,2.9280459880828857,NA
97,3!4zpq5,False,82,2,equal,ST1_low_5_a2,P = T2?,Same,1,2,low,96,1.36,154,0.71,96,1.13,No,sure,cr,5.020139217376709,NA
98,3!4zpq5,False,83,2,equal,DT1_low_1_a2,P = T2?,Different,1,2,low,82,1.43,132,0.91,70,1.64,No,sure,cr,1.7089238166809082,NA
99,3!4zpq5,False,84,2,equal,ST1_low_3_a2,P = T1?,Same,1,2,low,70,1.53,112,1.22,70,1.59,Yes,sure,hit,1.0814037322998047,NA
100,3!4zpq5,False,85,2,equal,ST2_high_2_a2,P = T2?,Same,2,2,high,112,0.93,82,1.33,82,1.37,Yes,sure,hit,1.2849388122558594,NA
101,3!4zpq5,False,86,2,equal,ST2_high_1_a1,P = T1?,Same,2,1,high,82,1.22,112,1.24,112,0.98,No,quiteSure,cr,2.7020130157470703,NA
102,3!4zpq5,False,87,2,equal,ST1_low_6_a2,P = T1?,Same,1,2,low,154,0.73,96,1.43,154,0.78,Yes,quiteSure,hit,4.861155033111572,NA
103,3!4zpq5,False,88,2,equal,ST2_low_5_a1,P = T2?,Same,2,1,low,96,1.06,154,0.92,154,0.94,Yes,sure,hit,1.0330078601837158,NA
104,3!4zpq5,False,89,2,equal,STb_3_a2,P = T1?,Same,0,2,None,82,1.36,82,1.32,82,1.45,Yes,sure,hit,1.081300973892212,NA
105,3!4zpq5,False,90,2,equal,ST1_low_5_a1,P = T1?,Same,1,1,low,96,1.23,154,0.76,96,1.32,Yes,sure,hit,2.1345717906951904,NA
106,3!4zpq5,False,91,2,equal,ST1_low_4_a2,P = T1?,Same,1,2,low,112,1.0,70,1.64,112,0.93,Yes,sure,hit,1.9304239749908447,NA
107,3!4zpq5,False,92,2,equal,ST2_high_2_a1,P = T2?,Same,2,1,high,112,1.21,82,1.43,82,1.59,Yes,sure,hit,1.1041440963745117,NA
108,3!4zpq5,False,93,2,equal,ST1_high_5_a1,P = T1?,Same,1,1,high,96,1.28,132,0.9,96,1.19,Yes,sure,hit,1.8455588817596436,NA
109,3!4zpq5,False,94,2,equal,ST2_low_1_a1,P = T2?,Same,2,1,low,82,1.5,132,0.93,132,0.99,Yes,sure,hit,1.0072808265686035,NA
110,3!4zpq5,False,95,2,equal,DT2_low_6_a2,P = T2?,Different,2,2,low,154,0.83,96,1.31,82,1.54,Yes,sure,hit,1.052560806274414,NA
111,3!4zpq5,False,96,2,equal,STb_3_a2,P = T2?,Same,0,2,None,82,1.22,82,1.43,82,1.23,Yes,sure,hit,0.6541721820831299,NA
112,3!4zpq5,False,97,2,equal,ST1_high_3_a1,P = T2?,Same,1,1,high,70,1.74,96,1.14,70,1.47,No,unsure,cr,2.251075029373169,NA
113,3!4zpq5,False,98,2,equal,ST2_high_6_a2,P = T2?,Same,2,2,high,132,0.91,96,1.15,96,1.12,Yes,sure,hit,1.1008648872375488,NA
114,3!4zpq5,False,99,2,equal,ST2_low_3_a1,P = T1?,Same,2,1,low,70,1.7,112,1.04,112,0.93,Yes,sure,fa,1.3692302703857422,NA
115,3!4zpq5,False,100,2,equal,ST1_high_2_a2,P = T2?,Same,1,2,high,112,1.08,82,1.44,112,0.98,No,sure,cr,1.6180739402770996,NA
116,3!4zpq5,False,101,2,equal,ST2_low_2_a1,P = T2?,Same,2,1,low,132,0.81,82,1.54,82,1.38,Yes,sure,hit,1.1525790691375732,NA
117,3!4zpq5,False,102,2,equal,STb_8_a2,P = T1?,Same,0,2,None,180,0.78,180,0.88,180,0.95,Yes,sure,hit,0.38265204429626465,NA
118,3!4zpq5,False,103,2,equal,ST2_high_2_a1,P = T2?,Same,2,1,high,112,1.18,82,1.39,82,1.5,Yes,sure,hit,1.1487069129943848,NA
119,3!4zpq5,False,104,2,equal,ST1_high_6_a1,P = T1?,Same,1,1,high,132,1.02,96,1.42,132,1.06,Yes,sure,hit,1.3752820491790771,NA
120,3!4zpq5,False,105,2,equal,ST2_high_1_a2,P = T1?,Same,2,2,high,82,1.23,112,1.17,112,1.15,No,sure,cr,1.377478837966919,NA
121,3!4zpq5,False,106,2,equal,ST1_low_1_a2,P = T1?,Same,1,2,low,82,1.3,132,1.01,82,1.54,Yes,sure,hit,1.054070234298706,NA
122,3!4zpq5,False,107,2,equal,ST1_high_3_a1,P = T1?,Same,1,1,high,70,1.79,96,1.41,70,1.49,No,quiteSure,miss,1.8892419338226318,NA
123,3!4zpq5,False,108,2,equal,ST1_low_3_a1,P = T1?,Same,1,1,low,70,1.76,112,1.1,70,1.49,Yes,sure,hit,1.392160177230835,NA
124,3!4zpq5,False,109,2,equal,ST2_high_2_a2,P = T1?,Same,2,2,high,112,0.99,82,1.54,82,1.58,Yes,quiteSure,fa,2.137624979019165,NA
125,3!4zpq5,False,110,2,equal,STb_1_a1,P = T2?,Same,0,1,None,60,1.69,60,1.78,60,1.89,Yes,sure,hit,1.6619880199432373,NA
126,3!4zpq5,False,111,2,equal,ST2_high_2_a1,P = T1?,Same,2,1,high,112,1.12,82,1.23,82,1.22,No,quiteSure,cr,2.429805040359497,NA
127,3!4zpq5,False,112,2,equal,ST2_high_4_a2,P = T1?,Same,2,2,high,96,1.3,70,1.61,70,1.53,No,sure,cr,1.5776031017303467,NA
128,3!4zpq5,False,113,2,equal,ST2_high_5_a1,P = T1?,Same,2,1,high,96,1.43,132,0.97,132,1.01,No,sure,cr,1.5504298210144043,NA
129,3!4zpq5,False,114,2,equal,ST2_low_3_a2,P = T1?,Same,2,2,low,70,1.73,112,1.08,112,1.02,Yes,quiteSure,fa,1.64658784866333,NA
130,3!4zpq5,False,115,2,equal,ST1_low_1_a1,P = T1?,Same,1,1,low,82,1.15,132,0.94,82,1.13,Yes,sure,hit,1.3922910690307617,NA
131,3!4zpq5,False,116,2,equal,ST1_low_5_a1,P = T2?,Same,1,1,low,96,1.16,154,0.72,96,1.1,No,sure,cr,2.050719976425171,NA
132,3!4zpq5,False,117,2,equal,ST2_high_4_a2,P = T2?,Same,2,2,high,96,1.22,70,1.55,70,1.61,Yes,sure,hit,1.1972999572753906,NA
133,3!4zpq5,False,118,2,equal,ST1_high_5_a2,P = T2?,Same,1,2,high,96,1.39,132,0.89,96,1.34,No,sure,cr,1.3677029609680176,NA
134,3!4zpq5,False,119,2,equal,ST1_low_1_a2,P = T1?,Same,1,2,low,82,1.25,132,0.99,82,1.42,Yes,quiteSure,hit,1.869020938873291,NA
135,3!4zpq5,False,120,2,equal,ST1_low_3_a2,P = T1?,Same,1,2,low,70,1.48,112,1.09,70,1.82,Yes,sure,hit,1.3275399208068848,NA
136,3!4zpq5,False,121,2,equal,ST1_high_4_a2,P = T2?,Same,1,2,high,96,1.13,70,1.76,96,1.2,No,quiteSure,cr,2.316253900527954,NA
137,3!4zpq5,False,122,2,equal,ST1_low_3_a2,P = T2?,Same,1,2,low,70,1.76,112,1.01,70,1.72,No,sure,cr,1.6662771701812744,NA
138,3!4zpq5,False,123,2,equal,ST2_low_1_a2,P = T1?,Same,2,2,low,82,1.38,132,0.85,132,0.89,No,sure,cr,1.980478048324585,NA
139,3!4zpq5,False,124,2,equal,ST1_high_4_a2,P = T2?,Same,1,2,high,96,1.23,70,1.38,96,1.3,No,sure,cr,1.5286188125610352,NA
140,3!4zpq5,False,125,2,equal,ST2_high_6_a1,P = T1?,Same,2,1,high,132,0.88,96,1.07,96,1.06,Yes,unsure,fa,6.254342079162598,NA
141,3!4zpq5,False,126,2,equal,ST2_high_6_a2,P = T1?,Same,2,2,high,132,0.84,96,1.42,96,1.19,No,unsure,cr,6.139896869659424,NA
142,3!4zpq5,False,127,2,equal,ST1_low_1_a1,P = T2?,Same,1,1,low,82,1.33,132,0.93,82,1.63,No,sure,cr,1.2143068313598633,NA
143,3!4zpq5,False,128,2,equal,ST1_high_1_a2,P = T2?,Same,1,2,high,82,1.39,112,1.05,82,1.55,No,sure,cr,3.42218279838562,NA
144,3!4zpq5,False,129,2,equal,ST2_high_6_a2,P = T2?,Same,2,2,high,132,0.84,96,1.37,96,1.33,Yes,sure,hit,2.2320170402526855,NA
145,3!4zpq5,False,130,2,equal,ST2_low_4_a1,P = T1?,Same,2,1,low,112,1.23,70,1.76,70,1.46,No,quiteSure,cr,2.3449008464813232,NA
146,3!4zpq5,False,131,2,equal,ST2_high_1_a1,P = T2?,Same,2,1,high,82,1.59,112,0.99,112,1.05,Yes,sure,hit,1.4649970531463623,NA
147,3!4zpq5,False,132,2,equal,ST2_high_1_a1,P = T1?,Same,2,1,high,82,1.56,112,1.15,112,1.03,No,sure,cr,1.7405040264129639,NA
148,3!4zpq5,False,133,2,equal,ST1_high_2_a1,P = T2?,Same,1,1,high,112,1.05,82,1.35,112,1.07,No,sure,cr,3.1734042167663574,NA
149,3!4zpq5,False,134,2,equal,ST2_low_5_a1,P = T1?,Same,2,1,low,96,1.34,154,0.81,154,0.9,No,sure,cr,1.5049359798431396,NA
150,3!4zpq5,False,135,2,equal,STb_4_a1,P = T2?,Same,0,1,None,96,1.09,96,1.31,96,1.29,Yes,sure,hit,0.8080480098724365,NA
151,3!4zpq5,False,136,2,equal,ST2_low_6_a2,P = T2?,Same,2,2,low,154,0.81,96,1.42,96,1.17,No,quiteSure,miss,2.0285449028015137,NA
152,3!4zpq5,False,137,2,equal,ST1_high_3_a1,P = T1?,Same,1,1,high,70,1.63,96,1.38,70,1.77,No,unsure,miss,4.096396207809448,NA
153,3!4zpq5,False,138,2,equal,ST1_low_2_a2,P = T1?,Same,1,2,low,132,0.95,82,1.41,132,1.06,No,quiteSure,miss,2.3678441047668457,NA
154,3!4zpq5,False,139,2,equal,ST2_high_5_a2,P = T2?,Same,2,2,high,96,1.22,132,0.84,132,1.01,Yes,sure,hit,1.1254370212554932,NA
155,3!4zpq5,False,140,2,equal,ST1_high_6_a1,P = T2?,Same,1,1,high,132,1.03,96,1.33,132,1.02,No,sure,cr,2.005281925201416,NA
156,3!4zpq5,False,141,2,equal,ST1_low_1_a2,P = T2?,Same,1,2,low,82,1.41,132,0.99,82,1.31,No,sure,cr,2.4321670532226562,NA
157,3!4zpq5,False,142,2,equal,ST1_low_3_a1,P = T2?,Same,1,1,low,70,1.38,112,0.99,70,1.69,No,sure,cr,1.8255810737609863,NA
158,3!4zpq5,False,143,2,equal,ST1_low_4_a1,P = T1?,Same,1,1,low,112,0.92,70,1.61,112,0.99,Yes,sure,hit,2.298067092895508,NA
159,3!4zpq5,False,144,2,equal,ST2_low_3_a1,P = T1?,Same,2,1,low,70,1.75,112,0.95,112,1.12,No,unsure,cr,4.117366075515747,NA
160,3!4zpq5,False,145,2,equal,ST1_low_5_a1,P = T1?,Same,1,1,low,96,1.08,154,0.77,96,1.42,Yes,sure,hit,2.58884596824646,NA
161,3!4zpq5,False,146,2,equal,ST2_high_4_a2,P = T1?,Same,2,2,high,96,1.41,70,1.72,70,1.83,No,sure,cr,1.2598137855529785,NA
162,3!4zpq5,False,147,2,equal,ST1_low_2_a2,P = T2?,Same,1,2,low,132,1.05,82,1.61,132,1.02,No,sure,cr,1.4601879119873047,NA
163,3!4zpq5,False,148,2,equal,ST1_low_2_a1,P = T2?,Same,1,1,low,132,0.98,82,1.25,132,0.75,No,sure,cr,1.7988691329956055,NA
164,3!4zpq5,False,149,2,equal,ST2_low_5_a2,P = T1?,Same,2,2,low,96,1.07,154,0.91,154,0.73,No,sure,cr,1.508946180343628,NA
165,3!4zpq5,False,150,2,equal,ST1_high_1_a2,P = T2?,Same,1,2,high,82,1.3,112,1.11,82,1.52,Yes,sure,fa,1.3491101264953613,NA
166,3!4zpq5,False,151,2,equal,ST2_high_1_a2,P = T1?,Same,2,2,high,82,1.22,112,1.15,112,0.97,No,unsure,cr,1.818918228149414,NA
167,3!4zpq5,False,152,2,equal,ST1_high_5_a1,P = T1?,Same,1,1,high,96,1.22,132,0.8,96,1.09,Yes,sure,hit,1.7743020057678223,NA
168,3!4zpq5,False,153,2,equal,ST2_low_4_a1,P = T1?,Same,2,1,low,112,1.11,70,1.62,70,1.64,No,quiteSure,cr,2.9467179775238037,NA
169,3!4zpq5,False,154,2,equal,ST1_low_3_a1,P = T2?,Same,1,1,low,70,1.48,112,1.12,70,1.72,No,sure,cr,1.5504140853881836,NA
170,3!4zpq5,False,155,2,equal,ST2_high_4_a1,P = T2?,Same,2,1,high,96,1.1,70,1.49,70,1.66,Yes,sure,hit,1.2190470695495605,NA
171,3!4zpq5,False,156,2,equal,ST2_low_2_a2,P = T2?,Same,2,2,low,132,0.95,82,1.57,82,1.28,Yes,sure,hit,1.9132888317108154,NA
172,3!4zpq5,False,157,2,equal,ST1_high_5_a2,P = T1?,Same,1,2,high,96,1.39,132,0.94,96,1.41,Yes,sure,hit,0.9683589935302734,NA
173,3!4zpq5,False,158,2,equal,ST2_high_4_a1,P = T1?,Same,2,1,high,96,1.41,70,1.6,70,1.66,No,sure,cr,3.84861421585083,NA
174,3!4zpq5,False,159,2,equal,ST2_low_1_a2,P = T1?,Same,2,2,low,82,1.38,132,0.99,132,0.94,No,sure,cr,1.7120580673217773,NA
175,3!4zpq5,False,160,2,equal,ST1_low_2_a2,P = T2?,Same,1,2,low,132,0.98,82,1.45,132,0.81,No,sure,cr,1.43971586227417,NA
176,3!4zpq5,False,161,2,equal,ST2_high_4_a2,P = T2?,Same,2,2,high,96,1.35,70,1.47,70,1.72,Yes,sure,hit,2.044137954711914,NA
177,3!4zpq5,False,162,2,equal,ST2_high_2_a2,P = T1?,Same,2,2,high,112,1.02,82,1.36,82,1.49,No,quiteSure,cr,1.6414852142333984,NA
178,3!4zpq5,False,163,2,equal,ST1_high_3_a2,P = T1?,Same,1,2,high,70,1.49,96,1.24,70,1.8,Yes,quiteSure,hit,1.773603916168213,NA
179,3!4zpq5,False,164,2,equal,ST2_high_4_a1,P = T1?,Same,2,1,high,96,1.34,70,1.46,70,1.83,No,unsure,cr,2.4752249717712402,NA
180,3!4zpq5,False,165,2,equal,ST1_high_3_a1,P = T1?,Same,1,1,high,70,1.66,96,1.45,70,1.54,No,quiteSure,miss,2.090322256088257,NA
181,3!4zpq5,False,166,2,equal,ST1_low_5_a2,P = T2?,Same,1,2,low,96,1.07,154,0.96,96,1.16,No,sure,cr,1.4634881019592285,NA
182,3!4zpq5,False,167,2,equal,ST1_low_2_a1,P = T1?,Same,1,1,low,132,0.83,82,1.35,132,0.9,Yes,sure,hit,1.757321834564209,NA
183,3!4zpq5,False,168,2,equal,ST1_low_2_a1,P = T1?,Same,1,1,low,132,0.82,82,1.45,132,0.81,Yes,sure,hit,1.7796320915222168,NA
184,3!4zpq5,False,169,2,equal,ST2_high_4_a1,P = T2?,Same,2,1,high,96,1.27,70,1.76,70,1.81,Yes,quiteSure,hit,3.5087637901306152,NA
185,3!4zpq5,False,170,2,equal,ST2_low_5_a1,P = T2?,Same,2,1,low,96,1.32,154,0.74,154,0.82,Yes,sure,hit,1.6608500480651855,NA
186,3!4zpq5,False,171,2,equal,ST1_high_2_a1,P = T1?,Same,1,1,high,112,0.98,82,1.53,112,0.96,Yes,sure,hit,3.5413267612457275,NA
187,3!4zpq5,False,172,2,equal,ST2_high_4_a2,P = T2?,Same,2,2,high,96,1.06,70,1.55,70,1.63,Yes,unsure,hit,4.502349138259888,NA
188,3!4zpq5,False,173,2,equal,ST2_low_6_a2,P = T1?,Same,2,2,low,154,0.77,96,1.32,96,1.27,No,sure,cr,1.1925666332244873,NA
189,3!4zpq5,False,174,2,equal,ST2_low_4_a1,P = T2?,Same,2,1,low,112,1.04,70,1.68,70,1.38,Yes,sure,hit,1.1445438861846924,NA
190,3!4zpq5,False,175,2,equal,ST1_high_6_a2,P = T2?,Same,1,2,high,132,0.9,96,1.27,132,0.82,No,sure,cr,1.2619450092315674,NA
191,3!4zpq5,False,176,2,equal,DT2_low_2_a1,P = T2?,Different,2,1,low,132,0.92,82,1.4,70,1.8,Yes,sure,hit,1.329704999923706,NA
192,3!4zpq5,False,177,2,equal,ST1_high_5_a2,P = T2?,Same,1,2,high,96,1.12,132,1.04,96,1.09,No,quiteSure,cr,2.3452541828155518,NA
193,3!4zpq5,False,178,2,equal,ST1_low_1_a1,P = T2?,Same,1,1,low,82,1.24,132,0.92,82,1.22,No,sure,cr,1.4201281070709229,NA
194,3!4zpq5,False,179,2,equal,ST2_low_1_a1,P = T2?,Same,2,1,low,82,1.48,132,0.88,132,1.04,Yes,sure,hit,2.4510982036590576,NA
195,3!4zpq5,False,180,2,equal,STb_7_a2,P = T2?,Same,0,2,None,154,0.81,154,0.79,154,0.95,Yes,sure,hit,0.5377151966094971,NA
196,3!4zpq5,False,181,2,equal,ST1_high_3_a2,P = T2?,Same,1,2,high,70,1.81,96,1.38,70,1.46,No,unsure,cr,1.8679039478302002,NA
197,3!4zpq5,False,182,2,equal,ST1_low_3_a1,P = T2?,Same,1,1,low,70,1.38,112,1.17,70,1.67,No,sure,cr,1.4396531581878662,NA
198,3!4zpq5,False,183,2,equal,ST1_high_4_a2,P = T1?,Same,1,2,high,96,1.3,70,1.51,96,1.38,Yes,quiteSure,hit,1.7986412048339844,NA
199,3!4zpq5,False,184,2,equal,ST1_high_6_a2,P = T1?,Same,1,2,high,132,0.84,96,1.25,132,0.87,Yes,sure,hit,1.883970022201538,NA
200,3!4zpq5,False,185,2,equal,ST2_low_2_a1,P = T1?,Same,2,1,low,132,0.98,82,1.34,82,1.45,No,sure,cr,1.5540060997009277,NA
201,3!4zpq5,False,186,2,equal,ST2_low_6_a2,P = T1?,Same,2,2,low,154,0.86,96,1.14,96,1.43,No,sure,cr,1.4121227264404297,NA
202,3!4zpq5,False,187,2,equal,ST2_low_4_a2,P = T2?,Same,2,2,low,112,1.17,70,1.73,70,1.73,Yes,sure,hit,1.1727972030639648,NA
203,3!4zpq5,False,188,2,equal,ST2_low_5_a2,P = T2?,Same,2,2,low,96,1.12,154,0.76,154,0.89,Yes,sure,hit,1.8645498752593994,NA
204,3!4zpq5,False,189,2,equal,ST2_high_1_a2,P = T1?,Same,2,2,high,82,1.53,112,1.23,112,1.01,No,sure,cr,2.813816785812378,NA
205,3!4zpq5,False,190,2,equal,ST1_low_3_a1,P = T1?,Same,1,1,low,70,1.65,112,1.2,70,1.6,Yes,sure,hit,1.886796236038208,NA
206,3!4zpq5,False,191,2,equal,ST2_low_2_a1,P = T1?,Same,2,1,low,132,0.79,82,1.44,82,1.61,No,unsure,cr,6.30048680305481,NA
207,3!4zpq5,False,192,2,equal,ST1_high_6_a1,P = T1?,Same,1,1,high,132,1.02,96,1.32,132,0.89,Yes,quiteSure,hit,1.7101387977600098,NA
208,3!4zpq5,False,193,2,equal,ST2_low_4_a2,P = T1?,Same,2,2,low,112,0.95,70,1.47,70,1.68,No,sure,cr,1.3079500198364258,NA
209,3!4zpq5,False,194,2,equal,ST1_high_2_a1,P = T2?,Same,1,1,high,112,1.19,82,1.29,112,0.96,No,sure,cr,1.218947172164917,NA
210,3!4zpq5,False,195,2,equal,ST2_low_2_a2,P = T2?,Same,2,2,low,132,0.94,82,1.28,82,1.24,Yes,sure,hit,1.3714659214019775,NA
211,3!4zpq5,False,196,2,equal,ST2_low_5_a1,P = T1?,Same,2,1,low,96,1.39,154,0.71,154,0.84,No,sure,cr,1.5488860607147217,NA
212,3!4zpq5,False,197,2,equal,ST2_low_5_a2,P = T1?,Same,2,2,low,96,1.24,154,0.76,154,0.93,No,quiteSure,cr,1.7068109512329102,NA
213,3!4zpq5,False,198,2,equal,ST1_low_4_a1,P = T2?,Same,1,1,low,112,1.19,70,1.41,112,1.23,No,sure,cr,1.6429193019866943,NA
214,3!4zpq5,False,199,2,equal,ST1_low_2_a1,P = T2?,Same,1,1,low,132,0.84,82,1.31,132,1.02,No,sure,cr,1.352356195449829,NA
215,3!4zpq5,False,200,2,equal,ST1_low_6_a1,P = T2?,Same,1,1,low,154,0.75,96,1.36,154,0.86,No,unsure,cr,5.064218997955322,NA
216,3!4zpq5,False,201,2,equal,DT2_high_4_a2,P = T1?,Different,2,2,high,96,1.32,70,1.81,60,1.56,No,sure,cr,1.620311975479126,NA
217,3!4zpq5,False,202,2,equal,ST1_low_6_a2,P = T1?,Same,1,2,low,154,0.74,96,1.42,154,0.8,Yes,unsure,hit,5.984333753585815,NA
218,3!4zpq5,False,203,2,equal,ST1_low_4_a2,P = T2?,Same,1,2,low,112,0.99,70,1.72,112,1.22,No,sure,cr,2.587272882461548,NA
219,3!4zpq5,False,204,2,equal,STb_6_a1,P = T1?,Same,0,1,None,132,0.82,132,1.03,132,0.79,Yes,sure,hit,1.1225719451904297,NA
220,3!4zpq5,False,205,2,equal,ST2_high_3_a2,P = T1?,Same,2,2,high,70,1.38,96,1.07,96,1.14,No,quiteSure,cr,1.4823250770568848,NA
221,3!4zpq5,False,206,2,equal,ST1_high_1_a2,P = T1?,Same,1,2,high,82,1.22,112,1.2,82,1.46,Yes,quiteSure,hit,1.462838888168335,NA
222,3!4zpq5,False,207,2,equal,ST2_low_1_a1,P = T2?,Same,2,1,low,82,1.53,132,0.92,132,1.02,Yes,sure,hit,2.4065988063812256,NA
223,3!4zpq5,False,208,2,equal,ST1_high_1_a2,P = T1?,Same,1,2,high,82,1.52,112,1.18,82,1.25,Yes,quiteSure,hit,1.4436569213867188,NA
224,3!4zpq5,False,209,2,equal,ST2_high_6_a2,P = T1?,Same,2,2,high,132,0.84,96,1.3,96,1.24,No,quiteSure,cr,1.3555240631103516,NA
225,3!4zpq5,False,210,2,equal,ST1_high_2_a2,P = T1?,Same,1,2,high,112,1.04,82,1.59,112,1.21,Yes,sure,hit,1.6621389389038086,NA
226,3!4zpq5,False,211,2,equal,ST2_low_6_a2,P = T1?,Same,2,2,low,154,0.9,96,1.13,96,1.14,Yes,quiteSure,fa,2.2917959690093994,NA
227,3!4zpq5,False,212,2,equal,ST1_low_6_a2,P = T2?,Same,1,2,low,154,0.72,96,1.29,154,0.82,No,sure,cr,1.2615079879760742,NA
228,3!4zpq5,False,213,2,equal,ST2_high_3_a2,P = T2?,Same,2,2,high,70,1.53,96,1.37,96,1.3,Yes,quiteSure,hit,3.3533432483673096,NA
229,3!4zpq5,False,214,2,equal,ST1_low_1_a1,P = T1?,Same,1,1,low,82,1.59,132,0.99,82,1.63,Yes,quiteSure,hit,1.753169059753418,NA
230,3!4zpq5,False,215,2,equal,ST2_low_3_a2,P = T2?,Same,2,2,low,70,1.58,112,0.99,112,0.99,Yes,sure,hit,3.594263792037964,NA
231,3!4zpq5,False,216,2,equal,ST2_high_5_a2,P = T2?,Same,2,2,high,96,1.43,132,1.01,132,1.01,Yes,sure,hit,2.2290120124816895,NA
232,3!4zpq5,False,217,2,equal,ST2_high_3_a2,P = T2?,Same,2,2,high,70,1.49,96,1.27,96,1.2,Yes,sure,hit,1.5985190868377686,NA
233,3!4zpq5,False,218,2,equal,ST1_high_4_a2,P = T1?,Same,1,2,high,96,1.41,70,1.55,96,1.22,Yes,sure,hit,1.5982201099395752,NA
234,3!4zpq5,False,219,2,equal,ST2_low_6_a1,P = T2?,Same,2,1,low,154,0.85,96,1.26,96,1.36,No,quiteSure,miss,1.439887285232544,NA
235,3!4zpq5,False,220,2,equal,DT2_high_2_a1,P = T2?,Different,2,1,high,112,0.97,82,1.51,70,1.84,No,unsure,miss,2.8148908615112305,NA
236,3!4zpq5,False,221,2,equal,ST1_low_6_a2,P = T2?,Same,1,2,low,154,0.92,96,1.43,154,0.71,No,sure,cr,1.1470448970794678,NA
237,3!4zpq5,False,222,2,equal,ST1_high_2_a2,P = T1?,Same,1,2,high,112,0.92,82,1.48,112,1.17,Yes,unsure,hit,2.251284122467041,NA
238,3!4zpq5,False,223,2,equal,ST1_low_1_a2,P = T1?,Same,1,2,low,82,1.23,132,0.89,82,1.49,No,unsure,miss,2.627873182296753,NA
239,3!4zpq5,False,224,2,equal,ST2_low_1_a1,P = T1?,Same,2,1,low,82,1.22,132,0.99,132,0.94,No,sure,cr,1.5792529582977295,NA
240,3!4zpq5,False,225,2,equal,ST1_low_2_a1,P = T2?,Same,1,1,low,132,1.02,82,1.49,132,0.79,No,quiteSure,cr,3.051215171813965,NA
241,3!4zpq5,False,226,2,equal,ST2_low_4_a2,P = T2?,Same,2,2,low,112,1.14,70,1.44,70,1.48,Yes,sure,hit,2.1380231380462646,NA
242,3!4zpq5,False,227,2,equal,ST1_low_1_a2,P = T2?,Same,1,2,low,82,1.41,132,0.96,82,1.26,No,sure,cr,2.025954008102417,NA
243,3!4zpq5,False,228,2,equal,ST1_high_5_a1,P = T1?,Same,1,1,high,96,1.28,132,1.0,96,1.37,Yes,sure,hit,1.8459913730621338,NA
244,3!4zpq5,False,229,2,equal,ST2_low_5_a1,P = T2?,Same,2,1,low,96,1.41,154,0.78,154,0.75,Yes,quiteSure,hit,4.29786491394043,NA
245,3!4zpq5,False,230,2,equal,ST1_low_5_a2,P = T2?,Same,1,2,low,96,1.26,154,0.9,96,1.35,No,sure,cr,1.7083048820495605,NA
246,3!4zpq5,False,231,2,equal,ST2_high_1_a2,P = T2?,Same,2,2,high,82,1.4,112,1.11,112,0.98,Yes,sure,hit,1.8482201099395752,NA
247,3!4zpq5,False,232,2,equal,ST1_low_4_a1,P = T1?,Same,1,1,low,112,1.22,70,1.44,112,1.04,Yes,sure,hit,1.0077199935913086,NA
248,3!4zpq5,False,233,2,equal,ST1_high_2_a2,P = T1?,Same,1,2,high,112,0.92,82,1.43,112,1.12,Yes,quiteSure,hit,1.6013140678405762,NA
249,3!4zpq5,False,234,2,equal,DT2_high_3_a1,P = T2?,Different,2,1,high,70,1.62,96,1.11,112,0.93,Yes,quiteSure,hit,3.802572011947632,NA
250,3!4zpq5,False,235,2,equal,ST2_low_1_a1,P = T1?,Same,2,1,low,82,1.49,132,1.02,132,0.95,No,sure,cr,1.3316740989685059,NA
251,3!4zpq5,False,236,2,equal,ST2_low_2_a2,P = T1?,Same,2,2,low,132,1.02,82,1.61,82,1.58,No,sure,cr,1.5978260040283203,NA
252,3!4zpq5,False,237,2,equal,ST1_high_5_a1,P = T2?,Same,1,1,high,96,1.34,132,0.82,96,1.08,No,quiteSure,cr,1.3699772357940674,NA
253,3!4zpq5,False,238,2,equal,ST2_high_4_a1,P = T2?,Same,2,1,high,96,1.29,70,1.58,70,1.67,Yes,sure,hit,1.0355169773101807,NA
254,3!4zpq5,False,239,2,equal,ST1_low_6_a1,P = T1?,Same,1,1,low,154,0.85,96,1.33,154,0.87,Yes,sure,hit,1.1030900478363037,NA
255,3!4zpq5,False,240,2,equal,ST1_high_6_a2,P = T2?,Same,1,2,high,132,0.84,96,1.2,132,0.87,No,quiteSure,cr,1.6391570568084717,NA
256,3!4zpq5,False,241,2,equal,ST1_low_2_a2,P = T2?,Same,1,2,low,132,0.87,82,1.26,132,0.92,No,quiteSure,cr,2.273736000061035,NA
257,3!4zpq5,False,242,2,equal,DT2_low_6_a2,P = T1?,Different,2,2,low,154,0.79,96,1.37,82,1.56,Yes,quiteSure,fa,1.9774799346923828,NA
258,3!4zpq5,False,243,2,equal,ST2_high_3_a1,P = T2?,Same,2,1,high,70,1.56,96,1.25,96,1.17,Yes,sure,hit,0.8802671432495117,NA
259,3!4zpq5,False,244,2,equal,ST2_high_6_a1,P = T2?,Same,2,1,high,132,0.91,96,1.35,96,1.16,Yes,quiteSure,hit,1.9126479625701904,NA
260,3!4zpq5,False,245,2,equal,ST2_low_4_a2,P = T1?,Same,2,2,low,112,1.07,70,1.52,70,1.77,No,quiteSure,cr,2.0475258827209473,NA
261,3!4zpq5,False,246,2,equal,ST2_high_1_a1,P = T2?,Same,2,1,high,82,1.29,112,1.0,112,1.0,Yes,sure,hit,1.0655128955841064,NA
262,3!4zpq5,False,247,2,equal,ST2_high_4_a2,P = T1?,Same,2,2,high,96,1.23,70,1.77,70,1.44,No,unsure,cr,1.826348066329956,NA
263,3!4zpq5,False,248,2,equal,ST2_high_3_a2,P = T1?,Same,2,2,high,70,1.73,96,1.31,96,1.2,No,sure,cr,1.2788431644439697,NA
264,3!4zpq5,False,249,2,equal,ST2_low_1_a2,P = T2?,Same,2,2,low,82,1.61,132,0.83,132,0.98,Yes,sure,hit,1.104097843170166,NA
265,3!4zpq5,False,250,2,equal,ST2_high_5_a1,P = T1?,Same,2,1,high,96,1.34,132,1.06,132,0.85,No,quiteSure,cr,1.3039140701293945,NA
266,3!4zpq5,False,251,2,equal,ST2_low_3_a2,P = T2?,Same,2,2,low,70,1.72,112,1.21,112,0.94,Yes,sure,hit,1.3304619789123535,NA
267,3!4zpq5,False,252,2,equal,ST2_high_1_a1,P = T1?,Same,2,1,high,82,1.42,112,0.98,112,0.94,Yes,quiteSure,fa,2.384075880050659,NA
268,3!4zpq5,False,253,2,equal,ST1_high_3_a2,P = T1?,Same,1,2,high,70,1.4,96,1.19,70,1.51,Yes,sure,hit,2.0246782302856445,NA
269,3!4zpq5,False,254,2,equal,ST2_high_2_a1,P = T1?,Same,2,1,high,112,1.06,82,1.52,82,1.53,No,quiteSure,cr,1.4913032054901123,NA
270,3!4zpq5,False,255,2,equal,ST1_high_4_a1,P = T1?,Same,1,1,high,96,1.43,70,1.59,96,1.2,Yes,sure,hit,1.4358978271484375,NA
271,3!4zpq5,False,256,2,equal,ST1_high_2_a1,P = T1?,Same,1,1,high,112,1.22,82,1.31,112,1.22,Yes,quiteSure,hit,1.863901138305664,NA
272,3!4zpq5,False,257,2,equal,ST1_high_2_a2,P = T2?,Same,1,2,high,112,1.19,82,1.43,112,1.08,No,sure,cr,1.3960011005401611,NA
273,3!4zpq5,False,258,2,equal,STb_6_a2,P = T2?,Same,0,2,None,132,0.9,132,0.87,132,0.85,Yes,sure,hit,0.9173181056976318,NA
274,3!4zpq5,False,259,2,equal,DT1_high_5_a1,P = T2?,Different,1,1,high,96,1.26,132,0.84,82,1.3,No,sure,cr,1.732438087463379,NA
275,3!4zpq5,False,260,2,equal,ST1_high_3_a2,P = T2?,Same,1,2,high,70,1.41,96,1.28,70,1.75,No,sure,cr,1.8427181243896484,NA
276,3!4zpq5,False,261,2,equal,ST1_low_3_a2,P = T2?,Same,1,2,low,70,1.64,112,0.98,70,1.58,No,quiteSure,cr,1.4139840602874756,NA
277,3!4zpq5,False,262,2,equal,ST1_high_1_a2,P = T2?,Same,1,2,high,82,1.38,112,1.14,82,1.54,No,quiteSure,cr,1.8451018333435059,NA
278,3!4zpq5,False,263,2,equal,ST1_low_5_a2,P = T1?,Same,1,2,low,96,1.35,154,0.91,96,1.34,Yes,quiteSure,hit,3.1948721408843994,NA
279,3!4zpq5,False,264,2,equal,ST1_low_2_a2,P = T1?,Same,1,2,low,132,1.02,82,1.35,132,0.84,Yes,sure,hit,1.5039653778076172,NA
280,3!4zpq5,False,265,2,equal,ST2_low_4_a1,P = T2?,Same,2,1,low,112,1.02,70,1.44,70,1.7,No,quiteSure,miss,2.138916015625,NA
281,3!4zpq5,False,266,2,equal,ST2_low_5_a1,P = T1?,Same,2,1,low,96,1.39,154,0.91,154,0.8,No,sure,cr,1.3466508388519287,NA
282,3!4zpq5,False,267,2,equal,ST2_high_3_a2,P = T1?,Same,2,2,high,70,1.41,96,1.27,96,1.08,No,sure,cr,1.7297601699829102,NA
283,3!4zpq5,False,268,2,equal,ST1_high_1_a1,P = T2?,Same,1,1,high,82,1.49,112,1.16,82,1.59,No,sure,cr,1.2604928016662598,NA
284,3!4zpq5,False,269,2,equal,ST1_high_2_a1,P = T2?,Same,1,1,high,112,1.22,82,1.53,112,1.22,No,sure,cr,1.5539309978485107,NA
285,3!4zpq5,False,270,2,equal,STb_8_a1,P = T2?,Same,0,1,None,180,0.85,180,0.72,180,0.91,Yes,sure,hit,0.6307148933410645,NA
286,3!4zpq5,False,271,2,equal,ST2_low_2_a1,P = T2?,Same,2,1,low,132,1.03,82,1.32,82,1.25,Yes,sure,hit,1.488163948059082,NA
287,3!4zpq5,False,272,2,equal,ST1_high_2_a1,P = T1?,Same,1,1,high,112,1.2,82,1.5,112,1.07,Yes,sure,hit,1.4640002250671387,NA
288,3!4zpq5,False,273,2,equal,ST1_low_4_a2,P = T1?,Same,1,2,low,112,1.12,70,1.79,112,1.23,Yes,sure,hit,1.2168688774108887,NA
289,3!4zpq5,False,274,2,equal,ST1_low_6_a1,P = T2?,Same,1,1,low,154,0.89,96,1.2,154,0.91,No,quiteSure,cr,1.462528944015503,NA
290,3!4zpq5,False,275,2,equal,ST1_low_6_a2,P = T1?,Same,1,2,low,154,0.73,96,1.21,154,0.74,Yes,sure,hit,1.5306780338287354,NA
291,3!4zpq5,False,276,2,equal,ST1_high_6_a2,P = T1?,Same,1,2,high,132,0.93,96,1.28,132,0.8,Yes,sure,hit,1.237436056137085,NA
292,3!4zpq5,False,277,2,equal,ST2_high_2_a1,P = T2?,Same,2,1,high,112,1.14,82,1.38,82,1.37,Yes,sure,hit,2.226022720336914,NA
293,3!4zpq5,False,278,2,equal,ST2_high_6_a1,P = T2?,Same,2,1,high,132,1.04,96,1.41,96,1.21,Yes,quiteSure,hit,2.024240255355835,NA
294,3!4zpq5,False,279,2,equal,ST2_low_4_a1,P = T2?,Same,2,1,low,112,1.11,70,1.48,70,1.8,Yes,sure,hit,1.5773906707763672,NA
295,3!4zpq5,False,280,2,equal,ST1_high_6_a1,P = T2?,Same,1,1,high,132,0.91,96,1.39,132,0.92,No,sure,cr,1.2800381183624268,NA
296,3!4zpq5,False,281,2,equal,ST1_low_4_a1,P = T2?,Same,1,1,low,112,1.23,70,1.65,112,1.05,No,sure,cr,2.882448196411133,NA
297,3!4zpq5,False,282,2,equal,ST1_high_1_a1,P = T1?,Same,1,1,high,82,1.35,112,0.94,82,1.63,Yes,quiteSure,hit,1.682689905166626,NA
298,3!4zpq5,False,283,2,equal,DT1_high_3_a2,P = T1?,Different,1,2,high,70,1.69,96,1.36,60,1.77,Yes,quiteSure,hit,1.8851027488708496,NA
299,3!4zpq5,False,284,2,equal,ST2_high_2_a1,P = T1?,Same,2,1,high,112,0.97,82,1.43,82,1.34,No,sure,cr,1.533512830734253,NA
300,3!4zpq5,False,285,2,equal,ST1_high_5_a2,P = T1?,Same,1,2,high,96,1.13,132,0.81,96,1.37,Yes,quiteSure,hit,1.8470079898834229,NA
301,3!4zpq5,False,286,2,equal,ST2_low_3_a1,P = T2?,Same,2,1,low,70,1.76,112,1.01,112,1.1,Yes,sure,hit,1.420442819595337,NA
302,3!4zpq5,False,287,2,equal,ST1_high_6_a1,P = T1?,Same,1,1,high,132,1.04,96,1.24,132,0.81,Yes,sure,hit,2.0463480949401855,NA
303,3!4zpq5,False,288,2,equal,ST1_low_6_a1,P = T1?,Same,1,1,low,154,0.71,96,1.08,154,0.95,Yes,sure,hit,1.4401679039001465,NA
304,3!4zpq5,False,289,2,equal,ST1_low_2_a1,P = T1?,Same,1,1,low,132,0.88,82,1.4,132,0.98,Yes,sure,hit,1.5563907623291016,NA
305,3!4zpq5,False,290,2,equal,ST1_high_3_a1,P = T2?,Same,1,1,high,70,1.53,96,1.2,70,1.52,No,sure,cr,4.076524257659912,NA
306,3!4zpq5,False,291,2,equal,ST2_low_3_a2,P = T2?,Same,2,2,low,70,1.44,112,1.13,112,0.98,Yes,sure,hit,1.4830820560455322,NA
307,3!4zpq5,False,292,2,equal,ST1_high_2_a2,P = T2?,Same,1,2,high,112,0.99,82,1.58,112,1.21,No,sure,cr,1.4406461715698242,NA
308,3!4zpq5,False,293,2,equal,ST1_low_4_a1,P = T2?,Same,1,1,low,112,1.17,70,1.41,112,1.15,No,sure,cr,1.4423959255218506,NA
309,3!4zpq5,False,294,2,equal,ST1_low_4_a2,P = T2?,Same,1,2,low,112,1.14,70,1.4,112,1.05,No,sure,cr,1.3935511112213135,NA
310,3!4zpq5,False,295,2,equal,ST2_high_5_a1,P = T1?,Same,2,1,high,96,1.1,132,0.93,132,0.99,Yes,unsure,fa,2.0665528774261475,NA
311,3!4zpq5,False,296,2,equal,ST2_low_3_a2,P = T1?,Same,2,2,low,70,1.46,112,0.94,112,1.02,No,sure,cr,1.5261690616607666,NA
312,3!4zpq5,False,297,2,equal,ST2_high_6_a2,P = T1?,Same,2,2,high,132,1.06,96,1.33,96,1.34,No,quiteSure,cr,1.9552700519561768,NA
313,3!4zpq5,False,298,2,equal,ST1_high_5_a2,P = T1?,Same,1,2,high,96,1.12,132,0.94,96,1.09,Yes,sure,hit,1.3010890483856201,NA
314,3!4zpq5,False,299,2,equal,ST2_low_2_a1,P = T1?,Same,2,1,low,132,1.06,82,1.47,82,1.22,No,quiteSure,cr,2.4763147830963135,NA
315,3!4zpq5,False,300,2,equal,ST2_low_2_a2,P = T1?,Same,2,2,low,132,0.87,82,1.28,82,1.26,No,sure,cr,2.3842597007751465,NA
316,3!4zpq5,False,301,2,equal,ST2_high_1_a2,P = T2?,Same,2,2,high,82,1.63,112,1.19,112,0.93,Yes,sure,hit,2.383871078491211,NA
317,3!4zpq5,False,302,2,equal,ST2_high_5_a1,P = T2?,Same,2,1,high,96,1.39,132,1.02,132,1.05,Yes,sure,hit,1.3577601909637451,NA
318,3!4zpq5,False,303,2,equal,ST2_low_5_a2,P = T2?,Same,2,2,low,96,1.09,154,0.71,154,0.9,Yes,sure,hit,1.910539150238037,NA
319,3!4zpq5,False,304,2,equal,ST2_low_6_a1,P = T2?,Same,2,1,low,154,0.81,96,1.11,96,1.42,Yes,sure,hit,1.2150640487670898,NA
320,3!4zpq5,False,305,2,equal,DT1_low_3_a1,P = T1?,Different,1,1,low,70,1.45,112,1.04,60,1.98,No,sure,miss,1.6699049472808838,NA
321,3!4zpq5,False,306,2,equal,ST2_high_5_a2,P = T1?,Same,2,2,high,96,1.36,132,0.87,132,0.88,No,quiteSure,cr,1.909142017364502,NA
322,3!4zpq5,False,307,2,equal,ST1_low_1_a2,P = T2?,Same,1,2,low,82,1.23,132,0.79,82,1.4,No,sure,cr,1.5088870525360107,NA
323,3!4zpq5,False,308,2,equal,DT2_low_5_a2,P = T2?,Different,2,2,low,96,1.36,154,0.78,180,0.87,Yes,sure,hit,1.5730962753295898,NA
324,3!4zpq5,False,309,2,equal,ST1_low_4_a2,P = T1?,Same,1,2,low,112,1.09,70,1.43,112,1.12,Yes,sure,hit,1.0813727378845215,NA
325,3!4zpq5,False,310,2,equal,ST2_low_1_a2,P = T2?,Same,2,2,low,82,1.47,132,1.03,132,0.84,Yes,sure,hit,1.285116195678711,NA
326,3!4zpq5,False,311,2,equal,ST1_low_1_a1,P = T1?,Same,1,1,low,82,1.37,132,0.86,82,1.6,Yes,sure,hit,2.0105931758880615,NA
327,3!4zpq5,False,312,2,equal,ST2_low_3_a1,P = T1?,Same,2,1,low,70,1.53,112,1.06,112,1.15,No,quiteSure,cr,2.449934244155884,NA
328,3!4zpq5,False,313,2,equal,ST1_low_3_a2,P = T1?,Same,1,2,low,70,1.82,112,0.97,70,1.77,No,quiteSure,miss,2.4321160316467285,NA
329,3!4zpq5,False,314,2,equal,ST2_high_3_a1,P = T1?,Same,2,1,high,70,1.53,96,1.26,96,1.2,Yes,unsure,fa,1.7768540382385254,NA
330,3!4zpq5,False,315,2,equal,ST1_high_3_a1,P = T2?,Same,1,1,high,70,1.52,96,1.13,70,1.75,Yes,unsure,fa,5.870963096618652,NA
331,3!4zpq5,False,316,2,equal,ST2_high_6_a1,P = T2?,Same,2,1,high,132,0.87,96,1.35,96,1.31,Yes,sure,hit,1.0788161754608154,NA
332,3!4zpq5,False,317,2,equal,ST2_high_6_a1,P = T1?,Same,2,1,high,132,0.95,96,1.26,96,1.22,No,sure,cr,1.1270837783813477,NA
333,3!4zpq5,False,318,2,equal,ST2_high_1_a2,P = T2?,Same,2,2,high,82,1.37,112,1.03,112,0.97,Yes,quiteSure,hit,1.4587290287017822,NA
334,3!4zpq5,False,319,2,equal,ST2_low_1_a2,P = T1?,Same,2,2,low,82,1.44,132,1.05,132,0.93,No,sure,cr,1.234114170074463,NA
335,3!4zpq5,False,320,2,equal,ST1_low_6_a1,P = T1?,Same,1,1,low,154,0.83,96,1.12,154,0.93,Yes,sure,hit,1.2668852806091309,0.25
