,pcode,practice,trial,block,questionType,condition,question,PTS,TargetPosition,AccessoryPosition,TNS,T1_hz,T1_amp,T2_hz,T2_amp,P_hz,P_amp,response_dicho,response_rating,response_sdt,rt,P_correct
0,l4j#10q,True,1,1,equal,ST2_low_5_a2,P = T2?,Same,2,2,low,96,1.08,154,0.95,154,0.74,Yes,quiteSure,hit,1.1965508460998535,NA
1,l4j#10q,True,2,1,equal,STb_5_a1,P = T1?,Same,0,1,None,112,0.95,112,1.03,112,0.93,No,quiteSure,miss,1.431283950805664,NA
2,l4j#10q,True,3,1,equal,ST2_low_3_a2,P = T1?,Same,2,2,low,70,1.64,112,1.08,112,0.9,No,quiteSure,cr,3.9058680534362793,NA
3,l4j#10q,True,4,1,equal,STb_7_a1,P = T2?,Same,0,1,None,154,0.76,154,0.78,154,0.91,Yes,unsure,hit,2.737840175628662,NA
4,l4j#10q,True,5,1,equal,DT2_low_4_a1,P = T2?,Different,2,1,low,112,1.2,70,1.56,60,1.93,Yes,quiteSure,hit,3.942169189453125,NA
5,l4j#10q,True,6,1,equal,ST2_high_6_a1,P = T1?,Same,2,1,high,132,0.93,96,1.36,96,1.04,Yes,unsure,fa,2.5471270084381104,NA
6,l4j#10q,True,7,1,equal,DT1_high_2_a1,P = T1?,Different,1,1,high,112,1.14,82,1.31,132,0.86,Yes,unsure,hit,3.3832449913024902,NA
7,l4j#10q,True,8,1,equal,ST1_low_2_a1,P = T2?,Same,1,1,low,132,1.0,82,1.42,132,0.8,No,quiteSure,cr,3.263749122619629,NA
8,l4j#10q,True,9,1,equal,ST1_low_2_a2,P = T1?,Same,1,2,low,132,1.11,82,1.54,132,0.86,Yes,quiteSure,hit,0.925703763961792,NA
9,l4j#10q,True,10,1,equal,DT2_high_5_a2,P = T2?,Different,2,2,high,96,1.14,132,0.99,154,0.86,No,unsure,miss,6.276806116104126,NA
10,l4j#10q,True,11,1,equal,ST1_low_2_a2,P = T2?,Same,1,2,low,132,0.72,82,1.28,132,0.99,No,unsure,cr,1.6452858448028564,NA
11,l4j#10q,True,12,1,equal,DT1_high_1_a2,P = T1?,Different,1,2,high,82,1.54,112,1.23,70,1.39,Yes,unsure,hit,6.9805707931518555,NA
12,l4j#10q,True,13,1,equal,STb_5_a2,P = T1?,Same,0,2,None,112,1.12,112,1.1,112,1.08,Yes,unsure,hit,1.597970962524414,NA
13,l4j#10q,True,14,1,equal,ST2_high_2_a1,P = T2?,Same,2,1,high,112,1.13,82,1.47,82,1.17,Yes,quiteSure,hit,1.0137009620666504,NA
14,l4j#10q,True,15,1,equal,ST1_high_2_a1,P = T1?,Same,1,1,high,112,0.93,82,1.19,112,0.99,Yes,quiteSure,hit,1.7336859703063965,NA
15,l4j#10q,True,16,1,equal,STb_1_a1,P = T2?,Same,0,1,None,60,1.64,60,1.9,60,1.8,Yes,quiteSure,hit,1.1305079460144043,0.625
16,l4j#10q,False,1,1,equal,ST2_high_4_a1,P = T2?,Same,2,1,high,96,1.26,70,1.49,70,1.51,Yes,quiteSure,hit,1.0855560302734375,NA
17,l4j#10q,False,2,1,equal,ST1_low_3_a2,P = T2?,Same,1,2,low,70,1.5,112,0.95,70,1.49,No,quiteSure,cr,2.8129220008850098,NA
18,l4j#10q,False,3,1,equal,DT2_low_3_a2,P = T1?,Different,2,2,low,70,1.62,112,1.1,132,0.79,No,quiteSure,cr,1.4405639171600342,NA
19,l4j#10q,False,4,1,equal,ST1_high_2_a2,P = T2?,Same,1,2,high,112,1.13,82,1.46,112,0.92,No,quiteSure,cr,1.3240458965301514,NA
20,l4j#10q,False,5,1,equal,ST2_high_2_a1,P = T1?,Same,2,1,high,112,1.11,82,1.34,82,1.61,No,unsure,cr,2.0493850708007812,NA
21,l4j#10q,False,6,1,equal,ST1_high_5_a1,P = T1?,Same,1,1,high,96,1.33,132,0.85,96,1.28,No,unsure,miss,2.1588401794433594,NA
22,l4j#10q,False,7,1,equal,ST2_high_1_a1,P = T2?,Same,2,1,high,82,1.42,112,1.05,112,0.98,Yes,unsure,hit,1.4869399070739746,NA
23,l4j#10q,False,8,1,equal,ST2_low_5_a2,P = T1?,Same,2,2,low,96,1.08,154,0.87,154,0.75,No,unsure,cr,1.303375005722046,NA
24,l4j#10q,False,9,1,equal,ST2_high_4_a2,P = T1?,Same,2,2,high,96,1.2,70,1.75,70,1.37,No,quiteSure,cr,1.3312952518463135,NA
25,l4j#10q,False,10,1,equal,ST2_high_4_a1,P = T1?,Same,2,1,high,96,1.18,70,1.41,70,1.61,No,quiteSure,cr,2.3204188346862793,NA
26,l4j#10q,False,11,1,equal,ST2_low_3_a2,P = T1?,Same,2,2,low,70,1.4,112,0.98,112,1.0,No,unsure,cr,1.5062322616577148,NA
27,l4j#10q,False,12,1,equal,ST1_low_4_a2,P = T2?,Same,1,2,low,112,0.94,70,1.5,112,1.09,No,unsure,cr,1.647461175918579,NA
28,l4j#10q,False,13,1,equal,ST1_high_1_a1,P = T2?,Same,1,1,high,82,1.3,112,0.97,82,1.27,No,unsure,cr,2.274886131286621,NA
29,l4j#10q,False,14,1,equal,ST2_high_3_a1,P = T2?,Same,2,1,high,70,1.81,96,1.2,96,1.08,No,unsure,miss,2.9469027519226074,NA
30,l4j#10q,False,15,1,equal,ST2_high_5_a1,P = T2?,Same,2,1,high,96,1.28,132,1.05,132,0.8,Yes,unsure,hit,1.186979055404663,NA
31,l4j#10q,False,16,1,equal,ST2_low_6_a2,P = T1?,Same,2,2,low,154,0.95,96,1.22,96,1.15,No,unsure,cr,1.3282320499420166,NA
32,l4j#10q,False,17,1,equal,ST2_high_3_a1,P = T1?,Same,2,1,high,70,1.69,96,1.15,96,1.42,Yes,unsure,fa,5.232152223587036,NA
33,l4j#10q,False,18,1,equal,ST1_low_5_a2,P = T1?,Same,1,2,low,96,1.26,154,0.72,96,1.35,No,unsure,miss,2.047579288482666,NA
34,l4j#10q,False,19,1,equal,ST2_low_5_a1,P = T2?,Same,2,1,low,96,1.16,154,0.9,154,0.83,Yes,quiteSure,hit,1.104722023010254,NA
35,l4j#10q,False,20,1,equal,ST1_low_5_a2,P = T1?,Same,1,2,low,96,1.11,154,0.76,96,1.14,No,unsure,miss,1.0149848461151123,NA
36,l4j#10q,False,21,1,equal,ST1_high_6_a2,P = T1?,Same,1,2,high,132,0.97,96,1.4,132,1.0,Yes,quiteSure,hit,1.8323140144348145,NA
37,l4j#10q,False,22,1,equal,ST1_low_1_a1,P = T1?,Same,1,1,low,82,1.51,132,0.89,82,1.28,No,unsure,miss,1.822709560394287,NA
38,l4j#10q,False,23,1,equal,DT2_high_2_a2,P = T2?,Different,2,2,high,112,1.17,82,1.47,70,1.62,Yes,quiteSure,hit,2.4987809658050537,NA
39,l4j#10q,False,24,1,equal,ST2_high_3_a1,P = T1?,Same,2,1,high,70,1.42,96,1.1,96,1.09,No,quiteSure,cr,1.3977069854736328,NA
40,l4j#10q,False,25,1,equal,ST2_low_6_a2,P = T2?,Same,2,2,low,154,0.81,96,1.31,96,1.29,No,quiteSure,miss,2.901817798614502,NA
41,l4j#10q,False,26,1,equal,ST2_low_4_a2,P = T1?,Same,2,2,low,112,1.2,70,1.76,70,1.42,Yes,unsure,fa,5.9408042430877686,NA
42,l4j#10q,False,27,1,equal,ST2_low_3_a2,P = T2?,Same,2,2,low,70,1.39,112,0.95,112,1.23,No,quiteSure,miss,1.0850977897644043,NA
43,l4j#10q,False,28,1,equal,ST1_high_2_a2,P = T1?,Same,1,2,high,112,0.94,82,1.29,112,1.16,No,unsure,miss,3.176541328430176,NA
44,l4j#10q,False,29,1,equal,ST1_high_3_a2,P = T1?,Same,1,2,high,70,1.75,96,1.41,70,1.67,Yes,unsure,hit,2.7936959266662598,NA
45,l4j#10q,False,30,1,equal,ST1_high_2_a1,P = T2?,Same,1,1,high,112,1.13,82,1.56,112,1.09,Yes,unsure,fa,3.287520170211792,NA
46,l4j#10q,False,31,1,equal,DT2_high_4_a1,P = T1?,Different,2,1,high,96,1.33,70,1.45,60,1.96,Yes,unsure,fa,2.4308440685272217,NA
47,l4j#10q,False,32,1,equal,ST2_low_5_a2,P = T1?,Same,2,2,low,96,1.2,154,0.9,154,0.72,Yes,unsure,fa,4.009310960769653,NA
48,l4j#10q,False,33,1,equal,ST1_high_2_a1,P = T2?,Same,1,1,high,112,1.0,82,1.5,112,1.15,No,quiteSure,cr,2.237734794616699,NA
49,l4j#10q,False,34,1,equal,ST2_high_2_a2,P = T2?,Same,2,2,high,112,1.06,82,1.35,82,1.53,No,quiteSure,miss,1.501164197921753,NA
50,l4j#10q,False,35,1,equal,ST1_low_3_a2,P = T2?,Same,1,2,low,70,1.79,112,1.06,70,1.53,No,quiteSure,cr,2.1382017135620117,NA
51,l4j#10q,False,36,1,equal,ST2_high_6_a2,P = T2?,Same,2,2,high,132,1.02,96,1.13,96,1.22,No,quiteSure,miss,4.253658056259155,NA
52,l4j#10q,False,37,1,equal,ST1_low_2_a2,P = T2?,Same,1,2,low,132,0.87,82,1.42,132,1.05,No,quiteSure,cr,1.4507839679718018,NA
53,l4j#10q,False,38,1,equal,ST2_low_5_a2,P = T2?,Same,2,2,low,96,1.12,154,0.78,154,0.87,Yes,quiteSure,hit,1.171280860900879,NA
54,l4j#10q,False,39,1,equal,ST2_low_4_a2,P = T1?,Same,2,2,low,112,1.2,70,1.83,70,1.68,No,quiteSure,cr,1.1399259567260742,NA
55,l4j#10q,False,40,1,equal,ST2_high_5_a2,P = T1?,Same,2,2,high,96,1.41,132,1.0,132,0.82,No,unsure,cr,1.1498267650604248,NA
56,l4j#10q,False,41,1,equal,ST1_low_1_a2,P = T1?,Same,1,2,low,82,1.33,132,0.79,82,1.27,No,unsure,miss,4.844672918319702,NA
57,l4j#10q,False,42,1,equal,ST1_low_5_a2,P = T2?,Same,1,2,low,96,1.06,154,0.94,96,1.22,Yes,unsure,fa,2.1804428100585938,NA
58,l4j#10q,False,43,1,equal,DT2_low_6_a2,P = T1?,Different,2,2,low,154,0.82,96,1.1,82,1.25,Yes,unsure,fa,10.487129926681519,NA
59,l4j#10q,False,44,1,equal,ST2_low_6_a1,P = T2?,Same,2,1,low,154,0.95,96,1.16,96,1.23,Yes,quiteSure,hit,0.9904391765594482,NA
60,l4j#10q,False,45,1,equal,ST2_high_2_a2,P = T1?,Same,2,2,high,112,1.12,82,1.59,82,1.3,No,unsure,cr,3.173758029937744,NA
61,l4j#10q,False,46,1,equal,ST1_low_6_a1,P = T1?,Same,1,1,low,154,0.77,96,1.37,154,0.88,No,unsure,miss,1.4410839080810547,NA
62,l4j#10q,False,47,1,equal,ST1_high_2_a1,P = T1?,Same,1,1,high,112,1.0,82,1.48,112,1.09,No,quiteSure,miss,1.0829570293426514,NA
63,l4j#10q,False,48,1,equal,ST1_high_6_a1,P = T2?,Same,1,1,high,132,1.06,96,1.1,132,0.88,Yes,quiteSure,fa,1.0370612144470215,NA
64,l4j#10q,False,49,1,equal,ST1_high_6_a1,P = T1?,Same,1,1,high,132,0.92,96,1.39,132,0.93,Yes,quiteSure,hit,1.2857959270477295,NA
65,l4j#10q,False,50,1,equal,ST1_low_1_a1,P = T1?,Same,1,1,low,82,1.4,132,0.89,82,1.28,Yes,unsure,hit,1.6747181415557861,NA
66,l4j#10q,False,51,1,equal,ST2_low_2_a2,P = T2?,Same,2,2,low,132,1.0,82,1.36,82,1.29,Yes,quiteSure,hit,1.0100290775299072,NA
67,l4j#10q,False,52,1,equal,ST1_low_2_a1,P = T2?,Same,1,1,low,132,0.86,82,1.27,132,0.88,No,unsure,cr,5.084134817123413,NA
68,l4j#10q,False,53,1,equal,ST2_high_1_a1,P = T1?,Same,2,1,high,82,1.26,112,1.07,112,1.23,No,unsure,cr,7.577282905578613,NA
69,l4j#10q,False,54,1,equal,ST1_low_3_a1,P = T2?,Same,1,1,low,70,1.79,112,1.12,70,1.68,No,quiteSure,cr,1.2922160625457764,NA
70,l4j#10q,False,55,1,equal,ST1_high_4_a1,P = T2?,Same,1,1,high,96,1.13,70,1.84,96,1.33,No,quiteSure,cr,1.3513257503509521,NA
71,l4j#10q,False,56,1,equal,ST2_low_6_a2,P = T2?,Same,2,2,low,154,0.79,96,1.23,96,1.32,Yes,quiteSure,hit,1.6639580726623535,NA
72,l4j#10q,False,57,1,equal,STb_7_a1,P = T1?,Same,0,1,None,154,0.76,154,0.85,154,0.82,Yes,sure,hit,2.653362989425659,NA
73,l4j#10q,False,58,1,equal,ST1_high_6_a1,P = T2?,Same,1,1,high,132,0.92,96,1.21,132,0.82,Yes,quiteSure,fa,1.3044061660766602,NA
74,l4j#10q,False,59,1,equal,ST2_low_1_a2,P = T2?,Same,2,2,low,82,1.43,132,0.89,132,0.97,Yes,quiteSure,hit,1.260232925415039,NA
75,l4j#10q,False,60,1,equal,ST2_low_5_a1,P = T1?,Same,2,1,low,96,1.22,154,0.78,154,0.85,Yes,quiteSure,fa,1.287003755569458,NA
76,l4j#10q,False,61,1,equal,ST2_low_2_a1,P = T1?,Same,2,1,low,132,0.9,82,1.53,82,1.5,No,unsure,cr,2.046384811401367,NA
77,l4j#10q,False,62,1,equal,ST2_high_2_a1,P = T2?,Same,2,1,high,112,1.23,82,1.47,82,1.53,Yes,quiteSure,hit,2.3610007762908936,NA
78,l4j#10q,False,63,1,equal,DT2_low_6_a2,P = T2?,Different,2,2,low,154,0.93,96,1.18,82,1.39,Yes,quiteSure,hit,1.6881752014160156,NA
79,l4j#10q,False,64,1,equal,ST1_high_5_a2,P = T1?,Same,1,2,high,96,1.15,132,0.8,96,1.31,No,unsure,miss,1.9562959671020508,NA
80,l4j#10q,False,65,1,equal,ST1_low_2_a1,P = T2?,Same,1,1,low,132,0.84,82,1.56,132,1.01,No,quiteSure,cr,2.186038017272949,NA
81,l4j#10q,False,66,1,equal,ST1_low_4_a2,P = T2?,Same,1,2,low,112,1.21,70,1.76,112,1.08,No,quiteSure,cr,1.8001117706298828,NA
82,l4j#10q,False,67,1,equal,ST2_low_6_a1,P = T1?,Same,2,1,low,154,0.95,96,1.16,96,1.42,No,unsure,cr,4.115189075469971,NA
83,l4j#10q,False,68,1,equal,ST1_low_3_a1,P = T1?,Same,1,1,low,70,1.8,112,1.21,70,1.61,Yes,quiteSure,hit,4.142526865005493,NA
84,l4j#10q,False,69,1,equal,ST2_high_5_a1,P = T1?,Same,2,1,high,96,1.36,132,0.88,132,0.98,Yes,quiteSure,fa,2.0918710231781006,NA
85,l4j#10q,False,70,1,equal,ST2_low_4_a1,P = T1?,Same,2,1,low,112,1.21,70,1.58,70,1.58,No,unsure,cr,7.562244176864624,NA
86,l4j#10q,False,71,1,equal,ST1_low_4_a1,P = T2?,Same,1,1,low,112,1.04,70,1.65,112,1.08,No,quiteSure,cr,1.578815221786499,NA
87,l4j#10q,False,72,1,equal,ST1_high_6_a1,P = T1?,Same,1,1,high,132,1.05,96,1.24,132,0.91,Yes,quiteSure,hit,1.3029379844665527,NA
88,l4j#10q,False,73,1,equal,ST1_low_1_a2,P = T1?,Same,1,2,low,82,1.35,132,0.97,82,1.35,No,quiteSure,miss,4.394663095474243,NA
89,l4j#10q,False,74,1,equal,ST1_low_6_a1,P = T2?,Same,1,1,low,154,0.93,96,1.25,154,0.78,No,unsure,cr,3.039450168609619,NA
90,l4j#10q,False,75,1,equal,ST2_low_3_a2,P = T1?,Same,2,2,low,70,1.56,112,0.94,112,1.22,No,unsure,cr,3.8936808109283447,NA
91,l4j#10q,False,76,1,equal,ST2_low_1_a2,P = T2?,Same,2,2,low,82,1.32,132,0.8,132,0.88,Yes,unsure,hit,3.532636880874634,NA
92,l4j#10q,False,77,1,equal,STb_7_a2,P = T2?,Same,0,2,None,154,0.77,154,0.74,154,0.75,Yes,quiteSure,hit,1.172346830368042,NA
93,l4j#10q,False,78,1,equal,ST2_low_4_a1,P = T2?,Same,2,1,low,112,0.94,70,1.48,70,1.69,Yes,quiteSure,hit,1.1763639450073242,NA
94,l4j#10q,False,79,1,equal,DT1_low_2_a1,P = T1?,Different,1,1,low,132,0.92,82,1.29,154,0.86,No,quiteSure,miss,1.8786580562591553,NA
95,l4j#10q,False,80,1,equal,ST1_low_6_a2,P = T2?,Same,1,2,low,154,0.74,96,1.2,154,0.88,No,quiteSure,cr,1.0594911575317383,NA
96,l4j#10q,False,81,1,equal,ST2_low_1_a1,P = T1?,Same,2,1,low,82,1.57,132,0.8,132,1.04,No,unsure,cr,1.0569767951965332,NA
97,l4j#10q,False,82,1,equal,ST2_high_3_a1,P = T2?,Same,2,1,high,70,1.42,96,1.08,96,1.19,Yes,quiteSure,hit,1.3064696788787842,NA
98,l4j#10q,False,83,1,equal,ST2_high_3_a2,P = T2?,Same,2,2,high,70,1.62,96,1.22,96,1.25,Yes,unsure,hit,1.2409391403198242,NA
99,l4j#10q,False,84,1,equal,ST2_high_1_a1,P = T2?,Same,2,1,high,82,1.58,112,1.02,112,0.98,No,unsure,miss,2.424771785736084,NA
100,l4j#10q,False,85,1,equal,ST1_low_5_a2,P = T2?,Same,1,2,low,96,1.41,154,0.74,96,1.33,No,unsure,cr,3.733872175216675,NA
101,l4j#10q,False,86,1,equal,ST2_low_1_a1,P = T2?,Same,2,1,low,82,1.4,132,0.9,132,1.04,No,unsure,miss,6.074887037277222,NA
102,l4j#10q,False,87,1,equal,ST1_low_3_a2,P = T1?,Same,1,2,low,70,1.76,112,1.18,70,1.59,Yes,quiteSure,hit,1.2836458683013916,NA
103,l4j#10q,False,88,1,equal,ST1_high_5_a1,P = T2?,Same,1,1,high,96,1.39,132,0.87,96,1.3,No,quiteSure,cr,2.9262521266937256,NA
104,l4j#10q,False,89,1,equal,ST1_low_6_a2,P = T1?,Same,1,2,low,154,0.92,96,1.27,154,0.87,Yes,quiteSure,hit,2.996274948120117,NA
105,l4j#10q,False,90,1,equal,ST1_low_5_a1,P = T1?,Same,1,1,low,96,1.39,154,0.75,96,1.4,Yes,unsure,hit,7.672597885131836,NA
106,l4j#10q,False,91,1,equal,ST1_high_1_a2,P = T2?,Same,1,2,high,82,1.54,112,1.02,82,1.56,No,quiteSure,cr,10.84451413154602,NA
107,l4j#10q,False,92,1,equal,ST1_high_3_a2,P = T1?,Same,1,2,high,70,1.71,96,1.24,70,1.45,Yes,unsure,hit,1.982555866241455,NA
108,l4j#10q,False,93,1,equal,ST1_low_1_a2,P = T2?,Same,1,2,low,82,1.31,132,0.95,82,1.64,No,quiteSure,cr,4.412600755691528,NA
109,l4j#10q,False,94,1,equal,ST1_high_3_a1,P = T1?,Same,1,1,high,70,1.42,96,1.2,70,1.7,No,quiteSure,miss,1.3971350193023682,NA
110,l4j#10q,False,95,1,equal,ST2_low_5_a2,P = T2?,Same,2,2,low,96,1.08,154,0.95,154,0.74,Yes,quiteSure,hit,1.1265690326690674,NA
111,l4j#10q,False,96,1,equal,ST1_low_2_a2,P = T1?,Same,1,2,low,132,0.98,82,1.63,132,1.05,Yes,unsure,hit,2.1376421451568604,NA
112,l4j#10q,False,97,1,equal,ST1_high_6_a2,P = T2?,Same,1,2,high,132,1.03,96,1.32,132,0.92,No,quiteSure,cr,3.5139808654785156,NA
113,l4j#10q,False,98,1,equal,ST1_low_4_a1,P = T2?,Same,1,1,low,112,1.14,70,1.78,112,1.15,No,quiteSure,cr,1.4366488456726074,NA
114,l4j#10q,False,99,1,equal,ST1_low_1_a1,P = T1?,Same,1,1,low,82,1.44,132,0.99,82,1.57,Yes,unsure,hit,2.2701878547668457,NA
115,l4j#10q,False,100,1,equal,ST1_high_3_a1,P = T2?,Same,1,1,high,70,1.79,96,1.17,70,1.78,No,quiteSure,cr,1.373844861984253,NA
116,l4j#10q,False,101,1,equal,ST2_low_1_a2,P = T1?,Same,2,2,low,82,1.26,132,0.81,132,0.98,No,quiteSure,cr,1.2173168659210205,NA
117,l4j#10q,False,102,1,equal,ST2_low_1_a2,P = T1?,Same,2,2,low,82,1.29,132,0.79,132,0.95,No,quiteSure,cr,1.644585132598877,NA
118,l4j#10q,False,103,1,equal,ST2_high_3_a1,P = T1?,Same,2,1,high,70,1.83,96,1.16,96,1.11,No,unsure,cr,2.6552298069000244,NA
119,l4j#10q,False,104,1,equal,ST1_low_3_a1,P = T1?,Same,1,1,low,70,1.59,112,1.2,70,1.46,Yes,unsure,hit,4.186480283737183,NA
120,l4j#10q,False,105,1,equal,ST1_low_1_a1,P = T2?,Same,1,1,low,82,1.6,132,0.82,82,1.6,No,quiteSure,cr,6.485307216644287,NA
121,l4j#10q,False,106,1,equal,STb_3_a2,P = T1?,Same,0,2,None,82,1.49,82,1.36,82,1.3,No,quiteSure,miss,1.1439990997314453,NA
122,l4j#10q,False,107,1,equal,STb_2_a1,P = T2?,Same,0,1,None,70,1.78,70,1.41,70,1.69,Yes,sure,hit,1.0807650089263916,NA
123,l4j#10q,False,108,1,equal,ST1_high_2_a2,P = T1?,Same,1,2,high,112,1.11,82,1.5,112,0.95,No,unsure,miss,2.386559009552002,NA
124,l4j#10q,False,109,1,equal,ST2_low_2_a2,P = T2?,Same,2,2,low,132,0.85,82,1.46,82,1.35,Yes,quiteSure,hit,1.151212215423584,NA
125,l4j#10q,False,110,1,equal,ST1_high_4_a2,P = T2?,Same,1,2,high,96,1.08,70,1.44,96,1.09,Yes,quiteSure,fa,2.9498751163482666,NA
126,l4j#10q,False,111,1,equal,ST1_low_2_a2,P = T2?,Same,1,2,low,132,0.9,82,1.53,132,0.95,No,quiteSure,cr,1.4394490718841553,NA
127,l4j#10q,False,112,1,equal,ST1_low_1_a2,P = T2?,Same,1,2,low,82,1.53,132,0.83,82,1.39,No,quiteSure,cr,3.6222500801086426,NA
128,l4j#10q,False,113,1,equal,ST2_low_5_a1,P = T2?,Same,2,1,low,96,1.31,154,0.76,154,0.94,Yes,unsure,hit,1.6677448749542236,NA
129,l4j#10q,False,114,1,equal,ST2_low_3_a1,P = T2?,Same,2,1,low,70,1.49,112,0.95,112,1.22,No,unsure,miss,1.5105259418487549,NA
130,l4j#10q,False,115,1,equal,ST1_low_2_a2,P = T1?,Same,1,2,low,132,1.01,82,1.48,132,0.83,Yes,quiteSure,hit,1.6425888538360596,NA
131,l4j#10q,False,116,1,equal,ST2_high_5_a2,P = T1?,Same,2,2,high,96,1.2,132,1.06,132,0.9,No,quiteSure,cr,2.277491331100464,NA
132,l4j#10q,False,117,1,equal,ST1_low_4_a1,P = T1?,Same,1,1,low,112,1.14,70,1.53,112,1.14,No,unsure,miss,1.84629487991333,NA
133,l4j#10q,False,118,1,equal,ST2_low_4_a2,P = T2?,Same,2,2,low,112,1.14,70,1.44,70,1.59,Yes,unsure,hit,2.9264631271362305,NA
134,l4j#10q,False,119,1,equal,ST1_low_3_a2,P = T1?,Same,1,2,low,70,1.47,112,1.22,70,1.63,Yes,quiteSure,hit,1.4828381538391113,NA
135,l4j#10q,False,120,1,equal,ST1_high_3_a2,P = T1?,Same,1,2,high,70,1.49,96,1.24,70,1.67,Yes,unsure,hit,2.0253610610961914,NA
136,l4j#10q,False,121,1,equal,ST2_high_4_a1,P = T1?,Same,2,1,high,96,1.31,70,1.55,70,1.69,No,unsure,cr,9.78728699684143,NA
137,l4j#10q,False,122,1,equal,ST1_high_3_a2,P = T2?,Same,1,2,high,70,1.43,96,1.37,70,1.68,No,unsure,cr,3.650441884994507,NA
138,l4j#10q,False,123,1,equal,ST2_high_3_a2,P = T2?,Same,2,2,high,70,1.69,96,1.27,96,1.23,Yes,unsure,hit,2.600908041000366,NA
139,l4j#10q,False,124,1,equal,ST2_high_4_a2,P = T2?,Same,2,2,high,96,1.12,70,1.45,70,1.39,Yes,quiteSure,hit,1.1241872310638428,NA
140,l4j#10q,False,125,1,equal,ST2_low_5_a1,P = T2?,Same,2,1,low,96,1.07,154,0.9,154,0.75,Yes,quiteSure,hit,1.034822940826416,NA
141,l4j#10q,False,126,1,equal,ST2_high_1_a2,P = T1?,Same,2,2,high,82,1.24,112,1.17,112,1.04,Yes,unsure,fa,0.3617699146270752,NA
142,l4j#10q,False,127,1,equal,ST1_high_4_a2,P = T1?,Same,1,2,high,96,1.4,70,1.8,96,1.15,No,unsure,miss,2.541343927383423,NA
143,l4j#10q,False,128,1,equal,ST1_low_1_a1,P = T2?,Same,1,1,low,82,1.27,132,0.86,82,1.45,No,sure,cr,1.8223848342895508,NA
144,l4j#10q,False,129,1,equal,ST1_low_3_a1,P = T2?,Same,1,1,low,70,1.42,112,0.96,70,1.38,No,quiteSure,cr,1.5342552661895752,NA
145,l4j#10q,False,130,1,equal,ST1_low_3_a2,P = T2?,Same,1,2,low,70,1.49,112,1.2,70,1.45,No,sure,cr,1.5364480018615723,NA
146,l4j#10q,False,131,1,equal,ST2_high_1_a2,P = T2?,Same,2,2,high,82,1.23,112,1.0,112,1.23,Yes,unsure,hit,5.425868034362793,NA
147,l4j#10q,False,132,1,equal,ST1_low_4_a1,P = T1?,Same,1,1,low,112,1.11,70,1.53,112,1.04,Yes,unsure,hit,5.041517019271851,NA
148,l4j#10q,False,133,1,equal,ST2_high_4_a2,P = T2?,Same,2,2,high,96,1.21,70,1.48,70,1.49,Yes,quiteSure,hit,1.0394408702850342,NA
149,l4j#10q,False,134,1,equal,ST1_low_5_a1,P = T2?,Same,1,1,low,96,1.33,154,0.78,96,1.42,No,quiteSure,cr,1.2855348587036133,NA
150,l4j#10q,False,135,1,equal,ST2_high_4_a2,P = T2?,Same,2,2,high,96,1.2,70,1.8,70,1.52,Yes,quiteSure,hit,1.0794141292572021,NA
151,l4j#10q,False,136,1,equal,ST2_high_6_a1,P = T2?,Same,2,1,high,132,0.9,96,1.18,96,1.17,Yes,unsure,hit,1.6650581359863281,NA
152,l4j#10q,False,137,1,equal,ST2_high_6_a1,P = T2?,Same,2,1,high,132,0.94,96,1.38,96,1.25,Yes,quiteSure,hit,0.877281904220581,NA
153,l4j#10q,False,138,1,equal,ST1_low_5_a1,P = T1?,Same,1,1,low,96,1.43,154,0.84,96,1.29,No,unsure,miss,1.6431007385253906,NA
154,l4j#10q,False,139,1,equal,ST2_low_3_a1,P = T1?,Same,2,1,low,70,1.7,112,0.99,112,1.23,No,unsure,cr,1.8886561393737793,NA
155,l4j#10q,False,140,1,equal,DT1_low_4_a2,P = T1?,Different,1,2,low,112,1.01,70,1.82,132,0.84,Yes,unsure,hit,2.6320080757141113,NA
156,l4j#10q,False,141,1,equal,ST2_low_4_a1,P = T2?,Same,2,1,low,112,1.13,70,1.53,70,1.83,Yes,unsure,hit,6.841006755828857,NA
157,l4j#10q,False,142,1,equal,ST2_high_2_a1,P = T2?,Same,2,1,high,112,1.13,82,1.47,82,1.17,Yes,unsure,hit,1.685441017150879,NA
158,l4j#10q,False,143,1,equal,ST1_high_6_a2,P = T1?,Same,1,2,high,132,0.79,96,1.2,132,0.81,Yes,unsure,hit,2.6574721336364746,NA
159,l4j#10q,False,144,1,equal,ST1_low_4_a1,P = T1?,Same,1,1,low,112,1.2,70,1.56,112,1.0,Yes,quiteSure,hit,1.3743720054626465,NA
160,l4j#10q,False,145,1,equal,ST2_low_2_a1,P = T1?,Same,2,1,low,132,1.02,82,1.49,82,1.27,No,quiteSure,cr,2.0957131385803223,NA
161,l4j#10q,False,146,1,equal,DT1_low_4_a1,P = T2?,Different,1,1,low,112,1.18,70,1.48,132,0.85,No,quiteSure,cr,2.859719753265381,NA
162,l4j#10q,False,147,1,equal,ST2_high_2_a1,P = T1?,Same,2,1,high,112,1.12,82,1.53,82,1.28,No,quiteSure,cr,1.46488618850708,NA
163,l4j#10q,False,148,1,equal,ST1_high_2_a1,P = T1?,Same,1,1,high,112,1.08,82,1.33,112,1.17,No,unsure,miss,1.8911938667297363,NA
164,l4j#10q,False,149,1,equal,ST2_high_1_a1,P = T1?,Same,2,1,high,82,1.5,112,1.23,112,1.18,No,quiteSure,cr,2.091324806213379,NA
165,l4j#10q,False,150,1,equal,STb_7_a2,P = T1?,Same,0,2,None,154,0.75,154,0.79,154,0.86,Yes,quiteSure,hit,0.923687219619751,NA
166,l4j#10q,False,151,1,equal,ST2_high_2_a1,P = T2?,Same,2,1,high,112,1.14,82,1.54,82,1.23,Yes,quiteSure,hit,0.8100347518920898,NA
167,l4j#10q,False,152,1,equal,ST2_high_5_a1,P = T1?,Same,2,1,high,96,1.21,132,0.96,132,0.91,No,quiteSure,cr,1.0345261096954346,NA
168,l4j#10q,False,153,1,equal,ST2_high_1_a1,P = T2?,Same,2,1,high,82,1.48,112,0.99,112,1.17,No,unsure,miss,2.4558699131011963,NA
169,l4j#10q,False,154,1,equal,ST2_high_2_a2,P = T1?,Same,2,2,high,112,1.1,82,1.56,82,1.39,No,unsure,cr,2.9499897956848145,NA
170,l4j#10q,False,155,1,equal,ST2_low_3_a1,P = T1?,Same,2,1,low,70,1.71,112,1.22,112,1.05,No,quiteSure,cr,6.996445894241333,NA
171,l4j#10q,False,156,1,equal,DT1_low_4_a2,P = T2?,Different,1,2,low,112,1.0,70,1.78,132,0.85,No,quiteSure,cr,1.5767719745635986,NA
172,l4j#10q,False,157,1,equal,ST2_high_1_a2,P = T1?,Same,2,2,high,82,1.48,112,1.09,112,0.98,Yes,unsure,fa,1.416924238204956,NA
173,l4j#10q,False,158,1,equal,ST2_low_6_a2,P = T2?,Same,2,2,low,154,0.79,96,1.13,96,1.11,Yes,unsure,hit,4.639994144439697,NA
174,l4j#10q,False,159,1,equal,ST1_low_5_a1,P = T2?,Same,1,1,low,96,1.29,154,0.85,96,1.37,No,quiteSure,cr,1.777904987335205,NA
175,l4j#10q,False,160,1,equal,ST2_high_6_a2,P = T2?,Same,2,2,high,132,0.8,96,1.12,96,1.37,No,unsure,miss,2.5452821254730225,NA
176,l4j#10q,False,161,1,equal,STb_4_a1,P = T2?,Same,0,1,None,96,1.3,96,1.32,96,1.12,No,quiteSure,miss,1.2634470462799072,NA
177,l4j#10q,False,162,1,equal,ST2_high_5_a2,P = T2?,Same,2,2,high,96,1.14,132,1.04,132,0.82,Yes,quiteSure,hit,7.292959928512573,NA
178,l4j#10q,False,163,1,equal,ST2_high_6_a1,P = T2?,Same,2,1,high,132,1.04,96,1.38,96,1.14,Yes,quiteSure,hit,1.0115559101104736,NA
179,l4j#10q,False,164,1,equal,ST1_high_3_a1,P = T2?,Same,1,1,high,70,1.58,96,1.17,70,1.41,No,quiteSure,cr,0.8333978652954102,NA
180,l4j#10q,False,165,1,equal,ST2_low_3_a1,P = T1?,Same,2,1,low,70,1.5,112,0.98,112,1.2,No,unsure,cr,1.7103519439697266,NA
181,l4j#10q,False,166,1,equal,ST1_high_5_a2,P = T2?,Same,1,2,high,96,1.25,132,0.99,96,1.42,No,quiteSure,cr,4.860606908798218,NA
182,l4j#10q,False,167,1,equal,ST1_high_1_a1,P = T1?,Same,1,1,high,82,1.36,112,1.02,82,1.54,No,sure,miss,2.133281707763672,NA
183,l4j#10q,False,168,1,equal,ST1_high_4_a2,P = T2?,Same,1,2,high,96,1.33,70,1.63,96,1.2,No,quiteSure,cr,3.1993820667266846,NA
184,l4j#10q,False,169,1,equal,ST1_low_6_a1,P = T2?,Same,1,1,low,154,0.86,96,1.38,154,0.82,No,sure,cr,1.229970932006836,NA
185,l4j#10q,False,170,1,equal,ST2_low_2_a1,P = T2?,Same,2,1,low,132,0.82,82,1.45,82,1.61,No,sure,miss,2.0277178287506104,NA
186,l4j#10q,False,171,1,equal,ST2_high_6_a1,P = T1?,Same,2,1,high,132,1.0,96,1.32,96,1.29,No,sure,cr,3.1278629302978516,NA
187,l4j#10q,False,172,1,equal,ST1_low_4_a2,P = T2?,Same,1,2,low,112,1.16,70,1.75,112,0.96,No,sure,cr,1.038855791091919,NA
188,l4j#10q,False,173,1,equal,ST2_high_1_a2,P = T2?,Same,2,2,high,82,1.29,112,1.23,112,1.23,Yes,quiteSure,hit,1.055638074874878,NA
189,l4j#10q,False,174,1,equal,ST1_high_5_a1,P = T2?,Same,1,1,high,96,1.28,132,1.06,96,1.34,No,quiteSure,cr,2.204957962036133,NA
190,l4j#10q,False,175,1,equal,ST2_low_1_a1,P = T1?,Same,2,1,low,82,1.61,132,1.06,132,0.84,No,quiteSure,cr,2.252817153930664,NA
191,l4j#10q,False,176,1,equal,ST1_high_5_a1,P = T1?,Same,1,1,high,96,1.4,132,0.85,96,1.14,No,unsure,miss,2.681490898132324,NA
192,l4j#10q,False,177,1,equal,ST2_low_3_a2,P = T2?,Same,2,2,low,70,1.38,112,1.05,112,0.97,Yes,quiteSure,hit,1.1249232292175293,NA
193,l4j#10q,False,178,1,equal,ST2_low_2_a2,P = T1?,Same,2,2,low,132,1.01,82,1.47,82,1.29,No,quiteSure,cr,1.754195213317871,NA
194,l4j#10q,False,179,1,equal,ST1_high_3_a1,P = T1?,Same,1,1,high,70,1.48,96,1.08,70,1.45,Yes,unsure,hit,4.005061149597168,NA
195,l4j#10q,False,180,1,equal,ST2_low_2_a1,P = T2?,Same,2,1,low,132,0.82,82,1.6,82,1.34,Yes,quiteSure,hit,1.3751270771026611,NA
196,l4j#10q,False,181,1,equal,ST1_low_4_a2,P = T1?,Same,1,2,low,112,0.92,70,1.66,112,0.99,No,unsure,miss,2.815823793411255,NA
197,l4j#10q,False,182,1,equal,ST2_high_3_a2,P = T2?,Same,2,2,high,70,1.84,96,1.33,96,1.26,Yes,quiteSure,hit,3.6487529277801514,NA
198,l4j#10q,False,183,1,equal,ST1_high_4_a2,P = T1?,Same,1,2,high,96,1.16,70,1.58,96,1.31,No,unsure,miss,2.785698175430298,NA
199,l4j#10q,False,184,1,equal,ST2_high_1_a2,P = T1?,Same,2,2,high,82,1.35,112,1.0,112,1.13,No,quiteSure,cr,4.367287874221802,NA
200,l4j#10q,False,185,1,equal,ST1_low_4_a2,P = T1?,Same,1,2,low,112,1.06,70,1.49,112,0.96,No,unsure,miss,4.209634065628052,NA
201,l4j#10q,False,186,1,equal,ST2_high_5_a1,P = T2?,Same,2,1,high,96,1.12,132,0.92,132,1.06,Yes,quiteSure,hit,1.0091750621795654,NA
202,l4j#10q,False,187,1,equal,ST1_low_2_a1,P = T1?,Same,1,1,low,132,0.98,82,1.47,132,0.84,Yes,quiteSure,hit,0.9456310272216797,NA
203,l4j#10q,False,188,1,equal,ST2_high_4_a1,P = T2?,Same,2,1,high,96,1.19,70,1.77,70,1.6,Yes,quiteSure,hit,0.8786449432373047,NA
204,l4j#10q,False,189,1,equal,ST2_low_6_a1,P = T1?,Same,2,1,low,154,0.77,96,1.06,96,1.21,No,unsure,cr,5.3101770877838135,NA
205,l4j#10q,False,190,1,equal,ST2_low_4_a1,P = T1?,Same,2,1,low,112,1.15,70,1.61,70,1.55,No,unsure,cr,1.239717960357666,NA
206,l4j#10q,False,191,1,equal,ST1_high_5_a1,P = T1?,Same,1,1,high,96,1.07,132,0.98,96,1.09,No,unsure,miss,15.773154020309448,NA
207,l4j#10q,False,192,1,equal,ST2_high_4_a2,P = T1?,Same,2,2,high,96,1.09,70,1.49,70,1.82,No,quiteSure,cr,1.3929331302642822,NA
208,l4j#10q,False,193,1,equal,ST2_high_4_a1,P = T2?,Same,2,1,high,96,1.23,70,1.58,70,1.77,Yes,quiteSure,hit,1.104496955871582,NA
209,l4j#10q,False,194,1,equal,ST2_low_6_a1,P = T1?,Same,2,1,low,154,0.95,96,1.19,96,1.22,Yes,quiteSure,fa,1.9822030067443848,NA
210,l4j#10q,False,195,1,equal,ST2_high_5_a1,P = T2?,Same,2,1,high,96,1.42,132,0.84,132,0.98,Yes,quiteSure,hit,0.9935867786407471,NA
211,l4j#10q,False,196,1,equal,ST1_low_4_a2,P = T1?,Same,1,2,low,112,1.06,70,1.45,112,1.15,Yes,unsure,hit,3.29367995262146,NA
212,l4j#10q,False,197,1,equal,ST2_low_6_a1,P = T2?,Same,2,1,low,154,0.79,96,1.29,96,1.32,No,quiteSure,miss,1.5305509567260742,NA
213,l4j#10q,False,198,1,equal,ST2_high_5_a1,P = T1?,Same,2,1,high,96,1.09,132,1.01,132,0.88,Yes,unsure,fa,2.8115041255950928,NA
214,l4j#10q,False,199,1,equal,ST2_low_4_a2,P = T1?,Same,2,2,low,112,1.15,70,1.8,70,1.84,No,quiteSure,cr,1.4432041645050049,NA
215,l4j#10q,False,200,1,equal,ST1_high_4_a1,P = T1?,Same,1,1,high,96,1.35,70,1.82,96,1.11,Yes,unsure,hit,5.577587842941284,NA
216,l4j#10q,False,201,1,equal,DT2_high_4_a1,P = T2?,Different,2,1,high,96,1.32,70,1.43,60,1.83,No,quiteSure,miss,1.2166500091552734,NA
217,l4j#10q,False,202,1,equal,ST1_high_2_a2,P = T2?,Same,1,2,high,112,1.18,82,1.42,112,1.09,Yes,quiteSure,fa,1.0098598003387451,NA
218,l4j#10q,False,203,1,equal,ST1_high_2_a2,P = T2?,Same,1,2,high,112,0.92,82,1.64,112,0.95,Yes,unsure,fa,1.2416110038757324,NA
219,l4j#10q,False,204,1,equal,ST2_low_4_a1,P = T2?,Same,2,1,low,112,0.99,70,1.79,70,1.47,Yes,quiteSure,hit,0.8982889652252197,NA
220,l4j#10q,False,205,1,equal,DT2_low_3_a1,P = T2?,Different,2,1,low,70,1.38,112,0.94,132,0.86,Yes,quiteSure,hit,1.3745558261871338,NA
221,l4j#10q,False,206,1,equal,ST1_low_1_a2,P = T1?,Same,1,2,low,82,1.48,132,0.88,82,1.55,No,quiteSure,miss,2.2550740242004395,NA
222,l4j#10q,False,207,1,equal,ST2_low_5_a1,P = T1?,Same,2,1,low,96,1.31,154,0.87,154,0.93,No,unsure,cr,5.439029932022095,NA
223,l4j#10q,False,208,1,equal,ST1_low_6_a2,P = T2?,Same,1,2,low,154,0.93,96,1.08,154,0.84,No,quiteSure,cr,1.5326242446899414,NA
224,l4j#10q,False,209,1,equal,ST1_high_4_a1,P = T2?,Same,1,1,high,96,1.23,70,1.83,96,1.34,No,quiteSure,cr,1.5523972511291504,NA
225,l4j#10q,False,210,1,equal,ST2_low_1_a1,P = T2?,Same,2,1,low,82,1.47,132,0.99,132,0.87,Yes,unsure,hit,5.2453789710998535,NA
226,l4j#10q,False,211,1,equal,ST1_high_3_a2,P = T2?,Same,1,2,high,70,1.45,96,1.34,70,1.37,No,quiteSure,cr,1.3510158061981201,NA
227,l4j#10q,False,212,1,equal,ST2_high_5_a2,P = T1?,Same,2,2,high,96,1.38,132,0.97,132,0.98,No,quiteSure,cr,8.572449684143066,NA
228,l4j#10q,False,213,1,equal,ST2_high_3_a2,P = T1?,Same,2,2,high,70,1.72,96,1.06,96,1.15,Yes,quiteSure,fa,1.059359073638916,NA
229,l4j#10q,False,214,1,equal,STb_3_a2,P = T2?,Same,0,2,None,82,1.64,82,1.47,82,1.63,Yes,quiteSure,hit,0.9187638759613037,NA
230,l4j#10q,False,215,1,equal,ST2_high_5_a2,P = T2?,Same,2,2,high,96,1.07,132,0.82,132,0.8,Yes,quiteSure,hit,0.9448740482330322,NA
231,l4j#10q,False,216,1,equal,ST1_high_1_a2,P = T1?,Same,1,2,high,82,1.31,112,1.22,82,1.26,No,unsure,miss,2.0907340049743652,NA
232,l4j#10q,False,217,1,equal,ST1_high_4_a2,P = T1?,Same,1,2,high,96,1.21,70,1.39,96,1.14,Yes,unsure,hit,1.444847822189331,NA
233,l4j#10q,False,218,1,equal,STb_1_a1,P = T2?,Same,0,1,None,60,1.64,60,1.9,60,1.8,Yes,quiteSure,hit,0.8130707740783691,NA
234,l4j#10q,False,219,1,equal,ST2_high_3_a2,P = T1?,Same,2,2,high,70,1.74,96,1.06,96,1.08,Yes,unsure,fa,2.411378860473633,NA
235,l4j#10q,False,220,1,equal,ST2_low_1_a1,P = T2?,Same,2,1,low,82,1.25,132,0.99,132,0.81,Yes,unsure,hit,5.8052449226379395,NA
236,l4j#10q,False,221,1,equal,DT1_low_3_a2,P = T1?,Different,1,2,low,70,1.74,112,0.96,60,1.68,Yes,unsure,hit,4.434179782867432,NA
237,l4j#10q,False,222,1,equal,ST1_high_2_a1,P = T2?,Same,1,1,high,112,1.09,82,1.45,112,1.02,No,unsure,cr,4.029618978500366,NA
238,l4j#10q,False,223,1,equal,ST1_high_6_a2,P = T2?,Same,1,2,high,132,0.81,96,1.34,132,0.87,No,unsure,cr,1.8231689929962158,NA
239,l4j#10q,False,224,1,equal,DT1_high_3_a1,P = T2?,Different,1,1,high,70,1.82,96,1.15,60,1.82,No,quiteSure,cr,1.6461501121520996,NA
240,l4j#10q,False,225,1,equal,ST2_low_5_a2,P = T2?,Same,2,2,low,96,1.3,154,0.95,154,0.81,Yes,quiteSure,hit,0.5451359748840332,NA
241,l4j#10q,False,226,1,equal,ST1_low_1_a1,P = T2?,Same,1,1,low,82,1.5,132,0.82,82,1.26,Yes,unsure,fa,1.0791001319885254,NA
242,l4j#10q,False,227,1,equal,ST1_low_3_a1,P = T2?,Same,1,1,low,70,1.55,112,1.17,70,1.65,No,quiteSure,cr,3.626399040222168,NA
243,l4j#10q,False,228,1,equal,ST1_high_4_a2,P = T2?,Same,1,2,high,96,1.35,70,1.44,96,1.1,No,quiteSure,cr,1.5986690521240234,NA
244,l4j#10q,False,229,1,equal,ST2_low_2_a2,P = T1?,Same,2,2,low,132,1.03,82,1.25,82,1.57,No,sure,cr,1.5483341217041016,NA
245,l4j#10q,False,230,1,equal,ST2_low_3_a2,P = T2?,Same,2,2,low,70,1.66,112,1.06,112,1.1,Yes,sure,hit,1.0549418926239014,NA
246,l4j#10q,False,231,1,equal,ST2_low_6_a2,P = T1?,Same,2,2,low,154,0.8,96,1.06,96,1.41,No,quiteSure,cr,1.5322771072387695,NA
247,l4j#10q,False,232,1,equal,ST2_low_5_a1,P = T1?,Same,2,1,low,96,1.39,154,0.79,154,0.76,Yes,quiteSure,fa,1.3326561450958252,NA
248,l4j#10q,False,233,1,equal,ST1_low_5_a2,P = T1?,Same,1,2,low,96,1.1,154,0.89,96,1.07,Yes,sure,hit,0.8568341732025146,NA
249,l4j#10q,False,234,1,equal,ST1_high_4_a1,P = T1?,Same,1,1,high,96,1.35,70,1.55,96,1.19,Yes,unsure,hit,3.1010501384735107,NA
250,l4j#10q,False,235,1,equal,ST1_high_1_a1,P = T1?,Same,1,1,high,82,1.54,112,1.18,82,1.4,Yes,unsure,hit,1.3288302421569824,NA
251,l4j#10q,False,236,1,equal,ST2_low_3_a2,P = T1?,Same,2,2,low,70,1.64,112,1.08,112,0.9,No,unsure,cr,1.9575040340423584,NA
252,l4j#10q,False,237,1,equal,ST1_high_1_a2,P = T2?,Same,1,2,high,82,1.3,112,1.12,82,1.49,No,quiteSure,cr,2.3679158687591553,NA
253,l4j#10q,False,238,1,equal,DT2_high_3_a2,P = T2?,Different,2,2,high,70,1.81,96,1.39,112,1.13,Yes,unsure,hit,1.2576513290405273,NA
254,l4j#10q,False,239,1,equal,ST1_low_2_a1,P = T1?,Same,1,1,low,132,0.98,82,1.3,132,0.93,Yes,unsure,hit,3.327991247177124,NA
255,l4j#10q,False,240,1,equal,ST1_high_1_a1,P = T2?,Same,1,1,high,82,1.3,112,0.98,82,1.44,No,quiteSure,cr,2.927879810333252,NA
256,l4j#10q,False,241,1,equal,ST1_high_2_a2,P = T1?,Same,1,2,high,112,1.18,82,1.45,112,1.21,Yes,unsure,hit,2.695486068725586,NA
257,l4j#10q,False,242,1,equal,ST1_high_1_a2,P = T2?,Same,1,2,high,82,1.59,112,1.17,82,1.53,No,quiteSure,cr,3.2311151027679443,NA
258,l4j#10q,False,243,1,equal,ST2_high_6_a1,P = T1?,Same,2,1,high,132,0.93,96,1.36,96,1.04,No,quiteSure,cr,1.75593900680542,NA
259,l4j#10q,False,244,1,equal,ST2_high_5_a2,P = T2?,Same,2,2,high,96,1.24,132,1.04,132,0.97,Yes,quiteSure,hit,1.1490960121154785,NA
260,l4j#10q,False,245,1,equal,ST1_high_1_a2,P = T1?,Same,1,2,high,82,1.25,112,1.04,82,1.45,No,unsure,miss,3.754427909851074,NA
261,l4j#10q,False,246,1,equal,ST1_high_4_a1,P = T2?,Same,1,1,high,96,1.37,70,1.57,96,1.2,No,unsure,cr,3.8467538356781006,NA
262,l4j#10q,False,247,1,equal,ST1_low_2_a1,P = T2?,Same,1,1,low,132,1.0,82,1.42,132,0.8,No,quiteSure,cr,10.125333070755005,NA
263,l4j#10q,False,248,1,equal,ST2_low_3_a1,P = T2?,Same,2,1,low,70,1.59,112,1.21,112,0.96,Yes,quiteSure,hit,1.7321689128875732,NA
264,l4j#10q,False,249,1,equal,ST2_low_1_a2,P = T2?,Same,2,2,low,82,1.51,132,1.05,132,0.98,Yes,quiteSure,hit,0.922961950302124,NA
265,l4j#10q,False,250,1,equal,DT2_low_1_a2,P = T1?,Different,2,2,low,82,1.59,132,0.95,154,0.88,No,unsure,cr,1.8234617710113525,NA
266,l4j#10q,False,251,1,equal,ST1_low_5_a1,P = T2?,Same,1,1,low,96,1.43,154,0.84,96,1.18,Yes,unsure,fa,1.263592004776001,NA
267,l4j#10q,False,252,1,equal,STb_4_a2,P = T2?,Same,0,2,None,96,1.32,96,1.31,96,1.32,Yes,quiteSure,hit,1.1730048656463623,NA
268,l4j#10q,False,253,1,equal,ST1_high_5_a2,P = T2?,Same,1,2,high,96,1.06,132,0.87,96,1.38,Yes,quiteSure,fa,0.9234349727630615,NA
269,l4j#10q,False,254,1,equal,ST2_high_6_a2,P = T1?,Same,2,2,high,132,0.81,96,1.43,96,1.13,No,unsure,cr,2.653352975845337,NA
270,l4j#10q,False,255,1,equal,ST2_high_2_a2,P = T2?,Same,2,2,high,112,1.03,82,1.63,82,1.22,Yes,quiteSure,hit,4.0274128913879395,NA
271,l4j#10q,False,256,1,equal,ST2_low_4_a2,P = T2?,Same,2,2,low,112,1.0,70,1.8,70,1.47,Yes,quiteSure,hit,1.1463451385498047,NA
272,l4j#10q,False,257,1,equal,ST2_low_2_a2,P = T2?,Same,2,2,low,132,0.91,82,1.43,82,1.46,Yes,quiteSure,hit,1.056610107421875,NA
273,l4j#10q,False,258,1,equal,ST1_high_4_a1,P = T1?,Same,1,1,high,96,1.3,70,1.44,96,1.34,Yes,quiteSure,hit,1.8203661441802979,NA
274,l4j#10q,False,259,1,equal,ST2_high_2_a2,P = T2?,Same,2,2,high,112,1.13,82,1.49,82,1.48,No,quiteSure,miss,1.2129321098327637,NA
275,l4j#10q,False,260,1,equal,ST1_low_6_a1,P = T1?,Same,1,1,low,154,0.85,96,1.24,154,0.83,Yes,unsure,hit,1.959892988204956,NA
276,l4j#10q,False,261,1,equal,ST1_low_6_a2,P = T1?,Same,1,2,low,154,0.87,96,1.29,154,0.73,No,quiteSure,miss,1.6861839294433594,NA
277,l4j#10q,False,262,1,equal,ST2_high_6_a2,P = T1?,Same,2,2,high,132,0.93,96,1.43,96,1.43,No,quiteSure,cr,3.1922099590301514,NA
278,l4j#10q,False,263,1,equal,ST2_high_3_a1,P = T2?,Same,2,1,high,70,1.84,96,1.29,96,1.14,Yes,quiteSure,hit,2.6096549034118652,NA
279,l4j#10q,False,264,1,equal,ST1_high_1_a1,P = T2?,Same,1,1,high,82,1.53,112,1.06,82,1.62,No,quiteSure,cr,5.088510036468506,NA
280,l4j#10q,False,265,1,equal,DT2_high_4_a2,P = T1?,Different,2,2,high,96,1.22,70,1.8,60,1.95,No,sure,cr,1.4032530784606934,NA
281,l4j#10q,False,266,1,equal,ST2_high_6_a2,P = T2?,Same,2,2,high,132,0.99,96,1.28,96,1.06,Yes,quiteSure,hit,1.0799648761749268,NA
282,l4j#10q,False,267,1,equal,STb_3_a1,P = T2?,Same,0,1,None,82,1.23,82,1.52,82,1.53,Yes,quiteSure,hit,3.46471905708313,NA
283,l4j#10q,False,268,1,equal,ST2_high_6_a2,P = T1?,Same,2,2,high,132,1.02,96,1.27,96,1.27,Yes,unsure,fa,1.4223690032958984,NA
284,l4j#10q,False,269,1,equal,ST1_high_1_a1,P = T1?,Same,1,1,high,82,1.42,112,1.04,82,1.24,No,quiteSure,miss,5.894434690475464,NA
285,l4j#10q,False,270,1,equal,STb_2_a1,P = T1?,Same,0,1,None,70,1.81,70,1.43,70,1.45,Yes,quiteSure,hit,1.1721000671386719,NA
286,l4j#10q,False,271,1,equal,STb_2_a2,P = T1?,Same,0,2,None,70,1.59,70,1.42,70,1.65,Yes,unsure,hit,1.2113769054412842,NA
287,l4j#10q,False,272,1,equal,ST1_low_6_a2,P = T2?,Same,1,2,low,154,0.8,96,1.13,154,0.73,No,quiteSure,cr,2.0039801597595215,NA
288,l4j#10q,False,273,1,equal,ST2_low_1_a2,P = T1?,Same,2,2,low,82,1.6,132,0.94,132,0.85,No,unsure,cr,3.760012149810791,NA
289,l4j#10q,False,274,1,equal,ST1_high_5_a2,P = T1?,Same,1,2,high,96,1.32,132,0.96,96,1.3,Yes,quiteSure,hit,1.778169870376587,NA
290,l4j#10q,False,275,1,equal,ST2_low_5_a2,P = T1?,Same,2,2,low,96,1.2,154,0.8,154,0.91,No,quiteSure,cr,1.484511137008667,NA
291,l4j#10q,False,276,1,equal,ST1_high_3_a2,P = T2?,Same,1,2,high,70,1.65,96,1.11,70,1.67,No,quiteSure,cr,1.8928377628326416,NA
292,l4j#10q,False,277,1,equal,ST1_low_2_a2,P = T1?,Same,1,2,low,132,1.11,82,1.54,132,0.86,Yes,quiteSure,hit,0.9899611473083496,NA
293,l4j#10q,False,278,1,equal,ST2_low_2_a2,P = T1?,Same,2,2,low,132,1.05,82,1.39,82,1.54,No,quiteSure,cr,1.4837791919708252,NA
294,l4j#10q,False,279,1,equal,ST2_low_6_a1,P = T2?,Same,2,1,low,154,0.74,96,1.11,96,1.3,Yes,unsure,hit,0.9449281692504883,NA
295,l4j#10q,False,280,1,equal,ST2_high_2_a2,P = T1?,Same,2,2,high,112,0.94,82,1.42,82,1.24,Yes,unsure,fa,2.0262441635131836,NA
296,l4j#10q,False,281,1,equal,ST2_low_1_a1,P = T1?,Same,2,1,low,82,1.28,132,0.83,132,0.92,No,unsure,cr,1.7441139221191406,NA
297,l4j#10q,False,282,1,equal,ST2_low_2_a1,P = T2?,Same,2,1,low,132,0.81,82,1.31,82,1.28,No,unsure,miss,2.815701961517334,NA
298,l4j#10q,False,283,1,equal,ST1_high_2_a1,P = T1?,Same,1,1,high,112,0.93,82,1.19,112,0.99,No,unsure,miss,3.510730028152466,NA
299,l4j#10q,False,284,1,equal,ST1_low_6_a1,P = T1?,Same,1,1,low,154,0.88,96,1.18,154,0.94,Yes,unsure,hit,6.166021108627319,NA
300,l4j#10q,False,285,1,equal,ST1_low_1_a2,P = T2?,Same,1,2,low,82,1.32,132,1.0,82,1.27,No,quiteSure,cr,1.5074329376220703,NA
301,l4j#10q,False,286,1,equal,ST2_low_4_a1,P = T1?,Same,2,1,low,112,0.98,70,1.76,70,1.77,No,quiteSure,cr,2.5482921600341797,NA
302,l4j#10q,False,287,1,equal,ST1_high_1_a2,P = T1?,Same,1,2,high,82,1.62,112,0.97,82,1.47,Yes,unsure,hit,2.815157175064087,NA
303,l4j#10q,False,288,1,equal,ST1_high_5_a2,P = T1?,Same,1,2,high,96,1.21,132,0.81,96,1.06,No,unsure,miss,2.768260955810547,NA
304,l4j#10q,False,289,1,equal,ST1_high_6_a2,P = T1?,Same,1,2,high,132,0.93,96,1.1,132,1.01,Yes,quiteSure,hit,4.996827840805054,NA
305,l4j#10q,False,290,1,equal,ST2_low_2_a1,P = T1?,Same,2,1,low,132,1.01,82,1.44,82,1.22,No,quiteSure,cr,2.612009286880493,NA
306,l4j#10q,False,291,1,equal,ST2_high_4_a1,P = T1?,Same,2,1,high,96,1.11,70,1.38,70,1.53,No,quiteSure,cr,4.7026207447052,NA
307,l4j#10q,False,292,1,equal,STb_6_a1,P = T1?,Same,0,1,None,132,1.06,132,0.97,132,0.8,Yes,unsure,hit,4.073557138442993,NA
308,l4j#10q,False,293,1,equal,ST1_low_3_a1,P = T1?,Same,1,1,low,70,1.58,112,0.98,70,1.73,No,unsure,miss,1.101227045059204,NA
309,l4j#10q,False,294,1,equal,ST2_low_6_a2,P = T1?,Same,2,2,low,154,0.72,96,1.21,96,1.14,Yes,unsure,fa,1.624450922012329,NA
310,l4j#10q,False,295,1,equal,ST1_high_5_a1,P = T2?,Same,1,1,high,96,1.26,132,1.0,96,1.08,No,unsure,cr,2.7656378746032715,NA
311,l4j#10q,False,296,1,equal,ST1_high_6_a1,P = T2?,Same,1,1,high,132,0.99,96,1.41,132,0.79,Yes,quiteSure,fa,6.882993221282959,NA
312,l4j#10q,False,297,1,equal,ST2_high_2_a1,P = T1?,Same,2,1,high,112,0.93,82,1.6,82,1.51,No,quiteSure,cr,4.294629812240601,NA
313,l4j#10q,False,298,1,equal,STb_4_a1,P = T1?,Same,0,1,None,96,1.34,96,1.13,96,1.24,Yes,quiteSure,hit,1.1470680236816406,NA
314,l4j#10q,False,299,1,equal,STb_1_a1,P = T1?,Same,0,1,None,60,1.75,60,1.83,60,1.89,Yes,quiteSure,hit,0.8548481464385986,NA
315,l4j#10q,False,300,1,equal,ST2_low_3_a1,P = T2?,Same,2,1,low,70,1.45,112,0.97,112,1.07,Yes,quiteSure,hit,1.2342278957366943,NA
316,l4j#10q,False,301,1,equal,ST1_low_2_a1,P = T1?,Same,1,1,low,132,1.04,82,1.45,132,1.0,Yes,unsure,hit,3.103785991668701,NA
317,l4j#10q,False,302,1,equal,ST2_high_1_a1,P = T1?,Same,2,1,high,82,1.59,112,1.04,112,1.09,Yes,unsure,fa,0.565892219543457,NA
318,l4j#10q,False,303,1,equal,ST1_low_2_a2,P = T2?,Same,1,2,low,132,0.72,82,1.28,132,0.99,No,quiteSure,cr,1.4379308223724365,NA
319,l4j#10q,False,304,1,equal,ST2_high_3_a2,P = T1?,Same,2,2,high,70,1.65,96,1.43,96,1.42,No,unsure,cr,4.907418966293335,NA
320,l4j#10q,False,305,1,equal,ST1_low_6_a2,P = T1?,Same,1,2,low,154,0.74,96,1.22,154,0.88,No,quiteSure,miss,1.4647128582000732,NA
321,l4j#10q,False,306,1,equal,ST1_low_3_a2,P = T1?,Same,1,2,low,70,1.39,112,1.09,70,1.59,Yes,unsure,hit,1.6305651664733887,NA
322,l4j#10q,False,307,1,equal,STb_8_a1,P = T2?,Same,0,1,None,180,0.79,180,0.86,180,0.83,Yes,sure,hit,1.8474700450897217,NA
323,l4j#10q,False,308,1,equal,ST2_high_1_a2,P = T2?,Same,2,2,high,82,1.48,112,0.98,112,1.18,Yes,quiteSure,hit,3.309626817703247,NA
324,l4j#10q,False,309,1,equal,ST2_high_4_a2,P = T1?,Same,2,2,high,96,1.42,70,1.63,70,1.74,Yes,quiteSure,fa,1.0774457454681396,NA
325,l4j#10q,False,310,1,equal,ST1_low_6_a1,P = T2?,Same,1,1,low,154,0.81,96,1.1,154,0.9,No,unsure,cr,2.318572759628296,NA
326,l4j#10q,False,311,1,equal,ST1_high_6_a2,P = T2?,Same,1,2,high,132,1.0,96,1.42,132,0.96,No,unsure,cr,1.552605152130127,NA
327,l4j#10q,False,312,1,equal,ST2_low_4_a2,P = T2?,Same,2,2,low,112,0.94,70,1.39,70,1.66,Yes,quiteSure,hit,1.1223151683807373,NA
328,l4j#10q,False,313,1,equal,ST1_high_3_a1,P = T1?,Same,1,1,high,70,1.38,96,1.22,70,1.78,Yes,unsure,hit,5.510758876800537,NA
329,l4j#10q,False,314,1,equal,ST1_low_4_a1,P = T2?,Same,1,1,low,112,1.06,70,1.47,112,1.11,No,unsure,cr,14.537744760513306,NA
330,l4j#10q,False,315,1,equal,ST1_high_5_a2,P = T2?,Same,1,2,high,96,1.09,132,0.91,96,1.25,No,quiteSure,cr,1.4139907360076904,NA
331,l4j#10q,False,316,1,equal,ST1_low_5_a2,P = T2?,Same,1,2,low,96,1.33,154,0.81,96,1.15,Yes,unsure,fa,5.490312814712524,NA
332,l4j#10q,False,317,1,equal,ST2_high_6_a1,P = T1?,Same,2,1,high,132,1.0,96,1.06,96,1.29,No,sure,cr,1.174238920211792,NA
333,l4j#10q,False,318,1,equal,ST1_high_6_a1,P = T1?,Same,1,1,high,132,0.87,96,1.33,132,0.96,No,quiteSure,miss,2.9036221504211426,NA
334,l4j#10q,False,319,1,equal,ST1_low_5_a1,P = T1?,Same,1,1,low,96,1.24,154,0.84,96,1.43,No,sure,miss,1.773771047592163,NA
335,l4j#10q,False,320,1,equal,ST1_high_3_a1,P = T2?,Same,1,1,high,70,1.41,96,1.1,70,1.51,Yes,unsure,fa,1.5759680271148682,0.0
