,pcode,practice,trial,block,questionType,condition,question,PTS,TargetPosition,AccessoryPosition,TNS,T1_hz,T1_amp,T2_hz,T2_amp,P_hz,P_amp,response_dicho,response_rating,response_sdt,rt,P_correct
0,!g89m2k,True,1,2,equal,ST1_high_2_a2,P = T2?,Same,1,2,high,112,1.11,82,1.39,112,1.21,No,sure,cr,6.117485761642456,NA
1,!g89m2k,True,2,2,equal,ST1_high_2_a1,P = T1?,Same,1,1,high,112,0.86,82,1.51,112,1.12,Yes,quiteSure,hit,4.848692178726196,NA
2,!g89m2k,True,3,2,equal,DT1_low_2_a2,P = T1?,Different,1,2,low,132,0.89,82,1.4,154,0.96,No,quiteSure,miss,3.1788811683654785,NA
3,!g89m2k,True,4,2,equal,ST2_low_6_a1,P = T2?,Same,2,1,low,154,0.89,96,1.32,96,1.11,Yes,unsure,hit,3.5656449794769287,NA
4,!g89m2k,True,5,2,equal,ST1_high_4_a1,P = T2?,Same,1,1,high,96,1.41,70,1.31,96,1.34,No,sure,cr,4.0167601108551025,NA
5,!g89m2k,True,6,2,equal,ST2_low_5_a1,P = T1?,Same,2,1,low,96,1.19,154,0.79,154,0.8,No,sure,cr,3.2939977645874023,NA
6,!g89m2k,True,7,2,equal,STb_8_a1,P = T2?,Same,0,1,None,180,0.74,180,0.89,180,0.79,Yes,sure,hit,1.4961278438568115,NA
7,!g89m2k,True,8,2,equal,ST2_low_5_a1,P = T2?,Same,2,1,low,96,1.34,154,0.83,154,0.93,Yes,sure,hit,2.5745439529418945,NA
8,!g89m2k,True,9,2,equal,DT2_low_1_a1,P = T1?,Different,2,1,low,82,1.1,132,0.97,154,0.77,No,quiteSure,cr,3.1130077838897705,NA
9,!g89m2k,True,10,2,equal,STb_7_a2,P = T1?,Same,0,2,None,154,0.72,154,0.87,154,0.74,Yes,sure,hit,2.0831501483917236,NA
10,!g89m2k,True,11,2,equal,DT2_high_4_a2,P = T2?,Different,2,2,high,96,1.41,70,1.4,60,1.76,Yes,quiteSure,hit,1.9481558799743652,NA
11,!g89m2k,True,12,2,equal,ST2_low_4_a2,P = T1?,Same,2,2,low,112,0.97,70,1.67,70,1.77,No,quiteSure,cr,2.147824764251709,NA
12,!g89m2k,True,13,2,equal,ST1_high_1_a2,P = T1?,Same,1,2,high,82,1.49,112,1.05,82,1.38,Yes,sure,hit,1.2975432872772217,NA
13,!g89m2k,True,14,2,equal,STb_5_a2,P = T2?,Same,0,2,None,112,1.06,112,1.02,112,1.27,Yes,quiteSure,hit,1.5166668891906738,NA
14,!g89m2k,True,15,2,equal,STb_2_a1,P = T1?,Same,0,1,None,70,1.62,70,1.66,70,1.67,Yes,quiteSure,hit,1.697545051574707,NA
15,!g89m2k,True,16,2,equal,DT1_high_3_a1,P = T2?,Different,1,1,high,70,1.79,96,1.34,60,1.67,No,quiteSure,cr,1.8493709564208984,0.875
16,!g89m2k,False,1,2,equal,ST1_low_5_a2,P = T1?,Same,1,2,low,96,1.35,154,0.85,96,1.27,Yes,sure,hit,2.5267860889434814,NA
17,!g89m2k,False,2,2,equal,ST2_low_6_a2,P = T1?,Same,2,2,low,154,0.75,96,1.27,96,1.2,No,sure,cr,3.5659120082855225,NA
18,!g89m2k,False,3,2,equal,ST1_high_5_a1,P = T2?,Same,1,1,high,96,1.21,132,0.88,96,1.4,No,quiteSure,cr,2.1457509994506836,NA
19,!g89m2k,False,4,2,equal,STb_2_a2,P = T2?,Same,0,2,None,70,1.48,70,1.62,70,1.38,No,unsure,miss,2.5964198112487793,NA
20,!g89m2k,False,5,2,equal,STb_5_a2,P = T2?,Same,0,2,None,112,1.06,112,1.02,112,1.27,Yes,sure,hit,2.0337400436401367,NA
21,!g89m2k,False,6,2,equal,ST1_high_1_a2,P = T1?,Same,1,2,high,82,1.43,112,0.93,82,1.34,Yes,quiteSure,hit,3.6552658081054688,NA
22,!g89m2k,False,7,2,equal,ST2_high_3_a2,P = T2?,Same,2,2,high,70,1.58,96,1.25,96,1.11,Yes,quiteSure,hit,1.3364121913909912,NA
23,!g89m2k,False,8,2,equal,ST1_low_3_a1,P = T1?,Same,1,1,low,70,1.76,112,1.21,70,1.62,Yes,sure,hit,1.29121994972229,NA
24,!g89m2k,False,9,2,equal,STb_7_a2,P = T2?,Same,0,2,None,154,0.78,154,0.79,154,0.81,Yes,quiteSure,hit,1.7452080249786377,NA
25,!g89m2k,False,10,2,equal,ST2_low_4_a2,P = T2?,Same,2,2,low,112,1.09,70,1.79,70,1.5,Yes,sure,hit,1.9686658382415771,NA
26,!g89m2k,False,11,2,equal,ST2_high_6_a1,P = T1?,Same,2,1,high,132,0.79,96,1.42,96,1.28,No,sure,cr,1.9437551498413086,NA
27,!g89m2k,False,12,2,equal,ST2_high_4_a1,P = T1?,Same,2,1,high,96,1.17,70,1.51,70,1.51,No,unsure,cr,1.96732497215271,NA
28,!g89m2k,False,13,2,equal,ST2_high_2_a1,P = T2?,Same,2,1,high,112,1.01,82,1.49,82,1.33,Yes,quiteSure,hit,1.5891239643096924,NA
29,!g89m2k,False,14,2,equal,DT1_low_4_a2,P = T1?,Different,1,2,low,112,1.21,70,1.62,132,0.98,No,quiteSure,miss,2.0346498489379883,NA
30,!g89m2k,False,15,2,equal,ST1_low_3_a1,P = T2?,Same,1,1,low,70,1.68,112,1.15,70,1.41,No,quiteSure,cr,4.036180257797241,NA
31,!g89m2k,False,16,2,equal,ST2_low_5_a2,P = T1?,Same,2,2,low,96,1.33,154,0.86,154,0.91,No,quiteSure,cr,1.8981261253356934,NA
32,!g89m2k,False,17,2,equal,ST1_low_1_a1,P = T2?,Same,1,1,low,82,1.29,132,0.8,82,1.63,No,quiteSure,cr,2.8728549480438232,NA
33,!g89m2k,False,18,2,equal,ST1_high_6_a2,P = T2?,Same,1,2,high,132,0.9,96,1.28,132,1.06,No,sure,cr,2.2136788368225098,NA
34,!g89m2k,False,19,2,equal,ST2_low_4_a2,P = T1?,Same,2,2,low,112,0.98,70,1.84,70,1.73,No,sure,cr,1.8534119129180908,NA
35,!g89m2k,False,20,2,equal,ST2_high_3_a2,P = T1?,Same,2,2,high,70,1.8,96,1.26,96,1.13,No,quiteSure,cr,2.0566797256469727,NA
36,!g89m2k,False,21,2,equal,ST2_low_4_a1,P = T2?,Same,2,1,low,112,1.23,70,1.78,70,1.75,Yes,sure,hit,2.4390549659729004,NA
37,!g89m2k,False,22,2,equal,ST2_high_5_a2,P = T2?,Same,2,2,high,96,1.42,132,0.85,132,0.86,Yes,sure,hit,2.122407913208008,NA
38,!g89m2k,False,23,2,equal,ST2_low_6_a2,P = T1?,Same,2,2,low,154,0.75,96,1.07,96,1.12,No,sure,cr,2.1264069080352783,NA
39,!g89m2k,False,24,2,equal,ST2_high_5_a1,P = T1?,Same,2,1,high,96,1.28,132,1.01,132,0.9,No,sure,cr,2.1923489570617676,NA
40,!g89m2k,False,25,2,equal,ST2_low_2_a1,P = T1?,Same,2,1,low,132,1.02,82,1.61,82,1.32,No,quiteSure,cr,2.038076877593994,NA
41,!g89m2k,False,26,2,equal,ST1_low_4_a2,P = T1?,Same,1,2,low,112,0.98,70,1.78,112,0.94,Yes,sure,hit,1.2003083229064941,NA
42,!g89m2k,False,27,2,equal,ST1_high_2_a1,P = T2?,Same,1,1,high,112,1.18,82,1.6,112,1.03,No,sure,cr,1.9461567401885986,NA
43,!g89m2k,False,28,2,equal,ST2_high_5_a2,P = T1?,Same,2,2,high,96,1.28,132,1.05,132,0.86,No,quiteSure,cr,2.190531015396118,NA
44,!g89m2k,False,29,2,equal,ST2_low_3_a2,P = T2?,Same,2,2,low,70,1.4,112,1.15,112,1.19,Yes,sure,hit,1.494758129119873,NA
45,!g89m2k,False,30,2,equal,ST2_low_2_a2,P = T1?,Same,2,2,low,132,0.83,82,1.43,82,1.53,No,sure,cr,2.2330410480499268,NA
46,!g89m2k,False,31,2,equal,ST2_low_1_a1,P = T2?,Same,2,1,low,82,1.62,132,1.05,132,0.87,Yes,sure,hit,1.7861850261688232,NA
47,!g89m2k,False,32,2,equal,ST1_low_2_a2,P = T2?,Same,1,2,low,132,1.02,82,1.55,132,0.97,No,sure,cr,2.1449499130249023,NA
48,!g89m2k,False,33,2,equal,ST1_low_1_a2,P = T2?,Same,1,2,low,82,1.24,132,0.86,82,1.61,No,sure,cr,3.3216800689697266,NA
49,!g89m2k,False,34,2,equal,ST1_low_4_a2,P = T2?,Same,1,2,low,112,1.19,70,1.84,112,1.03,No,sure,cr,1.4278571605682373,NA
50,!g89m2k,False,35,2,equal,ST2_low_5_a1,P = T1?,Same,2,1,low,96,1.19,154,0.79,154,0.8,No,sure,cr,1.9476470947265625,NA
51,!g89m2k,False,36,2,equal,ST2_high_3_a1,P = T2?,Same,2,1,high,70,1.49,96,1.07,96,1.39,No,unsure,miss,4.060710906982422,NA
52,!g89m2k,False,37,2,equal,ST2_high_4_a1,P = T1?,Same,2,1,high,96,1.08,70,1.78,70,1.42,No,unsure,cr,3.1837151050567627,NA
53,!g89m2k,False,38,2,equal,ST2_low_2_a2,P = T1?,Same,2,2,low,132,0.92,82,1.61,82,1.39,No,sure,cr,2.0598461627960205,NA
54,!g89m2k,False,39,2,equal,ST2_high_5_a1,P = T1?,Same,2,1,high,96,1.28,132,0.85,132,0.97,No,quiteSure,cr,2.260707139968872,NA
55,!g89m2k,False,40,2,equal,ST2_high_6_a1,P = T2?,Same,2,1,high,132,0.86,96,1.11,96,1.32,Yes,sure,hit,1.8553431034088135,NA
56,!g89m2k,False,41,2,equal,ST2_high_5_a1,P = T2?,Same,2,1,high,96,1.18,132,0.96,132,0.99,Yes,sure,hit,1.762446641921997,NA
57,!g89m2k,False,42,2,equal,ST1_high_4_a1,P = T2?,Same,1,1,high,96,1.36,70,1.81,96,1.24,No,sure,cr,1.5378401279449463,NA
58,!g89m2k,False,43,2,equal,ST1_low_4_a1,P = T1?,Same,1,1,low,112,0.93,70,1.6,112,0.94,Yes,sure,hit,1.8352408409118652,NA
59,!g89m2k,False,44,2,equal,ST1_low_1_a2,P = T1?,Same,1,2,low,82,1.23,132,0.85,82,1.37,Yes,sure,hit,2.0567400455474854,NA
60,!g89m2k,False,45,2,equal,ST1_high_3_a2,P = T2?,Same,1,2,high,70,1.74,96,1.13,70,1.8,No,unsure,cr,2.9129440784454346,NA
61,!g89m2k,False,46,2,equal,ST1_high_5_a2,P = T1?,Same,1,2,high,96,1.12,132,0.96,96,1.21,No,unsure,miss,5.656744003295898,NA
62,!g89m2k,False,47,2,equal,ST2_low_6_a2,P = T1?,Same,2,2,low,154,0.87,96,1.17,96,1.21,No,sure,cr,1.5870709419250488,NA
63,!g89m2k,False,48,2,equal,ST1_high_6_a1,P = T2?,Same,1,1,high,132,0.82,96,1.42,132,0.81,No,sure,cr,1.5127286911010742,NA
64,!g89m2k,False,49,2,equal,ST2_low_3_a1,P = T1?,Same,2,1,low,70,1.65,112,1.09,112,1.03,No,sure,cr,1.4257779121398926,NA
65,!g89m2k,False,50,2,equal,ST2_low_6_a1,P = T2?,Same,2,1,low,154,0.89,96,1.32,96,1.11,Yes,sure,hit,1.1786158084869385,NA
66,!g89m2k,False,51,2,equal,ST2_low_6_a1,P = T2?,Same,2,1,low,154,0.74,96,1.28,96,1.38,Yes,sure,hit,1.2699220180511475,NA
67,!g89m2k,False,52,2,equal,ST1_high_6_a1,P = T1?,Same,1,1,high,132,1.0,96,1.34,132,0.99,Yes,sure,hit,1.6286301612854004,NA
68,!g89m2k,False,53,2,equal,ST2_low_6_a1,P = T2?,Same,2,1,low,154,0.92,96,1.31,96,1.24,Yes,sure,hit,2.343893051147461,NA
69,!g89m2k,False,54,2,equal,ST1_low_5_a2,P = T2?,Same,1,2,low,96,1.07,154,0.85,96,1.41,No,quiteSure,cr,1.9407742023468018,NA
70,!g89m2k,False,55,2,equal,ST2_high_2_a2,P = T2?,Same,2,2,high,112,1.12,82,1.35,82,1.41,Yes,sure,hit,1.3142311573028564,NA
71,!g89m2k,False,56,2,equal,DT2_low_4_a2,P = T2?,Different,2,2,low,112,1.11,70,1.46,60,1.83,Yes,quiteSure,hit,1.3373138904571533,NA
72,!g89m2k,False,57,2,equal,ST2_low_1_a1,P = T2?,Same,2,1,low,82,1.44,132,0.84,132,0.99,Yes,sure,hit,1.2047100067138672,NA
73,!g89m2k,False,58,2,equal,ST2_low_4_a1,P = T1?,Same,2,1,low,112,1.12,70,1.52,70,1.7,No,quiteSure,cr,1.7637102603912354,NA
74,!g89m2k,False,59,2,equal,ST1_high_4_a1,P = T1?,Same,1,1,high,96,1.16,70,1.76,96,1.4,Yes,quiteSure,hit,1.5145320892333984,NA
75,!g89m2k,False,60,2,equal,ST2_high_4_a2,P = T1?,Same,2,2,high,96,1.3,70,1.79,70,1.42,No,quiteSure,cr,1.6306419372558594,NA
76,!g89m2k,False,61,2,equal,ST1_low_3_a2,P = T2?,Same,1,2,low,70,1.48,112,0.99,70,1.72,No,sure,cr,3.1641106605529785,NA
77,!g89m2k,False,62,2,equal,ST1_low_5_a1,P = T2?,Same,1,1,low,96,1.41,154,0.93,96,1.2,No,sure,cr,2.4332339763641357,NA
78,!g89m2k,False,63,2,equal,ST1_high_1_a1,P = T2?,Same,1,1,high,82,1.43,112,0.97,82,1.25,No,quiteSure,cr,1.5201170444488525,NA
79,!g89m2k,False,64,2,equal,ST2_low_1_a1,P = T1?,Same,2,1,low,82,1.31,132,1.0,132,1.0,No,sure,cr,1.5399880409240723,NA
80,!g89m2k,False,65,2,equal,ST1_low_4_a2,P = T2?,Same,1,2,low,112,1.11,70,1.56,112,1.18,No,unsure,cr,2.188647985458374,NA
81,!g89m2k,False,66,2,equal,ST1_high_5_a2,P = T2?,Same,1,2,high,96,1.29,132,0.81,96,1.12,No,sure,cr,2.684299945831299,NA
82,!g89m2k,False,67,2,equal,ST1_high_3_a1,P = T1?,Same,1,1,high,70,1.47,96,1.26,70,1.4,Yes,sure,hit,1.8361501693725586,NA
83,!g89m2k,False,68,2,equal,ST1_low_5_a1,P = T1?,Same,1,1,low,96,1.33,154,0.78,96,1.25,Yes,sure,hit,1.4948437213897705,NA
84,!g89m2k,False,69,2,equal,ST1_low_5_a2,P = T1?,Same,1,2,low,96,1.22,154,0.82,96,1.23,Yes,sure,hit,1.2965478897094727,NA
85,!g89m2k,False,70,2,equal,ST2_low_2_a2,P = T2?,Same,2,2,low,132,0.98,82,1.54,82,1.27,Yes,sure,hit,1.3339920043945312,NA
86,!g89m2k,False,71,2,equal,ST1_high_4_a2,P = T1?,Same,1,2,high,96,1.07,70,1.39,96,1.12,Yes,quiteSure,hit,1.2219748497009277,NA
87,!g89m2k,False,72,2,equal,STb_7_a1,P = T2?,Same,0,1,None,154,0.87,154,0.73,154,0.73,Yes,quiteSure,hit,1.2678577899932861,NA
88,!g89m2k,False,73,2,equal,ST2_high_6_a2,P = T1?,Same,2,2,high,132,0.95,96,1.16,96,1.12,No,sure,cr,1.9238598346710205,NA
89,!g89m2k,False,74,2,equal,ST2_low_5_a1,P = T2?,Same,2,1,low,96,1.14,154,0.83,154,0.83,Yes,sure,hit,1.9048140048980713,NA
90,!g89m2k,False,75,2,equal,ST1_high_5_a1,P = T1?,Same,1,1,high,96,1.14,132,1.02,96,1.11,Yes,sure,hit,1.2696728706359863,NA
91,!g89m2k,False,76,2,equal,ST2_low_3_a2,P = T1?,Same,2,2,low,70,1.44,112,1.02,112,0.97,No,quiteSure,cr,1.5385119915008545,NA
92,!g89m2k,False,77,2,equal,ST2_high_2_a2,P = T1?,Same,2,2,high,112,1.13,82,1.43,82,1.54,No,sure,cr,1.6775588989257812,NA
93,!g89m2k,False,78,2,equal,ST2_high_3_a1,P = T2?,Same,2,1,high,70,1.72,96,1.27,96,1.3,Yes,sure,hit,1.1784441471099854,NA
94,!g89m2k,False,79,2,equal,ST2_high_1_a2,P = T1?,Same,2,2,high,82,1.4,112,1.0,112,0.99,No,sure,cr,1.8753550052642822,NA
95,!g89m2k,False,80,2,equal,ST1_high_2_a2,P = T2?,Same,1,2,high,112,1.08,82,1.24,112,1.02,No,quiteSure,cr,1.7817809581756592,NA
96,!g89m2k,False,81,2,equal,ST1_high_3_a2,P = T2?,Same,1,2,high,70,1.55,96,1.43,70,1.78,Yes,sure,fa,1.222048044204712,NA
97,!g89m2k,False,82,2,equal,ST1_high_1_a2,P = T2?,Same,1,2,high,82,1.53,112,0.95,82,1.61,No,sure,cr,1.286505937576294,NA
98,!g89m2k,False,83,2,equal,STb_4_a2,P = T2?,Same,0,2,None,96,1.31,96,1.16,96,1.12,Yes,sure,hit,1.179807186126709,NA
99,!g89m2k,False,84,2,equal,STb_6_a1,P = T1?,Same,0,1,None,132,0.8,132,0.99,132,0.93,Yes,sure,hit,2.7825911045074463,NA
100,!g89m2k,False,85,2,equal,ST1_high_1_a1,P = T2?,Same,1,1,high,82,1.38,112,1.23,82,1.28,No,sure,cr,1.8081769943237305,NA
101,!g89m2k,False,86,2,equal,ST1_low_6_a1,P = T1?,Same,1,1,low,154,0.86,96,1.15,154,0.75,Yes,sure,hit,1.2251811027526855,NA
102,!g89m2k,False,87,2,equal,ST2_high_6_a1,P = T1?,Same,2,1,high,132,0.98,96,1.12,96,1.38,No,sure,cr,1.270110845565796,NA
103,!g89m2k,False,88,2,equal,ST1_high_3_a2,P = T2?,Same,1,2,high,70,1.7,96,1.08,70,1.51,No,quiteSure,cr,1.427602767944336,NA
104,!g89m2k,False,89,2,equal,DT1_low_1_a1,P = T2?,Different,1,1,low,82,1.4,132,0.89,70,1.51,No,sure,cr,1.6135890483856201,NA
105,!g89m2k,False,90,2,equal,ST1_low_6_a1,P = T2?,Same,1,1,low,154,0.85,96,1.12,154,0.94,No,sure,cr,1.8759169578552246,NA
106,!g89m2k,False,91,2,equal,DT2_low_6_a1,P = T1?,Different,2,1,low,154,0.88,96,1.08,82,1.44,No,sure,cr,1.3815958499908447,NA
107,!g89m2k,False,92,2,equal,ST1_low_3_a2,P = T1?,Same,1,2,low,70,1.78,112,1.02,70,1.63,Yes,sure,hit,1.993121862411499,NA
108,!g89m2k,False,93,2,equal,DT2_high_4_a1,P = T1?,Different,2,1,high,96,1.15,70,1.58,60,1.54,No,sure,cr,1.5182549953460693,NA
109,!g89m2k,False,94,2,equal,ST2_low_5_a2,P = T1?,Same,2,2,low,96,1.39,154,0.74,154,0.84,No,sure,cr,1.2250659465789795,NA
110,!g89m2k,False,95,2,equal,DT1_low_3_a1,P = T2?,Different,1,1,low,70,1.49,112,1.23,60,1.87,No,sure,cr,1.295276165008545,NA
111,!g89m2k,False,96,2,equal,ST2_high_4_a2,P = T1?,Same,2,2,high,96,1.17,70,1.82,70,1.46,Yes,quiteSure,fa,3.0459227561950684,NA
112,!g89m2k,False,97,2,equal,ST1_high_2_a2,P = T1?,Same,1,2,high,112,1.19,82,1.59,112,1.03,Yes,sure,hit,1.2036280632019043,NA
113,!g89m2k,False,98,2,equal,ST2_high_3_a1,P = T1?,Same,2,1,high,70,1.39,96,1.14,96,1.11,No,sure,cr,4.104153156280518,NA
114,!g89m2k,False,99,2,equal,ST1_high_3_a1,P = T1?,Same,1,1,high,70,1.62,96,1.22,70,1.39,Yes,sure,hit,1.2849359512329102,NA
115,!g89m2k,False,100,2,equal,ST1_low_4_a1,P = T2?,Same,1,1,low,112,1.18,70,1.52,112,1.09,No,sure,cr,1.5375182628631592,NA
116,!g89m2k,False,101,2,equal,ST2_low_2_a1,P = T2?,Same,2,1,low,132,1.0,82,1.25,82,1.59,Yes,sure,hit,1.1567888259887695,NA
117,!g89m2k,False,102,2,equal,ST2_high_1_a2,P = T1?,Same,2,2,high,82,1.33,112,1.1,112,1.19,No,sure,cr,1.982145071029663,NA
118,!g89m2k,False,103,2,equal,ST1_high_5_a1,P = T2?,Same,1,1,high,96,1.39,132,0.95,96,1.25,No,sure,cr,1.787348985671997,NA
119,!g89m2k,False,104,2,equal,ST2_low_3_a2,P = T1?,Same,2,2,low,70,1.83,112,0.92,112,0.92,No,sure,cr,1.7663140296936035,NA
120,!g89m2k,False,105,2,equal,ST1_low_2_a2,P = T1?,Same,1,2,low,132,0.9,82,1.6,132,0.84,Yes,sure,hit,1.2603728771209717,NA
121,!g89m2k,False,106,2,equal,ST1_low_1_a1,P = T1?,Same,1,1,low,82,1.29,132,0.81,82,1.42,Yes,sure,hit,1.5169501304626465,NA
122,!g89m2k,False,107,2,equal,ST1_low_3_a2,P = T1?,Same,1,2,low,70,1.49,112,0.98,70,1.67,Yes,sure,hit,1.2869198322296143,NA
123,!g89m2k,False,108,2,equal,ST1_high_5_a2,P = T2?,Same,1,2,high,96,1.12,132,0.95,96,1.36,No,sure,cr,2.1032040119171143,NA
124,!g89m2k,False,109,2,equal,ST1_low_2_a2,P = T1?,Same,1,2,low,132,0.79,82,1.53,132,0.93,Yes,quiteSure,hit,1.8336858749389648,NA
125,!g89m2k,False,110,2,equal,ST1_high_6_a1,P = T1?,Same,1,1,high,132,0.94,96,1.2,132,0.96,Yes,quiteSure,hit,1.3337478637695312,NA
126,!g89m2k,False,111,2,equal,ST1_high_6_a2,P = T1?,Same,1,2,high,132,0.82,96,1.34,132,0.94,Yes,quiteSure,hit,1.4265871047973633,NA
127,!g89m2k,False,112,2,equal,ST2_high_4_a1,P = T2?,Same,2,1,high,96,1.37,70,1.4,70,1.73,Yes,sure,hit,1.156358242034912,NA
128,!g89m2k,False,113,2,equal,ST2_low_4_a1,P = T2?,Same,2,1,low,112,1.12,70,1.61,70,1.78,No,unsure,miss,3.8598079681396484,NA
129,!g89m2k,False,114,2,equal,ST2_low_5_a1,P = T1?,Same,2,1,low,96,1.07,154,0.9,154,0.94,No,sure,cr,1.6022663116455078,NA
130,!g89m2k,False,115,2,equal,ST1_high_3_a1,P = T1?,Same,1,1,high,70,1.38,96,1.29,70,1.7,Yes,quiteSure,hit,1.632544994354248,NA
131,!g89m2k,False,116,2,equal,ST2_high_2_a1,P = T2?,Same,2,1,high,112,0.98,82,1.63,82,1.27,Yes,sure,hit,1.6745109558105469,NA
132,!g89m2k,False,117,2,equal,ST2_high_1_a1,P = T1?,Same,2,1,high,82,1.42,112,0.98,112,1.06,No,sure,cr,1.941938877105713,NA
133,!g89m2k,False,118,2,equal,ST2_low_1_a2,P = T1?,Same,2,2,low,82,1.59,132,0.94,132,0.92,No,sure,cr,2.2355053424835205,NA
134,!g89m2k,False,119,2,equal,ST1_high_1_a2,P = T1?,Same,1,2,high,82,1.49,112,1.05,82,1.38,Yes,sure,hit,1.36055588722229,NA
135,!g89m2k,False,120,2,equal,ST1_low_6_a1,P = T1?,Same,1,1,low,154,0.8,96,1.29,154,0.88,Yes,sure,hit,1.1606919765472412,NA
136,!g89m2k,False,121,2,equal,ST2_high_1_a1,P = T2?,Same,2,1,high,82,1.41,112,1.03,112,0.97,Yes,sure,hit,1.8098270893096924,NA
137,!g89m2k,False,122,2,equal,ST1_high_3_a2,P = T1?,Same,1,2,high,70,1.59,96,1.36,70,1.82,Yes,quiteSure,hit,1.3135690689086914,NA
138,!g89m2k,False,123,2,equal,ST2_low_5_a2,P = T2?,Same,2,2,low,96,1.4,154,0.77,154,0.85,Yes,sure,hit,1.1829500198364258,NA
139,!g89m2k,False,124,2,equal,ST1_low_6_a2,P = T1?,Same,1,2,low,154,0.79,96,1.2,154,0.73,Yes,sure,hit,1.1555488109588623,NA
140,!g89m2k,False,125,2,equal,STb_4_a1,P = T2?,Same,0,1,None,96,1.29,96,1.23,96,1.09,Yes,quiteSure,hit,1.1327669620513916,NA
141,!g89m2k,False,126,2,equal,ST1_low_1_a2,P = T2?,Same,1,2,low,82,1.51,132,0.97,82,1.62,No,sure,cr,1.2927579879760742,NA
142,!g89m2k,False,127,2,equal,ST2_low_5_a2,P = T1?,Same,2,2,low,96,1.25,154,0.82,154,0.95,No,sure,cr,1.1553690433502197,NA
143,!g89m2k,False,128,2,equal,ST2_high_5_a2,P = T2?,Same,2,2,high,96,1.13,132,0.99,132,0.81,Yes,sure,hit,1.5394330024719238,NA
144,!g89m2k,False,129,2,equal,STb_8_a1,P = T1?,Same,0,1,None,180,0.72,180,0.9,180,0.82,Yes,sure,hit,0.8430757522583008,NA
145,!g89m2k,False,130,2,equal,DT1_high_4_a2,P = T2?,Different,1,2,high,96,1.19,70,1.55,112,1.09,No,sure,cr,1.1105852127075195,NA
146,!g89m2k,False,131,2,equal,DT2_high_5_a1,P = T2?,Different,2,1,high,96,1.34,132,0.94,154,0.93,No,sure,miss,1.5881390571594238,NA
147,!g89m2k,False,132,2,equal,ST1_low_6_a2,P = T2?,Same,1,2,low,154,0.87,96,1.28,154,0.86,No,sure,cr,1.3384950160980225,NA
148,!g89m2k,False,133,2,equal,ST1_high_2_a1,P = T1?,Same,1,1,high,112,0.86,82,1.51,112,1.12,Yes,sure,hit,1.3633017539978027,NA
149,!g89m2k,False,134,2,equal,ST1_low_5_a2,P = T2?,Same,1,2,low,96,1.39,154,0.86,96,1.34,No,sure,cr,1.2449321746826172,NA
150,!g89m2k,False,135,2,equal,ST2_high_4_a2,P = T2?,Same,2,2,high,96,1.26,70,1.44,70,1.55,Yes,quiteSure,hit,1.7799608707427979,NA
151,!g89m2k,False,136,2,equal,ST2_high_1_a2,P = T2?,Same,2,2,high,82,1.47,112,1.13,112,1.13,Yes,sure,hit,1.7410252094268799,NA
152,!g89m2k,False,137,2,equal,ST2_high_5_a1,P = T1?,Same,2,1,high,96,1.22,132,0.96,132,0.82,No,sure,cr,1.647320032119751,NA
153,!g89m2k,False,138,2,equal,ST1_high_3_a1,P = T2?,Same,1,1,high,70,1.67,96,1.08,70,1.52,No,sure,cr,4.4898810386657715,NA
154,!g89m2k,False,139,2,equal,ST1_low_1_a1,P = T2?,Same,1,1,low,82,1.62,132,0.88,82,1.37,No,sure,cr,1.354496717453003,NA
155,!g89m2k,False,140,2,equal,ST2_low_5_a1,P = T2?,Same,2,1,low,96,1.18,154,0.88,154,0.86,Yes,sure,hit,2.1171610355377197,NA
156,!g89m2k,False,141,2,equal,ST1_high_4_a1,P = T1?,Same,1,1,high,96,1.3,70,1.46,96,1.13,Yes,sure,hit,2.727565050125122,NA
157,!g89m2k,False,142,2,equal,ST2_high_3_a2,P = T1?,Same,2,2,high,70,1.44,96,1.13,96,1.35,No,sure,cr,1.447160005569458,NA
158,!g89m2k,False,143,2,equal,ST1_high_4_a1,P = T1?,Same,1,1,high,96,1.17,70,1.85,96,1.13,Yes,sure,hit,4.102205991744995,NA
159,!g89m2k,False,144,2,equal,ST1_low_6_a2,P = T1?,Same,1,2,low,154,0.79,96,1.08,154,0.87,Yes,sure,hit,1.6949071884155273,NA
160,!g89m2k,False,145,2,equal,ST2_high_2_a1,P = T1?,Same,2,1,high,112,1.12,82,1.41,82,1.47,No,sure,cr,1.4507060050964355,NA
161,!g89m2k,False,146,2,equal,ST2_low_1_a2,P = T1?,Same,2,2,low,82,1.45,132,1.0,132,0.81,No,sure,cr,1.7394688129425049,NA
162,!g89m2k,False,147,2,equal,ST1_high_5_a2,P = T1?,Same,1,2,high,96,1.34,132,1.06,96,1.43,Yes,quiteSure,hit,1.157383918762207,NA
163,!g89m2k,False,148,2,equal,ST2_low_3_a1,P = T2?,Same,2,1,low,70,1.38,112,1.13,112,0.99,Yes,sure,hit,1.383683204650879,NA
164,!g89m2k,False,149,2,equal,ST2_high_4_a2,P = T2?,Same,2,2,high,96,1.29,70,1.53,70,1.81,Yes,sure,hit,3.5440938472747803,NA
165,!g89m2k,False,150,2,equal,ST2_low_3_a1,P = T2?,Same,2,1,low,70,1.77,112,1.2,112,0.96,Yes,sure,hit,1.5429556369781494,NA
166,!g89m2k,False,151,2,equal,ST2_low_5_a2,P = T2?,Same,2,2,low,96,1.34,154,0.76,154,0.89,Yes,sure,hit,1.0898780822753906,NA
167,!g89m2k,False,152,2,equal,ST1_high_2_a2,P = T2?,Same,1,2,high,112,1.14,82,1.45,112,1.0,No,sure,cr,1.3622798919677734,NA
168,!g89m2k,False,153,2,equal,ST2_high_3_a1,P = T2?,Same,2,1,high,70,1.75,96,1.12,96,1.41,Yes,sure,hit,2.960629940032959,NA
169,!g89m2k,False,154,2,equal,ST1_low_4_a1,P = T1?,Same,1,1,low,112,1.05,70,1.51,112,1.06,Yes,sure,hit,0.9095320701599121,NA
170,!g89m2k,False,155,2,equal,ST2_low_4_a2,P = T1?,Same,2,2,low,112,0.97,70,1.67,70,1.77,No,sure,cr,1.1580710411071777,NA
171,!g89m2k,False,156,2,equal,ST2_high_4_a2,P = T1?,Same,2,2,high,96,1.19,70,1.38,70,1.8,No,quiteSure,cr,1.448518991470337,NA
172,!g89m2k,False,157,2,equal,ST1_high_6_a2,P = T1?,Same,1,2,high,132,0.81,96,1.11,132,0.99,Yes,sure,hit,1.1318411827087402,NA
173,!g89m2k,False,158,2,equal,ST2_high_3_a1,P = T1?,Same,2,1,high,70,1.62,96,1.34,96,1.16,No,quiteSure,cr,2.1701340675354004,NA
174,!g89m2k,False,159,2,equal,ST2_high_6_a2,P = T1?,Same,2,2,high,132,1.02,96,1.2,96,1.4,No,quiteSure,cr,2.4385228157043457,NA
175,!g89m2k,False,160,2,equal,ST1_high_2_a1,P = T1?,Same,1,1,high,112,1.05,82,1.38,112,1.22,Yes,sure,hit,1.8569438457489014,NA
176,!g89m2k,False,161,2,equal,ST2_high_5_a2,P = T1?,Same,2,2,high,96,1.19,132,0.83,132,0.92,No,sure,cr,2.44010591506958,NA
177,!g89m2k,False,162,2,equal,ST1_high_1_a1,P = T1?,Same,1,1,high,82,1.55,112,0.98,82,1.61,Yes,sure,hit,1.0455501079559326,NA
178,!g89m2k,False,163,2,equal,ST2_high_4_a1,P = T2?,Same,2,1,high,96,1.41,70,1.74,70,1.77,Yes,quiteSure,hit,1.8762309551239014,NA
179,!g89m2k,False,164,2,equal,ST2_low_2_a1,P = T2?,Same,2,1,low,132,0.91,82,1.47,82,1.26,Yes,quiteSure,hit,2.2639098167419434,NA
180,!g89m2k,False,165,2,equal,ST1_high_6_a2,P = T2?,Same,1,2,high,132,1.01,96,1.25,132,0.81,No,sure,cr,2.263477087020874,NA
181,!g89m2k,False,166,2,equal,ST2_low_1_a2,P = T2?,Same,2,2,low,82,1.38,132,0.98,132,0.91,Yes,sure,hit,1.3133282661437988,NA
182,!g89m2k,False,167,2,equal,ST1_low_2_a1,P = T2?,Same,1,1,low,132,0.91,82,1.36,132,0.82,No,sure,cr,2.7108471393585205,NA
183,!g89m2k,False,168,2,equal,DT2_high_3_a1,P = T2?,Different,2,1,high,70,1.59,96,1.38,112,1.03,Yes,sure,hit,2.3088738918304443,NA
184,!g89m2k,False,169,2,equal,STb_5_a1,P = T1?,Same,0,1,None,112,1.22,112,0.92,112,1.08,Yes,sure,hit,2.524967908859253,NA
185,!g89m2k,False,170,2,equal,ST1_high_5_a1,P = T1?,Same,1,1,high,96,1.29,132,0.97,96,1.34,Yes,sure,hit,1.785447120666504,NA
186,!g89m2k,False,171,2,equal,ST1_low_4_a2,P = T1?,Same,1,2,low,112,0.98,70,1.63,112,1.02,Yes,sure,hit,1.1154718399047852,NA
187,!g89m2k,False,172,2,equal,DT2_low_1_a1,P = T1?,Different,2,1,low,82,1.1,132,0.97,154,0.77,No,sure,cr,0.8894240856170654,NA
188,!g89m2k,False,173,2,equal,ST1_low_3_a2,P = T1?,Same,1,2,low,70,1.8,112,1.22,70,1.79,Yes,sure,hit,1.1826529502868652,NA
189,!g89m2k,False,174,2,equal,ST2_low_1_a1,P = T2?,Same,2,1,low,82,1.42,132,1.06,132,0.79,Yes,sure,hit,1.0854477882385254,NA
190,!g89m2k,False,175,2,equal,ST2_high_4_a1,P = T1?,Same,2,1,high,96,1.15,70,1.46,70,1.74,No,sure,cr,2.194071054458618,NA
191,!g89m2k,False,176,2,equal,DT2_low_5_a1,P = T2?,Different,2,1,low,96,1.36,154,0.9,180,0.85,No,sure,miss,1.3798420429229736,NA
192,!g89m2k,False,177,2,equal,ST2_high_1_a2,P = T2?,Same,2,2,high,82,1.53,112,1.09,112,0.99,No,sure,miss,1.9918620586395264,NA
193,!g89m2k,False,178,2,equal,DT2_low_3_a1,P = T2?,Different,2,1,low,70,1.82,112,1.04,132,0.84,No,sure,miss,1.6072728633880615,NA
194,!g89m2k,False,179,2,equal,STb_4_a1,P = T1?,Same,0,1,None,96,1.23,96,1.33,96,1.11,Yes,sure,hit,1.4511210918426514,NA
195,!g89m2k,False,180,2,equal,ST1_high_4_a1,P = T2?,Same,1,1,high,96,1.41,70,1.31,96,1.34,No,sure,cr,1.5410869121551514,NA
196,!g89m2k,False,181,2,equal,ST1_high_3_a2,P = T1?,Same,1,2,high,70,1.41,96,1.06,70,1.58,Yes,sure,hit,2.274723768234253,NA
197,!g89m2k,False,182,2,equal,ST1_low_3_a1,P = T1?,Same,1,1,low,70,1.51,112,1.04,70,1.77,Yes,quiteSure,hit,1.811310052871704,NA
198,!g89m2k,False,183,2,equal,ST2_low_2_a2,P = T2?,Same,2,2,low,132,1.02,82,1.62,82,1.61,Yes,sure,hit,2.2341558933258057,NA
199,!g89m2k,False,184,2,equal,ST1_high_1_a2,P = T2?,Same,1,2,high,82,1.37,112,0.95,82,1.58,No,sure,cr,1.947056770324707,NA
200,!g89m2k,False,185,2,equal,ST1_low_4_a2,P = T1?,Same,1,2,low,112,1.17,70,1.48,112,1.06,Yes,sure,hit,1.5630199909210205,NA
201,!g89m2k,False,186,2,equal,ST2_high_2_a1,P = T1?,Same,2,1,high,112,0.96,82,1.41,82,1.39,No,sure,cr,1.473168134689331,NA
202,!g89m2k,False,187,2,equal,ST2_low_6_a2,P = T2?,Same,2,2,low,154,0.76,96,1.06,96,1.4,Yes,sure,hit,1.6274101734161377,NA
203,!g89m2k,False,188,2,equal,ST2_high_3_a2,P = T1?,Same,2,2,high,70,1.62,96,1.09,96,1.33,No,quiteSure,cr,1.606339931488037,NA
204,!g89m2k,False,189,2,equal,ST1_high_2_a2,P = T1?,Same,1,2,high,112,0.96,82,1.36,112,0.96,Yes,sure,hit,1.0680389404296875,NA
205,!g89m2k,False,190,2,equal,ST1_high_2_a2,P = T1?,Same,1,2,high,112,1.11,82,1.32,112,0.97,Yes,sure,hit,1.204712152481079,NA
206,!g89m2k,False,191,2,equal,ST1_high_5_a2,P = T2?,Same,1,2,high,96,1.13,132,0.83,96,1.09,No,sure,cr,1.877242088317871,NA
207,!g89m2k,False,192,2,equal,ST2_high_2_a2,P = T2?,Same,2,2,high,112,1.05,82,1.33,82,1.23,Yes,sure,hit,1.450150966644287,NA
208,!g89m2k,False,193,2,equal,ST1_low_3_a1,P = T1?,Same,1,1,low,70,1.47,112,1.14,70,1.79,Yes,quiteSure,hit,1.428161859512329,NA
209,!g89m2k,False,194,2,equal,ST1_low_1_a1,P = T1?,Same,1,1,low,82,1.3,132,0.82,82,1.22,Yes,quiteSure,hit,1.0443449020385742,NA
210,!g89m2k,False,195,2,equal,ST1_low_4_a2,P = T2?,Same,1,2,low,112,1.2,70,1.38,112,1.19,No,sure,cr,1.9235930442810059,NA
211,!g89m2k,False,196,2,equal,ST2_low_6_a2,P = T2?,Same,2,2,low,154,0.88,96,1.14,96,1.31,Yes,sure,hit,1.136927843093872,NA
212,!g89m2k,False,197,2,equal,ST2_low_1_a2,P = T2?,Same,2,2,low,82,1.5,132,0.94,132,1.0,Yes,sure,hit,3.4029929637908936,NA
213,!g89m2k,False,198,2,equal,ST1_high_6_a1,P = T1?,Same,1,1,high,132,0.84,96,1.29,132,0.83,Yes,quiteSure,hit,1.3838410377502441,NA
214,!g89m2k,False,199,2,equal,ST1_low_3_a1,P = T2?,Same,1,1,low,70,1.54,112,1.18,70,1.66,No,sure,cr,1.1556882858276367,NA
215,!g89m2k,False,200,2,equal,ST2_low_3_a1,P = T1?,Same,2,1,low,70,1.48,112,1.09,112,1.18,No,sure,cr,1.1366610527038574,NA
216,!g89m2k,False,201,2,equal,ST2_low_6_a1,P = T1?,Same,2,1,low,154,0.81,96,1.41,96,1.3,No,sure,cr,3.9276068210601807,NA
217,!g89m2k,False,202,2,equal,ST2_high_6_a1,P = T1?,Same,2,1,high,132,1.0,96,1.29,96,1.43,No,sure,cr,1.5195930004119873,NA
218,!g89m2k,False,203,2,equal,ST2_low_3_a2,P = T2?,Same,2,2,low,70,1.55,112,1.07,112,1.02,Yes,sure,hit,1.2957029342651367,NA
219,!g89m2k,False,204,2,equal,ST1_high_3_a1,P = T2?,Same,1,1,high,70,1.76,96,1.21,70,1.55,No,sure,cr,1.6791610717773438,NA
220,!g89m2k,False,205,2,equal,ST2_low_4_a1,P = T1?,Same,2,1,low,112,0.99,70,1.37,70,1.82,No,sure,cr,1.813049077987671,NA
221,!g89m2k,False,206,2,equal,ST2_high_6_a1,P = T2?,Same,2,1,high,132,0.95,96,1.26,96,1.29,Yes,sure,hit,1.4642879962921143,NA
222,!g89m2k,False,207,2,equal,ST1_high_5_a1,P = T1?,Same,1,1,high,96,1.19,132,0.91,96,1.06,Yes,sure,hit,1.2411978244781494,NA
223,!g89m2k,False,208,2,equal,ST1_low_1_a1,P = T1?,Same,1,1,low,82,1.29,132,0.81,82,1.59,Yes,sure,hit,1.1842331886291504,NA
224,!g89m2k,False,209,2,equal,ST2_low_1_a1,P = T1?,Same,2,1,low,82,1.37,132,0.89,132,0.97,No,sure,cr,1.677164077758789,NA
225,!g89m2k,False,210,2,equal,STb_2_a1,P = T1?,Same,0,1,None,70,1.62,70,1.66,70,1.67,Yes,quiteSure,hit,1.4443938732147217,NA
226,!g89m2k,False,211,2,equal,ST2_high_6_a1,P = T2?,Same,2,1,high,132,0.8,96,1.37,96,1.28,Yes,sure,hit,2.3272759914398193,NA
227,!g89m2k,False,212,2,equal,ST1_low_3_a2,P = T2?,Same,1,2,low,70,1.49,112,1.18,70,1.42,No,sure,cr,1.5381159782409668,NA
228,!g89m2k,False,213,2,equal,ST2_high_2_a2,P = T1?,Same,2,2,high,112,0.96,82,1.27,82,1.22,No,sure,cr,1.246596097946167,NA
229,!g89m2k,False,214,2,equal,ST1_low_2_a1,P = T2?,Same,1,1,low,132,0.9,82,1.27,132,0.94,No,sure,cr,1.5356810092926025,NA
230,!g89m2k,False,215,2,equal,ST2_high_6_a2,P = T2?,Same,2,2,high,132,0.86,96,1.07,96,1.13,Yes,sure,hit,0.9966683387756348,NA
231,!g89m2k,False,216,2,equal,ST1_low_5_a1,P = T1?,Same,1,1,low,96,1.38,154,0.89,96,1.12,Yes,sure,hit,1.406580924987793,NA
232,!g89m2k,False,217,2,equal,ST1_low_2_a2,P = T2?,Same,1,2,low,132,0.92,82,1.34,132,0.9,No,sure,cr,1.7430789470672607,NA
233,!g89m2k,False,218,2,equal,ST1_high_5_a1,P = T2?,Same,1,1,high,96,1.07,132,0.97,96,1.22,No,sure,cr,1.3156359195709229,NA
234,!g89m2k,False,219,2,equal,ST1_high_3_a2,P = T1?,Same,1,2,high,70,1.39,96,1.3,70,1.67,Yes,sure,hit,1.7454919815063477,NA
235,!g89m2k,False,220,2,equal,ST2_low_5_a1,P = T1?,Same,2,1,low,96,1.22,154,0.75,154,0.93,No,sure,cr,2.8678200244903564,NA
236,!g89m2k,False,221,2,equal,ST1_high_4_a2,P = T2?,Same,1,2,high,96,1.3,70,1.66,96,1.19,No,sure,cr,1.2451329231262207,NA
237,!g89m2k,False,222,2,equal,ST1_low_6_a2,P = T2?,Same,1,2,low,154,0.77,96,1.06,154,0.87,No,sure,cr,1.1577937602996826,NA
238,!g89m2k,False,223,2,equal,DT2_low_4_a2,P = T1?,Different,2,2,low,112,1.13,70,1.54,60,1.55,No,sure,cr,1.7885570526123047,NA
239,!g89m2k,False,224,2,equal,ST2_high_1_a1,P = T1?,Same,2,1,high,82,1.37,112,1.02,112,1.19,No,quiteSure,cr,2.0533559322357178,NA
240,!g89m2k,False,225,2,equal,ST1_low_6_a2,P = T2?,Same,1,2,low,154,0.89,96,1.26,154,0.88,No,sure,cr,1.4454801082611084,NA
241,!g89m2k,False,226,2,equal,ST2_high_6_a2,P = T2?,Same,2,2,high,132,0.82,96,1.07,96,1.07,Yes,sure,hit,1.0495860576629639,NA
242,!g89m2k,False,227,2,equal,ST1_high_1_a2,P = T1?,Same,1,2,high,82,1.62,112,1.18,82,1.52,Yes,sure,hit,1.113314151763916,NA
243,!g89m2k,False,228,2,equal,ST1_low_1_a1,P = T2?,Same,1,1,low,82,1.35,132,0.95,82,1.27,No,sure,cr,1.2955403327941895,NA
244,!g89m2k,False,229,2,equal,ST2_low_2_a1,P = T1?,Same,2,1,low,132,0.85,82,1.25,82,1.55,No,sure,cr,2.230473041534424,NA
245,!g89m2k,False,230,2,equal,ST1_low_5_a2,P = T1?,Same,1,2,low,96,1.31,154,0.73,96,1.19,Yes,sure,hit,2.1463119983673096,NA
246,!g89m2k,False,231,2,equal,ST1_low_4_a1,P = T2?,Same,1,1,low,112,1.08,70,1.75,112,0.94,No,sure,cr,1.3341200351715088,NA
247,!g89m2k,False,232,2,equal,ST1_high_6_a1,P = T2?,Same,1,1,high,132,0.8,96,1.15,132,0.88,No,sure,cr,1.8586642742156982,NA
248,!g89m2k,False,233,2,equal,ST2_high_5_a1,P = T2?,Same,2,1,high,96,1.26,132,1.02,132,0.94,Yes,sure,hit,5.073900938034058,NA
249,!g89m2k,False,234,2,equal,ST2_low_1_a1,P = T1?,Same,2,1,low,82,1.63,132,0.86,132,0.84,No,sure,cr,1.7656989097595215,NA
250,!g89m2k,False,235,2,equal,ST1_low_2_a1,P = T2?,Same,1,1,low,132,0.86,82,1.27,132,0.89,No,sure,cr,2.6189491748809814,NA
251,!g89m2k,False,236,2,equal,ST2_high_2_a2,P = T2?,Same,2,2,high,112,1.16,82,1.64,82,1.49,Yes,sure,hit,1.0440621376037598,NA
252,!g89m2k,False,237,2,equal,ST1_high_1_a1,P = T1?,Same,1,1,high,82,1.48,112,0.94,82,1.59,Yes,sure,hit,1.1549780368804932,NA
253,!g89m2k,False,238,2,equal,ST2_high_5_a2,P = T1?,Same,2,2,high,96,1.31,132,1.02,132,1.04,No,sure,cr,1.0637447834014893,NA
254,!g89m2k,False,239,2,equal,ST2_low_6_a1,P = T1?,Same,2,1,low,154,0.84,96,1.2,96,1.33,No,sure,cr,1.0864698886871338,NA
255,!g89m2k,False,240,2,equal,ST1_low_2_a2,P = T1?,Same,1,2,low,132,0.95,82,1.28,132,0.93,Yes,sure,hit,1.2020769119262695,NA
256,!g89m2k,False,241,2,equal,ST2_low_3_a1,P = T2?,Same,2,1,low,70,1.72,112,1.1,112,1.06,Yes,sure,hit,2.3727128505706787,NA
257,!g89m2k,False,242,2,equal,ST1_high_2_a2,P = T2?,Same,1,2,high,112,1.11,82,1.39,112,1.21,No,quiteSure,cr,1.3988642692565918,NA
258,!g89m2k,False,243,2,equal,ST2_low_1_a2,P = T1?,Same,2,2,low,82,1.52,132,0.99,132,1.01,No,sure,cr,1.4932899475097656,NA
259,!g89m2k,False,244,2,equal,ST2_low_2_a2,P = T2?,Same,2,2,low,132,0.92,82,1.52,82,1.59,Yes,sure,hit,2.596266984939575,NA
260,!g89m2k,False,245,2,equal,ST1_low_4_a1,P = T2?,Same,1,1,low,112,1.14,70,1.63,112,1.19,No,sure,cr,1.3821039199829102,NA
261,!g89m2k,False,246,2,equal,ST1_low_2_a1,P = T1?,Same,1,1,low,132,0.99,82,1.3,132,0.82,Yes,sure,hit,0.975881814956665,NA
262,!g89m2k,False,247,2,equal,ST1_high_4_a2,P = T1?,Same,1,2,high,96,1.41,70,1.8,96,1.39,Yes,sure,hit,2.146228075027466,NA
263,!g89m2k,False,248,2,equal,ST2_high_1_a1,P = T2?,Same,2,1,high,82,1.58,112,1.11,112,1.05,Yes,sure,hit,1.2883567810058594,NA
264,!g89m2k,False,249,2,equal,ST1_low_1_a2,P = T1?,Same,1,2,low,82,1.25,132,0.95,82,1.38,Yes,sure,hit,1.969045877456665,NA
265,!g89m2k,False,250,2,equal,ST1_high_2_a1,P = T2?,Same,1,1,high,112,1.04,82,1.3,112,1.03,No,sure,cr,3.793912649154663,NA
266,!g89m2k,False,251,2,equal,DT2_high_6_a2,P = T1?,Different,2,2,high,132,0.89,96,1.09,82,1.4,No,sure,cr,1.1806910037994385,NA
267,!g89m2k,False,252,2,equal,ST1_low_6_a1,P = T2?,Same,1,1,low,154,0.92,96,1.36,154,0.85,No,sure,cr,1.1555438041687012,NA
268,!g89m2k,False,253,2,equal,ST2_low_2_a2,P = T1?,Same,2,2,low,132,0.92,82,1.33,82,1.31,No,sure,cr,2.2164599895477295,NA
269,!g89m2k,False,254,2,equal,ST1_high_6_a2,P = T2?,Same,1,2,high,132,0.94,96,1.26,132,0.95,No,sure,cr,3.3385989665985107,NA
270,!g89m2k,False,255,2,equal,ST1_high_6_a2,P = T1?,Same,1,2,high,132,0.98,96,1.36,132,0.85,Yes,sure,hit,1.1543407440185547,NA
271,!g89m2k,False,256,2,equal,ST1_high_4_a2,P = T2?,Same,1,2,high,96,1.28,70,1.53,96,1.27,No,sure,cr,1.3588800430297852,NA
272,!g89m2k,False,257,2,equal,STb_2_a1,P = T2?,Same,0,1,None,70,1.82,70,1.43,70,1.78,Yes,sure,hit,3.1185648441314697,NA
273,!g89m2k,False,258,2,equal,ST2_low_3_a2,P = T1?,Same,2,2,low,70,1.41,112,0.95,112,0.99,No,sure,cr,1.2074711322784424,NA
274,!g89m2k,False,259,2,equal,ST2_low_6_a1,P = T1?,Same,2,1,low,154,0.75,96,1.14,96,1.09,No,sure,cr,1.6340699195861816,NA
275,!g89m2k,False,260,2,equal,ST2_high_4_a2,P = T2?,Same,2,2,high,96,1.17,70,1.81,70,1.77,No,sure,miss,1.2724089622497559,NA
276,!g89m2k,False,261,2,equal,ST1_high_4_a2,P = T2?,Same,1,2,high,96,1.39,70,1.64,96,1.06,No,sure,cr,1.226693868637085,NA
277,!g89m2k,False,262,2,equal,ST1_low_2_a1,P = T1?,Same,1,1,low,132,0.82,82,1.35,132,0.79,Yes,sure,hit,1.0013482570648193,NA
278,!g89m2k,False,263,2,equal,ST1_high_4_a1,P = T2?,Same,1,1,high,96,1.3,70,1.6,96,1.3,No,sure,cr,0.9111559391021729,NA
279,!g89m2k,False,264,2,equal,ST2_high_1_a2,P = T1?,Same,2,2,high,82,1.38,112,1.15,112,0.94,No,sure,cr,2.5739200115203857,NA
280,!g89m2k,False,265,2,equal,ST2_high_2_a1,P = T2?,Same,2,1,high,112,1.23,82,1.54,82,1.26,No,sure,miss,2.351609945297241,NA
281,!g89m2k,False,266,2,equal,ST2_low_2_a1,P = T2?,Same,2,1,low,132,0.95,82,1.3,82,1.33,No,sure,miss,1.1364879608154297,NA
282,!g89m2k,False,267,2,equal,ST1_low_4_a1,P = T1?,Same,1,1,low,112,1.04,70,1.53,112,1.23,Yes,sure,hit,2.753509998321533,NA
283,!g89m2k,False,268,2,equal,ST2_high_1_a1,P = T1?,Same,2,1,high,82,1.42,112,1.11,112,1.22,No,sure,cr,1.3793528079986572,NA
284,!g89m2k,False,269,2,equal,ST1_high_2_a1,P = T1?,Same,1,1,high,112,1.18,82,1.44,112,1.11,Yes,sure,hit,2.211606979370117,NA
285,!g89m2k,False,270,2,equal,ST2_low_3_a2,P = T2?,Same,2,2,low,70,1.57,112,1.17,112,1.16,Yes,sure,hit,1.4935290813446045,NA
286,!g89m2k,False,271,2,equal,ST2_low_4_a2,P = T2?,Same,2,2,low,112,1.1,70,1.55,70,1.38,Yes,sure,hit,1.9643828868865967,NA
287,!g89m2k,False,272,2,equal,ST1_high_1_a2,P = T2?,Same,1,2,high,82,1.64,112,1.21,82,1.45,No,sure,cr,1.2760398387908936,NA
288,!g89m2k,False,273,2,equal,ST2_high_1_a2,P = T2?,Same,2,2,high,82,1.48,112,1.2,112,1.19,No,sure,miss,1.6335558891296387,NA
289,!g89m2k,False,274,2,equal,ST2_low_3_a1,P = T1?,Same,2,1,low,70,1.76,112,0.92,112,0.92,No,sure,cr,3.6344351768493652,NA
290,!g89m2k,False,275,2,equal,ST1_low_6_a1,P = T1?,Same,1,1,low,154,0.84,96,1.25,154,0.79,Yes,sure,hit,1.4912960529327393,NA
291,!g89m2k,False,276,2,equal,ST1_low_1_a2,P = T1?,Same,1,2,low,82,1.29,132,0.84,82,1.63,Yes,sure,hit,1.8310787677764893,NA
292,!g89m2k,False,277,2,equal,ST2_low_6_a2,P = T2?,Same,2,2,low,154,0.87,96,1.27,96,1.14,Yes,sure,hit,1.1568210124969482,NA
293,!g89m2k,False,278,2,equal,ST2_low_2_a1,P = T1?,Same,2,1,low,132,0.82,82,1.64,82,1.49,No,sure,cr,1.2003810405731201,NA
294,!g89m2k,False,279,2,equal,ST2_low_4_a2,P = T2?,Same,2,2,low,112,0.97,70,1.49,70,1.73,Yes,sure,hit,1.3129210472106934,NA
295,!g89m2k,False,280,2,equal,ST1_low_6_a1,P = T2?,Same,1,1,low,154,0.71,96,1.12,154,0.83,No,sure,cr,0.9785010814666748,NA
296,!g89m2k,False,281,2,equal,ST1_low_2_a1,P = T1?,Same,1,1,low,132,0.85,82,1.57,132,0.97,Yes,sure,hit,1.504784107208252,NA
297,!g89m2k,False,282,2,equal,STb_7_a1,P = T1?,Same,0,1,None,154,0.84,154,0.78,154,0.76,Yes,sure,hit,1.3347599506378174,NA
298,!g89m2k,False,283,2,equal,ST1_high_6_a1,P = T2?,Same,1,1,high,132,0.79,96,1.3,132,0.98,No,sure,cr,1.6295108795166016,NA
299,!g89m2k,False,284,2,equal,ST1_low_1_a2,P = T2?,Same,1,2,low,82,1.36,132,0.99,82,1.64,No,sure,cr,1.4730439186096191,NA
300,!g89m2k,False,285,2,equal,ST2_high_3_a2,P = T2?,Same,2,2,high,70,1.6,96,1.39,96,1.29,Yes,sure,hit,1.5851340293884277,NA
301,!g89m2k,False,286,2,equal,ST2_high_2_a2,P = T1?,Same,2,2,high,112,1.05,82,1.55,82,1.28,No,sure,cr,1.0936191082000732,NA
302,!g89m2k,False,287,2,equal,DT2_high_6_a1,P = T1?,Different,2,1,high,132,0.85,96,1.41,82,1.59,No,quiteSure,cr,1.496201992034912,NA
303,!g89m2k,False,288,2,equal,ST2_high_6_a2,P = T2?,Same,2,2,high,132,1.03,96,1.41,96,1.31,Yes,sure,hit,1.9017469882965088,NA
304,!g89m2k,False,289,2,equal,ST2_low_4_a1,P = T2?,Same,2,1,low,112,0.97,70,1.71,70,1.59,Yes,sure,hit,1.4283490180969238,NA
305,!g89m2k,False,290,2,equal,ST2_low_5_a2,P = T2?,Same,2,2,low,96,1.22,154,0.79,154,0.88,Yes,sure,hit,1.5440948009490967,NA
306,!g89m2k,False,291,2,equal,ST2_low_1_a2,P = T2?,Same,2,2,low,82,1.47,132,0.98,132,1.05,Yes,sure,hit,1.2193326950073242,NA
307,!g89m2k,False,292,2,equal,ST1_low_5_a2,P = T2?,Same,1,2,low,96,1.08,154,0.75,96,1.33,No,sure,cr,1.3568220138549805,NA
308,!g89m2k,False,293,2,equal,ST1_low_5_a1,P = T1?,Same,1,1,low,96,1.31,154,0.72,96,1.21,Yes,sure,hit,1.1364150047302246,NA
309,!g89m2k,False,294,2,equal,STb_1_a1,P = T1?,Same,0,1,None,60,1.85,60,2.04,60,1.57,Yes,sure,hit,1.110950231552124,NA
310,!g89m2k,False,295,2,equal,ST1_high_4_a2,P = T1?,Same,1,2,high,96,1.12,70,1.68,96,1.21,Yes,sure,hit,1.601611852645874,NA
311,!g89m2k,False,296,2,equal,ST2_high_5_a2,P = T2?,Same,2,2,high,96,1.2,132,0.97,132,0.91,Yes,sure,hit,1.0969631671905518,NA
312,!g89m2k,False,297,2,equal,ST2_high_1_a1,P = T2?,Same,2,1,high,82,1.58,112,1.15,112,0.95,Yes,sure,hit,1.7655243873596191,NA
313,!g89m2k,False,298,2,equal,ST1_low_2_a2,P = T2?,Same,1,2,low,132,0.91,82,1.35,132,0.81,No,sure,cr,1.0449390411376953,NA
314,!g89m2k,False,299,2,equal,ST1_high_2_a1,P = T2?,Same,1,1,high,112,0.94,82,1.52,112,0.99,No,sure,cr,2.3436439037323,NA
315,!g89m2k,False,300,2,equal,STb_1_a1,P = T2?,Same,0,1,None,60,2.04,60,1.7,60,1.71,Yes,sure,hit,1.677105188369751,NA
316,!g89m2k,False,301,2,equal,ST2_high_4_a1,P = T2?,Same,2,1,high,96,1.29,70,1.61,70,1.43,Yes,sure,hit,1.1091079711914062,NA
317,!g89m2k,False,302,2,equal,ST2_low_4_a2,P = T1?,Same,2,2,low,112,1.08,70,1.82,70,1.61,No,quiteSure,cr,1.3518421649932861,NA
318,!g89m2k,False,303,2,equal,ST2_low_4_a1,P = T1?,Same,2,1,low,112,1.04,70,1.77,70,1.82,No,quiteSure,cr,1.381619930267334,NA
319,!g89m2k,False,304,2,equal,ST1_high_3_a1,P = T2?,Same,1,1,high,70,1.47,96,1.1,70,1.81,No,quiteSure,cr,1.7179291248321533,NA
320,!g89m2k,False,305,2,equal,ST1_low_5_a1,P = T2?,Same,1,1,low,96,1.15,154,0.83,96,1.11,No,sure,cr,1.3148417472839355,NA
321,!g89m2k,False,306,2,equal,ST1_low_3_a2,P = T2?,Same,1,2,low,70,1.71,112,1.23,70,1.67,No,sure,cr,1.2026479244232178,NA
322,!g89m2k,False,307,2,equal,ST1_high_5_a2,P = T1?,Same,1,2,high,96,1.4,132,0.93,96,1.38,Yes,sure,hit,0.9310469627380371,NA
323,!g89m2k,False,308,2,equal,ST2_high_2_a1,P = T1?,Same,2,1,high,112,1.02,82,1.47,82,1.57,No,sure,cr,1.4923059940338135,NA
324,!g89m2k,False,309,2,equal,STb_8_a2,P = T1?,Same,0,2,None,180,0.91,180,0.89,180,0.91,Yes,sure,hit,0.7988779544830322,NA
325,!g89m2k,False,310,2,equal,DT2_high_4_a2,P = T1?,Different,2,2,high,96,1.41,70,1.47,60,1.63,No,sure,cr,2.0098440647125244,NA
326,!g89m2k,False,311,2,equal,ST2_high_3_a1,P = T1?,Same,2,1,high,70,1.42,96,1.3,96,1.2,No,quiteSure,cr,1.4919829368591309,NA
327,!g89m2k,False,312,2,equal,ST2_low_5_a1,P = T2?,Same,2,1,low,96,1.34,154,0.83,154,0.93,Yes,sure,hit,1.5615768432617188,NA
328,!g89m2k,False,313,2,equal,ST1_low_5_a1,P = T2?,Same,1,1,low,96,1.36,154,0.82,96,1.28,No,quiteSure,cr,1.6535720825195312,NA
329,!g89m2k,False,314,2,equal,ST2_high_6_a2,P = T1?,Same,2,2,high,132,1.03,96,1.24,96,1.22,No,sure,cr,1.3347280025482178,NA
330,!g89m2k,False,315,2,equal,ST1_low_6_a2,P = T1?,Same,1,2,low,154,0.88,96,1.08,154,0.9,Yes,sure,hit,0.8849990367889404,NA
331,!g89m2k,False,316,2,equal,ST1_high_1_a1,P = T2?,Same,1,1,high,82,1.39,112,0.99,82,1.34,No,sure,cr,0.9971699714660645,NA
332,!g89m2k,False,317,2,equal,ST2_high_3_a2,P = T2?,Same,2,2,high,70,1.65,96,1.12,96,1.33,No,sure,miss,1.338951826095581,NA
333,!g89m2k,False,318,2,equal,ST1_low_3_a1,P = T2?,Same,1,1,low,70,1.45,112,1.21,70,1.84,No,sure,cr,1.6317198276519775,NA
334,!g89m2k,False,319,2,equal,ST1_high_1_a1,P = T1?,Same,1,1,high,82,1.62,112,1.1,82,1.29,Yes,sure,hit,1.3147828578948975,NA
335,!g89m2k,False,320,2,equal,ST2_high_5_a1,P = T2?,Same,2,1,high,96,1.39,132,0.8,132,0.89,Yes,sure,hit,1.560464859008789,0.75
