,pcode,practice,trial,block,questionType,condition,question,PTS,TargetPosition,AccessoryPosition,TNS,T1_hz,T1_amp,T2_hz,T2_amp,P_hz,P_amp,response_dicho,response_rating,response_sdt,rt,P_correct
0,0f2kn3!,True,1,1,unequal,STb_2_a2,P != T1?,Same,0,2,None,70,1.31,70,1.69,70,1.72,No,sure,cr,2.2797229290008545,NA
1,0f2kn3!,True,2,1,unequal,ST1_low_3_a1,P != T1?,Same,1,1,low,70,1.88,112,1.18,70,1.99,No,sure,cr,4.488927125930786,NA
2,0f2kn3!,True,3,1,unequal,STb_3_a2,P != T2?,Same,0,2,None,82,1.56,82,1.22,82,1.54,Yes,sure,fa,2.4680709838867188,NA
3,0f2kn3!,True,4,1,unequal,DT1_high_2_a2,P != T1?,Different,1,2,high,112,1.23,82,1.5,132,0.82,Yes,sure,fa,2.8884999752044678,NA
4,0f2kn3!,True,5,1,unequal,STb_5_a1,P != T1?,Same,0,1,None,112,1.03,112,1.1,112,1.18,No,sure,cr,2.14799427986145,NA
5,0f2kn3!,True,6,1,unequal,DT1_high_5_a2,P != T2?,Different,1,2,high,96,1.12,132,0.97,82,1.62,Yes,sure,hit,3.451592206954956,NA
6,0f2kn3!,True,7,1,unequal,DT2_low_5_a1,P != T1?,Different,2,1,low,96,1.43,154,0.95,180,0.82,Yes,sure,hit,2.6908340454101562,NA
7,0f2kn3!,True,8,1,unequal,STb_8_a2,P != T2?,Same,0,2,None,180,0.67,180,0.81,180,0.86,No,sure,cr,2.6664350032806396,NA
8,0f2kn3!,True,9,1,unequal,ST1_high_4_a1,P != T2?,Same,1,1,high,96,1.36,70,1.77,96,1.12,Yes,sure,hit,1.7945189476013184,NA
9,0f2kn3!,True,10,1,unequal,ST1_low_2_a1,P != T1?,Same,1,1,low,132,0.77,82,1.4,132,0.84,No,sure,cr,1.9270381927490234,NA
10,0f2kn3!,True,11,1,unequal,ST2_high_2_a2,P != T1?,Same,2,2,high,112,1.01,82,1.41,82,1.77,Yes,sure,hit,2.0819902420043945,NA
11,0f2kn3!,True,12,1,unequal,ST2_high_4_a1,P != T1?,Same,2,1,high,96,1.61,70,1.67,70,1.72,Yes,sure,hit,5.612732172012329,NA
12,0f2kn3!,True,13,1,unequal,DT1_low_6_a1,P != T2?,Different,1,1,low,154,0.68,96,1.24,180,0.72,Yes,sure,hit,1.3402619361877441,NA
13,0f2kn3!,True,14,1,unequal,ST1_low_4_a1,P != T2?,Same,1,1,low,112,0.94,70,1.38,112,1.04,Yes,sure,hit,1.5446479320526123,NA
14,0f2kn3!,True,15,1,unequal,ST2_high_4_a2,P != T2?,Same,2,2,high,96,1.26,70,1.76,70,1.6,No,sure,cr,1.9267168045043945,NA
15,0f2kn3!,True,16,1,unequal,ST2_high_2_a2,P != T2?,Same,2,2,high,112,0.86,82,1.43,82,1.33,No,sure,cr,1.4731509685516357,0.75
16,0f2kn3!,False,1,1,unequal,ST1_high_2_a1,P != T1?,Same,1,1,high,112,0.92,82,1.56,112,1.05,No,sure,cr,2.015691041946411,NA
17,0f2kn3!,False,2,1,unequal,ST2_high_1_a2,P != T1?,Same,2,2,high,82,1.52,112,1.13,112,0.98,No,sure,miss,1.9214608669281006,NA
18,0f2kn3!,False,3,1,unequal,ST2_high_1_a1,P != T2?,Same,2,1,high,82,1.57,112,1.03,112,1.16,No,sure,cr,2.937936782836914,NA
19,0f2kn3!,False,4,1,unequal,ST2_high_2_a1,P != T1?,Same,2,1,high,112,0.97,82,1.59,82,1.63,Yes,sure,hit,2.8433849811553955,NA
20,0f2kn3!,False,5,1,unequal,ST2_low_4_a1,P != T2?,Same,2,1,low,112,1.17,70,1.39,70,1.55,No,sure,cr,1.5211451053619385,NA
21,0f2kn3!,False,6,1,unequal,ST1_low_1_a2,P != T1?,Same,1,2,low,82,1.41,132,0.82,82,1.6,No,sure,cr,1.405508279800415,NA
22,0f2kn3!,False,7,1,unequal,ST1_high_4_a2,P != T1?,Same,1,2,high,96,1.35,70,1.82,96,1.28,No,quiteSure,cr,10.739803314208984,NA
23,0f2kn3!,False,8,1,unequal,ST1_low_3_a1,P != T2?,Same,1,1,low,70,1.6,112,0.93,70,1.62,Yes,sure,hit,3.0638341903686523,NA
24,0f2kn3!,False,9,1,unequal,DT1_high_5_a1,P != T2?,Different,1,1,high,96,1.15,132,0.9,82,1.3,Yes,sure,hit,1.6768980026245117,NA
25,0f2kn3!,False,10,1,unequal,ST2_high_6_a2,P != T1?,Same,2,2,high,132,1.02,96,1.29,96,1.17,Yes,sure,hit,2.1072871685028076,NA
26,0f2kn3!,False,11,1,unequal,ST2_low_1_a1,P != T1?,Same,2,1,low,82,1.26,132,0.8,132,0.95,Yes,sure,hit,1.8311922550201416,NA
27,0f2kn3!,False,12,1,unequal,ST2_low_3_a2,P != T1?,Same,2,2,low,70,1.45,112,0.92,112,0.94,Yes,sure,hit,2.7338509559631348,NA
28,0f2kn3!,False,13,1,unequal,ST1_low_5_a1,P != T1?,Same,1,1,low,96,1.07,154,0.72,96,1.33,No,sure,cr,2.2397119998931885,NA
29,0f2kn3!,False,14,1,unequal,ST1_low_5_a1,P != T1?,Same,1,1,low,96,1.31,154,0.91,96,1.36,No,sure,cr,2.1720128059387207,NA
30,0f2kn3!,False,15,1,unequal,ST2_high_3_a2,P != T2?,Same,2,2,high,70,1.46,96,1.28,96,1.41,No,sure,cr,1.8075900077819824,NA
31,0f2kn3!,False,16,1,unequal,ST2_high_5_a1,P != T1?,Same,2,1,high,96,1.39,132,1.04,132,0.91,Yes,sure,hit,6.132972240447998,NA
32,0f2kn3!,False,17,1,unequal,ST2_high_1_a1,P != T1?,Same,2,1,high,82,1.48,112,1.19,112,0.97,Yes,sure,hit,2.5520639419555664,NA
33,0f2kn3!,False,18,1,unequal,ST1_low_6_a1,P != T1?,Same,1,1,low,154,0.89,96,1.16,154,0.73,No,sure,cr,1.7229812145233154,NA
34,0f2kn3!,False,19,1,unequal,ST2_low_5_a2,P != T2?,Same,2,2,low,96,1.07,154,0.8,154,0.77,No,sure,cr,1.854384183883667,NA
35,0f2kn3!,False,20,1,unequal,ST2_low_5_a2,P != T1?,Same,2,2,low,96,1.19,154,0.92,154,0.91,Yes,sure,hit,1.695605993270874,NA
36,0f2kn3!,False,21,1,unequal,STb_7_a2,P != T2?,Same,0,2,None,154,0.88,154,0.87,154,0.95,No,sure,cr,1.7713751792907715,NA
37,0f2kn3!,False,22,1,unequal,ST1_low_1_a2,P != T1?,Same,1,2,low,82,1.27,132,0.86,82,1.44,No,unsure,cr,5.50362491607666,NA
38,0f2kn3!,False,23,1,unequal,ST1_high_5_a1,P != T1?,Same,1,1,high,96,1.08,132,1.03,96,1.19,No,quiteSure,cr,1.9009737968444824,NA
39,0f2kn3!,False,24,1,unequal,ST1_low_4_a2,P != T1?,Same,1,2,low,112,1.19,70,1.79,112,1.07,No,sure,cr,1.4236643314361572,NA
40,0f2kn3!,False,25,1,unequal,DT1_high_6_a1,P != T1?,Different,1,1,high,132,1.04,96,1.16,154,0.71,Yes,sure,fa,1.475512981414795,NA
41,0f2kn3!,False,26,1,unequal,DT2_low_4_a2,P != T2?,Different,2,2,low,112,1.16,70,1.5,60,1.52,Yes,unsure,fa,3.677948236465454,NA
42,0f2kn3!,False,27,1,unequal,ST2_high_3_a1,P != T2?,Same,2,1,high,70,1.63,96,1.06,96,1.24,No,sure,cr,1.3627898693084717,NA
43,0f2kn3!,False,28,1,unequal,ST2_low_5_a2,P != T1?,Same,2,2,low,96,1.33,154,0.95,154,0.89,Yes,sure,hit,2.735971212387085,NA
44,0f2kn3!,False,29,1,unequal,ST1_high_2_a2,P != T2?,Same,1,2,high,112,1.16,82,1.52,112,1.06,Yes,sure,hit,2.2174508571624756,NA
45,0f2kn3!,False,30,1,unequal,STb_8_a2,P != T2?,Same,0,2,None,180,0.67,180,0.81,180,0.86,No,sure,cr,1.8070402145385742,NA
46,0f2kn3!,False,31,1,unequal,ST2_low_1_a1,P != T2?,Same,2,1,low,82,1.48,132,0.98,132,1.05,No,sure,cr,1.4793779850006104,NA
47,0f2kn3!,False,32,1,unequal,ST2_high_6_a2,P != T1?,Same,2,2,high,132,0.92,96,1.33,96,1.3,Yes,sure,hit,2.4363620281219482,NA
48,0f2kn3!,False,33,1,unequal,STb_8_a1,P != T1?,Same,0,1,None,180,0.9,180,0.74,180,0.86,No,sure,cr,4.4816930294036865,NA
49,0f2kn3!,False,34,1,unequal,STb_4_a2,P != T1?,Same,0,2,None,96,1.3,96,1.11,96,1.19,No,sure,cr,1.6055419445037842,NA
50,0f2kn3!,False,35,1,unequal,ST1_high_2_a2,P != T2?,Same,1,2,high,112,1.07,82,1.26,112,1.16,Yes,sure,hit,1.8112881183624268,NA
51,0f2kn3!,False,36,1,unequal,ST2_high_3_a1,P != T2?,Same,2,1,high,70,1.68,96,1.16,96,1.23,No,sure,cr,1.6332449913024902,NA
52,0f2kn3!,False,37,1,unequal,STb_2_a2,P != T1?,Same,0,2,None,70,1.31,70,1.69,70,1.72,Yes,sure,fa,2.5330700874328613,NA
53,0f2kn3!,False,38,1,unequal,ST1_high_4_a2,P != T2?,Same,1,2,high,96,1.34,70,1.77,96,1.07,Yes,sure,hit,2.0172669887542725,NA
54,0f2kn3!,False,39,1,unequal,ST2_low_5_a1,P != T1?,Same,2,1,low,96,1.25,154,0.94,154,0.9,Yes,sure,hit,2.7341649532318115,NA
55,0f2kn3!,False,40,1,unequal,ST2_low_6_a2,P != T1?,Same,2,2,low,154,0.95,96,1.34,96,1.41,Yes,sure,hit,7.570024013519287,NA
56,0f2kn3!,False,41,1,unequal,ST2_low_1_a2,P != T2?,Same,2,2,low,82,1.61,132,1.06,132,1.01,No,sure,cr,2.325070858001709,NA
57,0f2kn3!,False,42,1,unequal,ST2_low_5_a2,P != T1?,Same,2,2,low,96,1.39,154,0.85,154,0.78,Yes,sure,hit,2.41892409324646,NA
58,0f2kn3!,False,43,1,unequal,ST1_low_1_a1,P != T1?,Same,1,1,low,82,1.38,132,0.82,82,1.61,No,sure,cr,2.0370030403137207,NA
59,0f2kn3!,False,44,1,unequal,ST1_low_2_a2,P != T2?,Same,1,2,low,132,0.81,82,1.22,132,0.89,Yes,sure,hit,2.5270369052886963,NA
60,0f2kn3!,False,45,1,unequal,ST1_high_3_a1,P != T1?,Same,1,1,high,70,1.46,96,1.12,70,1.8,Yes,unsure,fa,2.5741701126098633,NA
61,0f2kn3!,False,46,1,unequal,ST2_high_2_a2,P != T1?,Same,2,2,high,112,1.01,82,1.41,82,1.77,Yes,quiteSure,hit,1.653667688369751,NA
62,0f2kn3!,False,47,1,unequal,ST2_high_3_a2,P != T2?,Same,2,2,high,70,1.53,96,1.41,96,1.08,No,sure,cr,3.611027956008911,NA
63,0f2kn3!,False,48,1,unequal,ST1_high_4_a2,P != T2?,Same,1,2,high,96,1.13,70,1.76,96,1.34,Yes,sure,hit,2.5057358741760254,NA
64,0f2kn3!,False,49,1,unequal,ST2_high_6_a2,P != T1?,Same,2,2,high,132,1.0,96,1.37,96,1.15,Yes,sure,hit,2.3260140419006348,NA
65,0f2kn3!,False,50,1,unequal,ST2_high_6_a1,P != T1?,Same,2,1,high,132,1.01,96,1.36,96,1.25,Yes,sure,hit,1.792280912399292,NA
66,0f2kn3!,False,51,1,unequal,ST1_high_4_a1,P != T2?,Same,1,1,high,96,1.19,70,1.79,96,1.32,Yes,sure,hit,1.7671432495117188,NA
67,0f2kn3!,False,52,1,unequal,ST2_low_3_a2,P != T2?,Same,2,2,low,70,1.81,112,1.05,112,1.0,No,sure,cr,3.7237257957458496,NA
68,0f2kn3!,False,53,1,unequal,ST1_high_5_a1,P != T2?,Same,1,1,high,96,1.17,132,1.05,96,1.33,Yes,sure,hit,1.5626299381256104,NA
69,0f2kn3!,False,54,1,unequal,ST2_low_6_a1,P != T1?,Same,2,1,low,154,0.75,96,1.28,96,1.16,Yes,sure,hit,1.538639783859253,NA
70,0f2kn3!,False,55,1,unequal,ST1_high_4_a1,P != T1?,Same,1,1,high,96,1.23,70,1.61,96,1.1,No,sure,cr,1.7443640232086182,NA
71,0f2kn3!,False,56,1,unequal,ST2_high_2_a2,P != T2?,Same,2,2,high,112,1.11,82,1.47,82,1.63,No,sure,cr,1.9894862174987793,NA
72,0f2kn3!,False,57,1,unequal,ST1_low_5_a2,P != T2?,Same,1,2,low,96,1.19,154,0.82,96,1.35,Yes,sure,hit,1.857741117477417,NA
73,0f2kn3!,False,58,1,unequal,ST2_high_6_a1,P != T1?,Same,2,1,high,132,0.94,96,1.12,96,1.09,Yes,unsure,hit,5.069926977157593,NA
74,0f2kn3!,False,59,1,unequal,ST2_high_3_a1,P != T2?,Same,2,1,high,70,1.73,96,1.31,96,1.37,No,sure,cr,2.0347042083740234,NA
75,0f2kn3!,False,60,1,unequal,ST1_low_5_a2,P != T2?,Same,1,2,low,96,1.37,154,0.76,96,1.25,Yes,sure,hit,1.5856859683990479,NA
76,0f2kn3!,False,61,1,unequal,ST1_high_6_a1,P != T1?,Same,1,1,high,132,0.8,96,1.35,132,1.01,Yes,sure,fa,2.258026123046875,NA
77,0f2kn3!,False,62,1,unequal,ST2_high_6_a2,P != T2?,Same,2,2,high,132,0.84,96,1.16,96,1.07,No,sure,cr,2.0325229167938232,NA
78,0f2kn3!,False,63,1,unequal,ST2_high_5_a1,P != T2?,Same,2,1,high,96,1.2,132,0.89,132,0.96,No,sure,cr,2.3542110919952393,NA
79,0f2kn3!,False,64,1,unequal,ST2_high_1_a2,P != T2?,Same,2,2,high,82,1.37,112,1.02,112,0.92,No,sure,cr,1.7178449630737305,NA
80,0f2kn3!,False,65,1,unequal,ST2_low_2_a1,P != T1?,Same,2,1,low,132,0.89,82,1.5,82,1.38,Yes,sure,hit,2.282297134399414,NA
81,0f2kn3!,False,66,1,unequal,ST1_low_4_a2,P != T1?,Same,1,2,low,112,1.16,70,1.7,112,1.17,No,sure,cr,2.014185905456543,NA
82,0f2kn3!,False,67,1,unequal,ST1_high_2_a2,P != T1?,Same,1,2,high,112,1.14,82,1.54,112,1.22,No,sure,cr,1.610661268234253,NA
83,0f2kn3!,False,68,1,unequal,ST1_high_2_a1,P != T2?,Same,1,1,high,112,1.03,82,1.3,112,0.92,Yes,sure,hit,1.5175390243530273,NA
84,0f2kn3!,False,69,1,unequal,ST2_low_1_a1,P != T2?,Same,2,1,low,82,1.43,132,0.89,132,0.88,No,sure,cr,1.4941580295562744,NA
85,0f2kn3!,False,70,1,unequal,ST2_low_6_a1,P != T1?,Same,2,1,low,154,0.86,96,1.29,96,1.22,Yes,sure,hit,1.7901129722595215,NA
86,0f2kn3!,False,71,1,unequal,ST2_high_3_a2,P != T1?,Same,2,2,high,70,1.6,96,1.1,96,1.31,Yes,sure,hit,2.7556629180908203,NA
87,0f2kn3!,False,72,1,unequal,DT1_low_6_a1,P != T2?,Different,1,1,low,154,0.68,96,1.24,180,0.72,Yes,sure,hit,1.7855470180511475,NA
88,0f2kn3!,False,73,1,unequal,ST2_high_5_a2,P != T1?,Same,2,2,high,96,1.36,132,1.0,132,0.93,Yes,sure,hit,3.1905300617218018,NA
89,0f2kn3!,False,74,1,unequal,STb_3_a1,P != T1?,Same,0,1,None,82,1.57,82,1.6,82,1.22,Yes,quiteSure,fa,1.405735969543457,NA
90,0f2kn3!,False,75,1,unequal,ST1_low_1_a1,P != T1?,Same,1,1,low,82,1.51,132,0.89,82,1.54,No,sure,cr,2.802762031555176,NA
91,0f2kn3!,False,76,1,unequal,ST1_low_6_a1,P != T1?,Same,1,1,low,154,0.77,96,1.13,154,0.76,No,quiteSure,cr,1.9662280082702637,NA
92,0f2kn3!,False,77,1,unequal,ST2_high_3_a1,P != T1?,Same,2,1,high,70,1.38,96,1.12,96,1.12,Yes,sure,hit,1.920745849609375,NA
93,0f2kn3!,False,78,1,unequal,ST2_high_1_a1,P != T1?,Same,2,1,high,82,1.45,112,0.95,112,0.92,Yes,sure,hit,1.5429611206054688,NA
94,0f2kn3!,False,79,1,unequal,ST1_high_2_a1,P != T1?,Same,1,1,high,112,0.97,82,1.64,112,1.04,No,sure,cr,1.8354191780090332,NA
95,0f2kn3!,False,80,1,unequal,ST1_high_2_a1,P != T1?,Same,1,1,high,112,1.15,82,1.43,112,0.99,No,sure,cr,2.0196609497070312,NA
96,0f2kn3!,False,81,1,unequal,ST1_high_3_a2,P != T1?,Same,1,2,high,70,1.69,96,1.35,70,1.4,No,sure,cr,2.474703073501587,NA
97,0f2kn3!,False,82,1,unequal,ST1_high_1_a2,P != T2?,Same,1,2,high,82,1.32,112,1.18,82,1.61,Yes,quiteSure,hit,3.613534927368164,NA
98,0f2kn3!,False,83,1,unequal,ST1_high_2_a2,P != T1?,Same,1,2,high,112,0.98,82,1.56,112,1.06,No,unsure,cr,4.804525136947632,NA
99,0f2kn3!,False,84,1,unequal,ST1_high_1_a1,P != T2?,Same,1,1,high,82,1.46,112,1.07,82,1.4,Yes,sure,hit,3.318125009536743,NA
100,0f2kn3!,False,85,1,unequal,ST2_high_6_a1,P != T2?,Same,2,1,high,132,0.85,96,1.39,96,1.43,No,sure,cr,3.0693676471710205,NA
101,0f2kn3!,False,86,1,unequal,ST1_high_3_a2,P != T2?,Same,1,2,high,70,1.67,96,1.41,70,1.54,Yes,sure,hit,1.9938738346099854,NA
102,0f2kn3!,False,87,1,unequal,ST1_low_3_a1,P != T1?,Same,1,1,low,70,1.88,112,1.18,70,1.99,No,sure,cr,1.9520530700683594,NA
103,0f2kn3!,False,88,1,unequal,ST2_high_4_a2,P != T2?,Same,2,2,high,96,1.11,70,1.76,70,1.73,No,sure,cr,2.194002151489258,NA
104,0f2kn3!,False,89,1,unequal,ST2_high_3_a1,P != T1?,Same,2,1,high,70,1.54,96,1.28,96,1.42,Yes,quiteSure,hit,8.067391872406006,NA
105,0f2kn3!,False,90,1,unequal,ST1_low_2_a2,P != T1?,Same,1,2,low,132,0.8,82,1.27,132,0.95,Yes,unsure,fa,2.5276927947998047,NA
106,0f2kn3!,False,91,1,unequal,ST2_high_6_a2,P != T2?,Same,2,2,high,132,0.99,96,1.11,96,1.42,No,quiteSure,cr,1.7211089134216309,NA
107,0f2kn3!,False,92,1,unequal,DT1_high_5_a1,P != T1?,Different,1,1,high,96,1.21,132,0.93,82,1.57,Yes,unsure,fa,5.516955137252808,NA
108,0f2kn3!,False,93,1,unequal,ST2_high_4_a1,P != T2?,Same,2,1,high,96,1.14,70,1.41,70,1.79,No,sure,cr,1.3836331367492676,NA
109,0f2kn3!,False,94,1,unequal,ST1_high_1_a2,P != T1?,Same,1,2,high,82,1.59,112,0.93,82,1.38,No,sure,cr,1.7845311164855957,NA
110,0f2kn3!,False,95,1,unequal,ST1_low_3_a1,P != T2?,Same,1,1,low,70,1.79,112,0.95,70,1.38,Yes,sure,hit,2.2108688354492188,NA
111,0f2kn3!,False,96,1,unequal,ST2_low_1_a2,P != T1?,Same,2,2,low,82,1.29,132,0.87,132,1.03,Yes,sure,hit,1.4282820224761963,NA
112,0f2kn3!,False,97,1,unequal,ST2_low_5_a1,P != T2?,Same,2,1,low,96,1.22,154,0.91,154,0.78,No,sure,cr,1.8779878616333008,NA
113,0f2kn3!,False,98,1,unequal,ST2_high_1_a1,P != T2?,Same,2,1,high,82,1.38,112,0.98,112,1.07,No,sure,cr,1.650174856185913,NA
114,0f2kn3!,False,99,1,unequal,ST1_high_6_a1,P != T2?,Same,1,1,high,132,0.87,96,1.34,132,1.0,Yes,sure,hit,5.950870990753174,NA
115,0f2kn3!,False,100,1,unequal,ST1_low_6_a2,P != T2?,Same,1,2,low,154,0.86,96,1.35,154,0.77,Yes,sure,hit,1.626652717590332,NA
116,0f2kn3!,False,101,1,unequal,ST1_low_1_a1,P != T2?,Same,1,1,low,82,1.52,132,1.02,82,1.35,Yes,sure,hit,1.5227267742156982,NA
117,0f2kn3!,False,102,1,unequal,ST1_low_5_a1,P != T1?,Same,1,1,low,96,1.32,154,0.93,96,1.08,No,sure,cr,1.4945011138916016,NA
118,0f2kn3!,False,103,1,unequal,ST2_low_4_a2,P != T1?,Same,2,2,low,112,1.02,70,1.7,70,1.59,Yes,sure,hit,1.5218608379364014,NA
119,0f2kn3!,False,104,1,unequal,ST1_high_1_a2,P != T2?,Same,1,2,high,82,1.45,112,0.99,82,1.27,Yes,sure,hit,1.606046199798584,NA
120,0f2kn3!,False,105,1,unequal,ST1_high_1_a1,P != T1?,Same,1,1,high,82,1.35,112,1.2,82,1.26,No,sure,cr,1.8374290466308594,NA
121,0f2kn3!,False,106,1,unequal,ST2_low_1_a2,P != T2?,Same,2,2,low,82,1.26,132,0.83,132,0.98,No,sure,cr,1.4918818473815918,NA
122,0f2kn3!,False,107,1,unequal,ST2_low_2_a2,P != T2?,Same,2,2,low,132,1.06,82,1.6,82,1.47,No,sure,cr,1.6456592082977295,NA
123,0f2kn3!,False,108,1,unequal,ST1_low_4_a2,P != T2?,Same,1,2,low,112,0.92,70,1.41,112,1.15,Yes,sure,hit,2.4985342025756836,NA
124,0f2kn3!,False,109,1,unequal,ST2_low_6_a2,P != T1?,Same,2,2,low,154,0.77,96,1.09,96,1.23,Yes,sure,hit,2.1951181888580322,NA
125,0f2kn3!,False,110,1,unequal,ST2_low_4_a1,P != T1?,Same,2,1,low,112,1.01,70,1.57,70,1.41,Yes,sure,hit,1.8324909210205078,NA
126,0f2kn3!,False,111,1,unequal,ST2_low_3_a2,P != T2?,Same,2,2,low,70,1.7,112,1.01,112,1.06,No,sure,cr,2.1675548553466797,NA
127,0f2kn3!,False,112,1,unequal,ST1_low_6_a1,P != T1?,Same,1,1,low,154,0.81,96,1.36,154,0.88,No,sure,cr,6.469146013259888,NA
128,0f2kn3!,False,113,1,unequal,DT2_low_1_a1,P != T2?,Different,2,1,low,82,1.54,132,0.79,154,0.76,Yes,sure,fa,2.010633945465088,NA
129,0f2kn3!,False,114,1,unequal,ST2_low_3_a1,P != T1?,Same,2,1,low,70,1.65,112,1.12,112,1.14,Yes,sure,hit,1.5622167587280273,NA
130,0f2kn3!,False,115,1,unequal,DT1_high_2_a1,P != T1?,Different,1,1,high,112,1.16,82,1.56,132,0.83,Yes,sure,fa,1.4946649074554443,NA
131,0f2kn3!,False,116,1,unequal,ST1_high_1_a1,P != T1?,Same,1,1,high,82,1.6,112,1.0,82,1.28,No,quiteSure,cr,1.8579881191253662,NA
132,0f2kn3!,False,117,1,unequal,ST1_high_3_a2,P != T2?,Same,1,2,high,70,1.49,96,1.15,70,1.7,Yes,sure,hit,1.4522202014923096,NA
133,0f2kn3!,False,118,1,unequal,ST2_high_4_a1,P != T2?,Same,2,1,high,96,1.35,70,1.44,70,1.39,No,sure,cr,2.0142641067504883,NA
134,0f2kn3!,False,119,1,unequal,ST1_low_3_a2,P != T2?,Same,1,2,low,70,1.52,112,1.01,70,1.77,Yes,sure,hit,1.541705846786499,NA
135,0f2kn3!,False,120,1,unequal,ST2_high_5_a2,P != T2?,Same,2,2,high,96,1.16,132,0.89,132,0.92,No,sure,cr,1.56119704246521,NA
136,0f2kn3!,False,121,1,unequal,ST2_low_1_a2,P != T1?,Same,2,2,low,82,1.22,132,0.95,132,1.02,Yes,sure,hit,1.4030208587646484,NA
137,0f2kn3!,False,122,1,unequal,ST1_high_6_a2,P != T2?,Same,1,2,high,132,1.06,96,1.19,132,0.93,Yes,sure,hit,1.0709013938903809,NA
138,0f2kn3!,False,123,1,unequal,ST1_high_6_a2,P != T1?,Same,1,2,high,132,0.8,96,1.41,132,1.0,Yes,unsure,fa,1.564404010772705,NA
139,0f2kn3!,False,124,1,unequal,ST1_high_4_a1,P != T1?,Same,1,1,high,96,1.14,70,1.51,96,1.29,No,sure,cr,1.692309856414795,NA
140,0f2kn3!,False,125,1,unequal,ST1_high_1_a2,P != T1?,Same,1,2,high,82,1.48,112,1.12,82,1.58,No,quiteSure,cr,1.5175511837005615,NA
141,0f2kn3!,False,126,1,unequal,ST2_low_2_a1,P != T1?,Same,2,1,low,132,0.87,82,1.37,82,1.6,Yes,sure,hit,1.4365029335021973,NA
142,0f2kn3!,False,127,1,unequal,ST2_low_6_a1,P != T2?,Same,2,1,low,154,0.91,96,1.08,96,1.35,No,sure,cr,1.3406000137329102,NA
143,0f2kn3!,False,128,1,unequal,ST1_low_5_a2,P != T1?,Same,1,2,low,96,1.13,154,0.96,96,1.08,No,unsure,cr,3.227914810180664,NA
144,0f2kn3!,False,129,1,unequal,ST2_low_1_a1,P != T2?,Same,2,1,low,82,1.62,132,0.98,132,0.81,No,sure,cr,1.2271859645843506,NA
145,0f2kn3!,False,130,1,unequal,ST2_high_1_a2,P != T2?,Same,2,2,high,82,1.23,112,0.99,112,1.01,No,sure,cr,1.539607048034668,NA
146,0f2kn3!,False,131,1,unequal,DT2_high_3_a1,P != T2?,Different,2,1,high,70,1.55,96,1.1,112,1.01,Yes,sure,fa,1.4273557662963867,NA
147,0f2kn3!,False,132,1,unequal,ST1_high_4_a1,P != T1?,Same,1,1,high,96,1.17,70,1.74,96,1.21,No,sure,cr,2.6201469898223877,NA
148,0f2kn3!,False,133,1,unequal,ST1_low_3_a2,P != T1?,Same,1,2,low,70,1.56,112,1.16,70,1.62,No,sure,cr,1.832948923110962,NA
149,0f2kn3!,False,134,1,unequal,DT1_low_6_a2,P != T1?,Different,1,2,low,154,0.74,96,1.2,180,0.92,Yes,sure,fa,2.1507787704467773,NA
150,0f2kn3!,False,135,1,unequal,ST2_low_2_a2,P != T1?,Same,2,2,low,132,0.82,82,1.32,82,1.28,Yes,sure,hit,1.567289113998413,NA
151,0f2kn3!,False,136,1,unequal,ST1_low_5_a1,P != T2?,Same,1,1,low,96,1.1,154,0.82,96,1.14,Yes,sure,hit,1.5831279754638672,NA
152,0f2kn3!,False,137,1,unequal,ST1_low_3_a1,P != T1?,Same,1,1,low,70,1.49,112,1.17,70,1.52,No,sure,cr,1.430455207824707,NA
153,0f2kn3!,False,138,1,unequal,ST2_low_6_a2,P != T2?,Same,2,2,low,154,0.71,96,1.32,96,1.27,No,sure,cr,1.6127588748931885,NA
154,0f2kn3!,False,139,1,unequal,ST1_high_5_a2,P != T2?,Same,1,2,high,96,1.22,132,0.94,96,1.22,Yes,sure,hit,2.2581701278686523,NA
155,0f2kn3!,False,140,1,unequal,ST2_low_4_a2,P != T1?,Same,2,2,low,112,1.18,70,1.51,70,1.57,Yes,quiteSure,hit,5.806662082672119,NA
156,0f2kn3!,False,141,1,unequal,ST1_high_4_a1,P != T2?,Same,1,1,high,96,1.36,70,1.77,96,1.12,Yes,sure,hit,1.561568021774292,NA
157,0f2kn3!,False,142,1,unequal,ST2_high_6_a2,P != T2?,Same,2,2,high,132,0.84,96,1.24,96,1.36,No,sure,cr,1.7004621028900146,NA
158,0f2kn3!,False,143,1,unequal,ST2_high_2_a1,P != T2?,Same,2,1,high,112,0.93,82,1.35,82,1.52,No,sure,cr,1.6265192031860352,NA
159,0f2kn3!,False,144,1,unequal,ST2_high_5_a1,P != T1?,Same,2,1,high,96,1.09,132,0.91,132,0.96,Yes,sure,hit,1.7904198169708252,NA
160,0f2kn3!,False,145,1,unequal,ST2_high_2_a2,P != T2?,Same,2,2,high,112,0.86,82,1.43,82,1.33,No,sure,cr,1.427968978881836,NA
161,0f2kn3!,False,146,1,unequal,ST2_high_4_a2,P != T2?,Same,2,2,high,96,1.09,70,1.63,70,1.53,Yes,unsure,fa,1.6524839401245117,NA
162,0f2kn3!,False,147,1,unequal,ST1_high_1_a1,P != T1?,Same,1,1,high,82,1.38,112,1.19,82,1.44,No,quiteSure,cr,2.3758251667022705,NA
163,0f2kn3!,False,148,1,unequal,ST1_high_6_a2,P != T1?,Same,1,2,high,132,0.99,96,1.26,132,1.02,No,sure,cr,1.2256081104278564,NA
164,0f2kn3!,False,149,1,unequal,ST1_low_4_a1,P != T1?,Same,1,1,low,112,1.14,70,1.47,112,1.09,No,sure,cr,1.4300038814544678,NA
165,0f2kn3!,False,150,1,unequal,ST1_low_3_a2,P != T1?,Same,1,2,low,70,1.46,112,0.95,70,1.6,No,quiteSure,cr,1.5422532558441162,NA
166,0f2kn3!,False,151,1,unequal,ST2_high_4_a2,P != T2?,Same,2,2,high,96,1.26,70,1.76,70,1.6,No,sure,cr,1.7909212112426758,NA
167,0f2kn3!,False,152,1,unequal,ST1_low_5_a2,P != T1?,Same,1,2,low,96,1.19,154,0.92,96,1.34,No,sure,cr,1.5074467658996582,NA
168,0f2kn3!,False,153,1,unequal,STb_1_a1,P != T1?,Same,0,1,None,60,1.79,60,1.89,60,1.72,No,unsure,cr,4.081985950469971,NA
169,0f2kn3!,False,154,1,unequal,ST1_low_1_a2,P != T2?,Same,1,2,low,82,1.37,132,0.83,82,1.61,Yes,sure,hit,1.8730156421661377,NA
170,0f2kn3!,False,155,1,unequal,ST1_high_3_a1,P != T1?,Same,1,1,high,70,1.75,96,1.41,70,1.51,No,sure,cr,1.6082851886749268,NA
171,0f2kn3!,False,156,1,unequal,ST1_low_3_a1,P != T2?,Same,1,1,low,70,1.62,112,0.99,70,1.82,Yes,sure,hit,1.6308588981628418,NA
172,0f2kn3!,False,157,1,unequal,ST2_low_4_a2,P != T2?,Same,2,2,low,112,1.18,70,1.38,70,1.77,No,sure,cr,1.516874074935913,NA
173,0f2kn3!,False,158,1,unequal,ST2_low_1_a1,P != T1?,Same,2,1,low,82,1.25,132,1.0,132,0.9,Yes,sure,hit,3.6997687816619873,NA
174,0f2kn3!,False,159,1,unequal,ST2_low_5_a2,P != T2?,Same,2,2,low,96,1.26,154,0.89,154,0.95,No,sure,cr,2.1960318088531494,NA
175,0f2kn3!,False,160,1,unequal,ST2_low_5_a1,P != T2?,Same,2,1,low,96,1.35,154,0.86,154,0.76,No,sure,cr,1.6315689086914062,NA
176,0f2kn3!,False,161,1,unequal,ST1_high_5_a2,P != T1?,Same,1,2,high,96,1.42,132,0.79,96,1.09,No,sure,cr,2.55428409576416,NA
177,0f2kn3!,False,162,1,unequal,ST1_high_6_a1,P != T2?,Same,1,1,high,132,1.04,96,1.18,132,0.79,Yes,unsure,hit,3.768573045730591,NA
178,0f2kn3!,False,163,1,unequal,ST1_high_3_a2,P != T1?,Same,1,2,high,70,1.45,96,1.22,70,1.56,No,sure,cr,2.799182653427124,NA
179,0f2kn3!,False,164,1,unequal,ST1_high_5_a1,P != T1?,Same,1,1,high,96,1.09,132,0.88,96,1.07,No,unsure,cr,2.8466291427612305,NA
180,0f2kn3!,False,165,1,unequal,ST2_high_3_a2,P != T1?,Same,2,2,high,70,1.41,96,1.28,96,1.23,No,unsure,miss,1.8307290077209473,NA
181,0f2kn3!,False,166,1,unequal,ST2_low_2_a1,P != T2?,Same,2,1,low,132,0.87,82,1.39,82,1.39,No,sure,cr,1.2929012775421143,NA
182,0f2kn3!,False,167,1,unequal,ST1_low_1_a1,P != T1?,Same,1,1,low,82,1.47,132,0.9,82,1.57,No,quiteSure,cr,3.2329490184783936,NA
183,0f2kn3!,False,168,1,unequal,ST1_low_6_a2,P != T1?,Same,1,2,low,154,0.72,96,1.27,154,0.85,No,sure,cr,2.460507869720459,NA
184,0f2kn3!,False,169,1,unequal,ST1_high_5_a2,P != T2?,Same,1,2,high,96,1.29,132,0.87,96,1.38,Yes,sure,hit,1.671156883239746,NA
185,0f2kn3!,False,170,1,unequal,ST1_low_6_a1,P != T2?,Same,1,1,low,154,0.86,96,1.28,154,0.74,Yes,sure,hit,2.230132818222046,NA
186,0f2kn3!,False,171,1,unequal,ST2_high_1_a2,P != T1?,Same,2,2,high,82,1.54,112,1.03,112,1.16,Yes,quiteSure,hit,2.7548141479492188,NA
187,0f2kn3!,False,172,1,unequal,ST1_high_4_a2,P != T1?,Same,1,2,high,96,1.43,70,1.47,96,1.08,No,quiteSure,cr,1.651120901107788,NA
188,0f2kn3!,False,173,1,unequal,ST2_low_6_a1,P != T1?,Same,2,1,low,154,0.75,96,1.13,96,1.28,Yes,quiteSure,hit,1.6509809494018555,NA
189,0f2kn3!,False,174,1,unequal,ST2_high_4_a2,P != T1?,Same,2,2,high,96,1.29,70,1.56,70,1.67,Yes,sure,hit,1.5580518245697021,NA
190,0f2kn3!,False,175,1,unequal,ST1_low_3_a2,P != T1?,Same,1,2,low,70,1.84,112,1.1,70,1.8,No,sure,cr,1.315161943435669,NA
191,0f2kn3!,False,176,1,unequal,ST2_low_3_a1,P != T1?,Same,2,1,low,70,1.73,112,1.21,112,1.17,Yes,sure,hit,1.8808462619781494,NA
192,0f2kn3!,False,177,1,unequal,ST1_low_2_a1,P != T1?,Same,1,1,low,132,0.77,82,1.4,132,0.84,No,sure,cr,2.8472039699554443,NA
193,0f2kn3!,False,178,1,unequal,ST2_low_3_a1,P != T1?,Same,2,1,low,70,1.69,112,1.17,112,1.21,Yes,sure,hit,1.6752700805664062,NA
194,0f2kn3!,False,179,1,unequal,ST2_high_4_a2,P != T1?,Same,2,2,high,96,1.1,70,1.66,70,1.42,Yes,sure,hit,2.0793581008911133,NA
195,0f2kn3!,False,180,1,unequal,ST1_low_5_a1,P != T2?,Same,1,1,low,96,1.16,154,0.85,96,1.4,Yes,sure,hit,1.403278112411499,NA
196,0f2kn3!,False,181,1,unequal,ST1_low_2_a2,P != T1?,Same,1,2,low,132,0.81,82,1.43,132,0.97,No,sure,cr,4.040527105331421,NA
197,0f2kn3!,False,182,1,unequal,ST1_low_2_a1,P != T2?,Same,1,1,low,132,0.89,82,1.36,132,1.0,Yes,sure,hit,1.5831201076507568,NA
198,0f2kn3!,False,183,1,unequal,ST2_low_2_a1,P != T2?,Same,2,1,low,132,0.84,82,1.39,82,1.31,No,sure,cr,3.048694133758545,NA
199,0f2kn3!,False,184,1,unequal,ST2_high_2_a1,P != T1?,Same,2,1,high,112,1.19,82,1.3,82,1.63,Yes,sure,hit,1.3390321731567383,NA
200,0f2kn3!,False,185,1,unequal,ST1_low_2_a1,P != T1?,Same,1,1,low,132,0.96,82,1.38,132,0.83,No,quiteSure,cr,1.4493608474731445,NA
201,0f2kn3!,False,186,1,unequal,ST1_low_6_a2,P != T2?,Same,1,2,low,154,0.91,96,1.22,154,0.78,Yes,sure,hit,1.3813691139221191,NA
202,0f2kn3!,False,187,1,unequal,STb_1_a2,P != T1?,Same,0,2,None,60,1.73,60,1.83,60,1.74,No,sure,cr,1.8125741481781006,NA
203,0f2kn3!,False,188,1,unequal,ST2_low_4_a2,P != T1?,Same,2,2,low,112,0.97,70,1.52,70,1.43,Yes,sure,hit,1.431473970413208,NA
204,0f2kn3!,False,189,1,unequal,ST2_low_5_a1,P != T1?,Same,2,1,low,96,1.13,154,0.85,154,0.77,Yes,sure,hit,1.5129992961883545,NA
205,0f2kn3!,False,190,1,unequal,ST1_low_4_a1,P != T2?,Same,1,1,low,112,0.92,70,1.68,112,1.23,Yes,sure,hit,3.994765043258667,NA
206,0f2kn3!,False,191,1,unequal,ST1_low_3_a1,P != T1?,Same,1,1,low,70,1.53,112,1.21,70,1.37,No,sure,cr,1.9654171466827393,NA
207,0f2kn3!,False,192,1,unequal,ST1_high_5_a2,P != T1?,Same,1,2,high,96,1.16,132,1.06,96,1.18,No,sure,cr,2.080026149749756,NA
208,0f2kn3!,False,193,1,unequal,STb_6_a2,P != T2?,Same,0,2,None,132,0.89,132,0.82,132,0.81,No,sure,cr,1.3353679180145264,NA
209,0f2kn3!,False,194,1,unequal,ST2_low_5_a1,P != T1?,Same,2,1,low,96,1.07,154,0.91,154,0.8,Yes,sure,hit,1.4086947441101074,NA
210,0f2kn3!,False,195,1,unequal,ST2_low_2_a2,P != T1?,Same,2,2,low,132,0.8,82,1.6,82,1.56,Yes,sure,hit,2.1478519439697266,NA
211,0f2kn3!,False,196,1,unequal,ST2_low_5_a2,P != T2?,Same,2,2,low,96,1.26,154,0.84,154,0.83,No,sure,cr,3.9917681217193604,NA
212,0f2kn3!,False,197,1,unequal,ST1_high_6_a1,P != T1?,Same,1,1,high,132,0.9,96,1.11,132,0.94,No,sure,cr,1.8304011821746826,NA
213,0f2kn3!,False,198,1,unequal,ST2_low_3_a2,P != T2?,Same,2,2,low,70,1.81,112,1.0,112,1.09,No,sure,cr,2.4201149940490723,NA
214,0f2kn3!,False,199,1,unequal,ST2_high_3_a2,P != T2?,Same,2,2,high,70,1.78,96,1.16,96,1.35,No,sure,cr,2.105576992034912,NA
215,0f2kn3!,False,200,1,unequal,ST2_high_3_a2,P != T1?,Same,2,2,high,70,1.44,96,1.41,96,1.18,Yes,sure,hit,3.0479657649993896,NA
216,0f2kn3!,False,201,1,unequal,STb_3_a2,P != T1?,Same,0,2,None,82,1.29,82,1.41,82,1.37,No,sure,cr,1.4678781032562256,NA
217,0f2kn3!,False,202,1,unequal,ST2_high_5_a1,P != T2?,Same,2,1,high,96,1.37,132,1.03,132,0.96,No,sure,cr,1.6461403369903564,NA
218,0f2kn3!,False,203,1,unequal,ST1_high_1_a1,P != T2?,Same,1,1,high,82,1.52,112,0.92,82,1.22,Yes,sure,hit,1.443476915359497,NA
219,0f2kn3!,False,204,1,unequal,DT1_high_6_a1,P != T2?,Different,1,1,high,132,1.0,96,1.24,154,0.84,Yes,sure,hit,1.6759519577026367,NA
220,0f2kn3!,False,205,1,unequal,ST1_low_5_a1,P != T2?,Same,1,1,low,96,1.34,154,0.8,96,1.12,Yes,sure,hit,2.28021502494812,NA
221,0f2kn3!,False,206,1,unequal,ST1_low_1_a1,P != T2?,Same,1,1,low,82,1.58,132,0.94,82,1.6,Yes,sure,hit,3.6733639240264893,NA
222,0f2kn3!,False,207,1,unequal,ST1_low_5_a2,P != T1?,Same,1,2,low,96,1.42,154,0.9,96,1.09,No,sure,cr,1.6548199653625488,NA
223,0f2kn3!,False,208,1,unequal,ST1_high_5_a1,P != T1?,Same,1,1,high,96,1.15,132,0.83,96,1.15,No,quiteSure,cr,1.926872968673706,NA
224,0f2kn3!,False,209,1,unequal,ST1_low_2_a1,P != T2?,Same,1,1,low,132,0.97,82,1.56,132,0.99,Yes,sure,hit,1.986896276473999,NA
225,0f2kn3!,False,210,1,unequal,ST2_high_5_a1,P != T2?,Same,2,1,high,96,1.3,132,0.93,132,0.97,No,sure,cr,1.2666609287261963,NA
226,0f2kn3!,False,211,1,unequal,ST1_low_2_a1,P != T1?,Same,1,1,low,132,0.85,82,1.4,132,0.83,No,sure,cr,1.607227087020874,NA
227,0f2kn3!,False,212,1,unequal,ST1_low_4_a2,P != T1?,Same,1,2,low,112,1.05,70,1.84,112,0.98,No,quiteSure,cr,1.3612940311431885,NA
228,0f2kn3!,False,213,1,unequal,ST2_high_5_a2,P != T2?,Same,2,2,high,96,1.15,132,1.05,132,0.81,No,sure,cr,2.9155972003936768,NA
229,0f2kn3!,False,214,1,unequal,ST2_high_5_a2,P != T2?,Same,2,2,high,96,1.41,132,0.86,132,1.0,No,sure,cr,1.1315240859985352,NA
230,0f2kn3!,False,215,1,unequal,ST1_high_3_a2,P != T1?,Same,1,2,high,70,1.62,96,1.32,70,1.54,No,quiteSure,cr,1.2930278778076172,NA
231,0f2kn3!,False,216,1,unequal,ST2_low_4_a1,P != T2?,Same,2,1,low,112,1.18,70,1.41,70,1.73,No,unsure,cr,1.8308098316192627,NA
232,0f2kn3!,False,217,1,unequal,ST2_low_1_a1,P != T1?,Same,2,1,low,82,1.55,132,0.93,132,0.87,Yes,sure,hit,1.4514460563659668,NA
233,0f2kn3!,False,218,1,unequal,ST1_high_2_a2,P != T1?,Same,1,2,high,112,1.12,82,1.42,112,1.13,No,sure,cr,1.1334667205810547,NA
234,0f2kn3!,False,219,1,unequal,ST2_high_2_a1,P != T2?,Same,2,1,high,112,0.95,82,1.36,82,1.58,No,sure,cr,1.497967004776001,NA
235,0f2kn3!,False,220,1,unequal,DT2_high_1_a1,P != T1?,Different,2,1,high,82,1.24,112,1.11,132,0.83,Yes,unsure,hit,1.7240877151489258,NA
236,0f2kn3!,False,221,1,unequal,ST1_high_2_a2,P != T2?,Same,1,2,high,112,1.07,82,1.4,112,0.96,Yes,sure,hit,1.3160488605499268,NA
237,0f2kn3!,False,222,1,unequal,ST1_high_1_a2,P != T1?,Same,1,2,high,82,1.4,112,1.23,82,1.37,No,sure,cr,2.482213258743286,NA
238,0f2kn3!,False,223,1,unequal,ST2_low_6_a1,P != T2?,Same,2,1,low,154,0.76,96,1.06,96,1.19,No,sure,cr,1.3371269702911377,NA
239,0f2kn3!,False,224,1,unequal,ST2_high_6_a1,P != T1?,Same,2,1,high,132,1.0,96,1.06,96,1.15,Yes,sure,hit,2.5060060024261475,NA
240,0f2kn3!,False,225,1,unequal,ST2_high_5_a2,P != T1?,Same,2,2,high,96,1.27,132,0.96,132,1.05,Yes,sure,hit,1.4093029499053955,NA
241,0f2kn3!,False,226,1,unequal,ST2_high_1_a2,P != T1?,Same,2,2,high,82,1.25,112,1.15,112,0.95,Yes,quiteSure,hit,2.816220998764038,NA
242,0f2kn3!,False,227,1,unequal,ST1_low_1_a2,P != T2?,Same,1,2,low,82,1.55,132,1.03,82,1.38,Yes,sure,hit,1.5572190284729004,NA
243,0f2kn3!,False,228,1,unequal,ST1_high_4_a2,P != T2?,Same,1,2,high,96,1.24,70,1.72,96,1.13,Yes,sure,hit,1.9192028045654297,NA
244,0f2kn3!,False,229,1,unequal,ST1_high_3_a2,P != T2?,Same,1,2,high,70,1.8,96,1.29,70,1.49,Yes,sure,hit,1.5000560283660889,NA
245,0f2kn3!,False,230,1,unequal,ST2_high_4_a1,P != T2?,Same,2,1,high,96,1.09,70,1.8,70,1.47,No,sure,cr,1.6981289386749268,NA
246,0f2kn3!,False,231,1,unequal,ST1_high_2_a1,P != T2?,Same,1,1,high,112,1.23,82,1.58,112,0.98,Yes,sure,hit,1.431535005569458,NA
247,0f2kn3!,False,232,1,unequal,ST1_high_6_a1,P != T2?,Same,1,1,high,132,0.82,96,1.21,132,1.03,Yes,sure,hit,1.4324848651885986,NA
248,0f2kn3!,False,233,1,unequal,ST1_high_3_a1,P != T2?,Same,1,1,high,70,1.42,96,1.42,70,1.81,Yes,sure,hit,1.4022493362426758,NA
249,0f2kn3!,False,234,1,unequal,ST2_high_6_a1,P != T2?,Same,2,1,high,132,0.85,96,1.29,96,1.19,No,sure,cr,1.5183207988739014,NA
250,0f2kn3!,False,235,1,unequal,ST1_low_6_a2,P != T1?,Same,1,2,low,154,0.87,96,1.27,154,0.92,No,sure,cr,1.049532175064087,NA
251,0f2kn3!,False,236,1,unequal,ST2_high_4_a1,P != T1?,Same,2,1,high,96,1.11,70,1.63,70,1.7,Yes,sure,hit,1.2919082641601562,NA
252,0f2kn3!,False,237,1,unequal,ST2_low_3_a2,P != T1?,Same,2,2,low,70,1.43,112,1.19,112,1.13,Yes,sure,hit,1.2688450813293457,NA
253,0f2kn3!,False,238,1,unequal,ST2_low_4_a1,P != T1?,Same,2,1,low,112,0.93,70,1.53,70,1.84,Yes,sure,hit,1.7621350288391113,NA
254,0f2kn3!,False,239,1,unequal,DT1_low_2_a2,P != T1?,Different,1,2,low,132,0.91,82,1.26,154,0.92,Yes,quiteSure,fa,2.2869179248809814,NA
255,0f2kn3!,False,240,1,unequal,ST1_high_2_a1,P != T2?,Same,1,1,high,112,1.1,82,1.44,112,1.23,Yes,sure,hit,2.9601223468780518,NA
256,0f2kn3!,False,241,1,unequal,ST2_low_2_a2,P != T1?,Same,2,2,low,132,0.82,82,1.23,82,1.3,Yes,sure,hit,1.227409839630127,NA
257,0f2kn3!,False,242,1,unequal,DT2_high_5_a2,P != T2?,Different,2,2,high,96,1.12,132,0.86,154,0.92,Yes,sure,fa,1.2041640281677246,NA
258,0f2kn3!,False,243,1,unequal,ST2_low_5_a1,P != T2?,Same,2,1,low,96,1.06,154,0.94,154,0.75,No,sure,cr,1.871448040008545,NA
259,0f2kn3!,False,244,1,unequal,ST1_low_1_a1,P != T2?,Same,1,1,low,82,1.44,132,1.03,82,1.45,Yes,sure,hit,1.1782810688018799,NA
260,0f2kn3!,False,245,1,unequal,ST1_high_6_a2,P != T1?,Same,1,2,high,132,0.93,96,1.09,132,0.96,No,sure,cr,1.6071929931640625,NA
261,0f2kn3!,False,246,1,unequal,ST1_low_3_a2,P != T2?,Same,1,2,low,70,1.61,112,1.0,70,1.49,Yes,sure,hit,3.1361191272735596,NA
262,0f2kn3!,False,247,1,unequal,ST2_low_2_a2,P != T2?,Same,2,2,low,132,0.99,82,1.38,82,1.37,No,sure,cr,1.4050188064575195,NA
263,0f2kn3!,False,248,1,unequal,ST2_high_4_a1,P != T1?,Same,2,1,high,96,1.09,70,1.52,70,1.82,Yes,quiteSure,hit,1.4958677291870117,NA
264,0f2kn3!,False,249,1,unequal,ST2_low_6_a2,P != T2?,Same,2,2,low,154,0.74,96,1.2,96,1.18,No,sure,cr,1.4282481670379639,NA
265,0f2kn3!,False,250,1,unequal,ST1_high_6_a2,P != T2?,Same,1,2,high,132,0.83,96,1.41,132,0.92,Yes,sure,hit,1.6812281608581543,NA
266,0f2kn3!,False,251,1,unequal,ST1_low_4_a1,P != T1?,Same,1,1,low,112,0.94,70,1.78,112,1.08,No,sure,cr,6.915959119796753,NA
267,0f2kn3!,False,252,1,unequal,ST1_low_4_a2,P != T2?,Same,1,2,low,112,1.22,70,1.79,112,0.92,Yes,sure,hit,3.3162999153137207,NA
268,0f2kn3!,False,253,1,unequal,DT1_low_5_a2,P != T1?,Different,1,2,low,96,1.33,154,0.82,82,1.33,No,unsure,cr,1.7237660884857178,NA
269,0f2kn3!,False,254,1,unequal,ST2_high_2_a1,P != T2?,Same,2,1,high,112,1.18,82,1.59,82,1.49,No,sure,cr,1.230964183807373,NA
270,0f2kn3!,False,255,1,unequal,ST2_high_1_a2,P != T2?,Same,2,2,high,82,1.59,112,0.97,112,1.0,No,sure,cr,1.8611259460449219,NA
271,0f2kn3!,False,256,1,unequal,ST2_low_4_a2,P != T2?,Same,2,2,low,112,0.97,70,1.64,70,1.45,No,sure,cr,1.2922070026397705,NA
272,0f2kn3!,False,257,1,unequal,ST2_low_4_a1,P != T2?,Same,2,1,low,112,1.19,70,1.41,70,1.55,No,sure,cr,2.3085899353027344,NA
273,0f2kn3!,False,258,1,unequal,ST2_low_6_a2,P != T1?,Same,2,2,low,154,0.74,96,1.34,96,1.37,Yes,sure,hit,2.5993258953094482,NA
274,0f2kn3!,False,259,1,unequal,STb_2_a1,P != T2?,Same,0,1,None,70,1.8,70,1.38,70,1.44,No,sure,cr,2.078655958175659,NA
275,0f2kn3!,False,260,1,unequal,ST1_low_6_a1,P != T2?,Same,1,1,low,154,0.9,96,1.11,154,0.82,Yes,sure,hit,2.865593194961548,NA
276,0f2kn3!,False,261,1,unequal,ST1_low_2_a2,P != T1?,Same,1,2,low,132,0.93,82,1.36,132,0.94,No,sure,cr,1.7668612003326416,NA
277,0f2kn3!,False,262,1,unequal,ST2_low_2_a2,P != T2?,Same,2,2,low,132,1.03,82,1.62,82,1.47,No,sure,cr,1.320194959640503,NA
278,0f2kn3!,False,263,1,unequal,ST2_high_5_a2,P != T1?,Same,2,2,high,96,1.4,132,1.03,132,0.92,Yes,sure,hit,2.079329013824463,NA
279,0f2kn3!,False,264,1,unequal,ST1_high_4_a1,P != T2?,Same,1,1,high,96,1.27,70,1.79,96,1.17,No,sure,miss,1.534219741821289,NA
280,0f2kn3!,False,265,1,unequal,ST1_high_3_a1,P != T2?,Same,1,1,high,70,1.55,96,1.35,70,1.43,Yes,sure,hit,2.03635311126709,NA
281,0f2kn3!,False,266,1,unequal,ST1_low_2_a2,P != T2?,Same,1,2,low,132,0.94,82,1.62,132,1.03,Yes,sure,hit,1.337325096130371,NA
282,0f2kn3!,False,267,1,unequal,DT2_high_4_a2,P != T2?,Different,2,2,high,96,1.21,70,1.84,60,1.95,Yes,quiteSure,fa,1.8525562286376953,NA
283,0f2kn3!,False,268,1,unequal,ST1_high_5_a1,P != T2?,Same,1,1,high,96,1.35,132,0.85,96,1.2,Yes,sure,hit,1.3383512496948242,NA
284,0f2kn3!,False,269,1,unequal,ST2_low_6_a1,P != T2?,Same,2,1,low,154,0.81,96,1.12,96,1.38,No,sure,cr,1.6995360851287842,NA
285,0f2kn3!,False,270,1,unequal,ST2_high_5_a1,P != T1?,Same,2,1,high,96,1.27,132,0.89,132,0.79,Yes,sure,hit,2.392324209213257,NA
286,0f2kn3!,False,271,1,unequal,DT2_high_2_a1,P != T1?,Different,2,1,high,112,0.99,82,1.53,70,1.4,No,unsure,miss,7.145057916641235,NA
287,0f2kn3!,False,272,1,unequal,ST1_high_4_a2,P != T1?,Same,1,2,high,96,1.11,70,1.7,96,1.4,No,sure,cr,1.8771390914916992,NA
288,0f2kn3!,False,273,1,unequal,ST1_low_4_a2,P != T2?,Same,1,2,low,112,1.1,70,1.44,112,0.97,Yes,sure,hit,1.678023099899292,NA
289,0f2kn3!,False,274,1,unequal,ST1_low_1_a2,P != T2?,Same,1,2,low,82,1.51,132,0.93,82,1.39,Yes,sure,hit,1.7013399600982666,NA
290,0f2kn3!,False,275,1,unequal,STb_7_a1,P != T2?,Same,0,1,None,154,0.85,154,0.93,154,0.92,No,sure,cr,2.828305244445801,NA
291,0f2kn3!,False,276,1,unequal,ST2_high_2_a2,P != T2?,Same,2,2,high,112,1.19,82,1.57,82,1.52,No,sure,cr,3.658824920654297,NA
292,0f2kn3!,False,277,1,unequal,STb_7_a2,P != T1?,Same,0,2,None,154,0.73,154,0.79,154,0.81,No,sure,cr,3.06623911857605,NA
293,0f2kn3!,False,278,1,unequal,ST1_low_6_a1,P != T2?,Same,1,1,low,154,0.91,96,1.29,154,0.76,Yes,sure,hit,1.4036879539489746,NA
294,0f2kn3!,False,279,1,unequal,ST2_high_1_a1,P != T2?,Same,2,1,high,82,1.31,112,1.2,112,1.09,No,sure,cr,1.5643723011016846,NA
295,0f2kn3!,False,280,1,unequal,ST1_high_1_a2,P != T2?,Same,1,2,high,82,1.34,112,1.02,82,1.54,Yes,sure,hit,1.447371006011963,NA
296,0f2kn3!,False,281,1,unequal,ST2_high_6_a1,P != T2?,Same,2,1,high,132,0.83,96,1.2,96,1.39,No,sure,cr,1.56253981590271,NA
297,0f2kn3!,False,282,1,unequal,ST1_low_2_a1,P != T2?,Same,1,1,low,132,0.81,82,1.22,132,0.88,Yes,sure,hit,1.3842332363128662,NA
298,0f2kn3!,False,283,1,unequal,ST2_high_2_a1,P != T1?,Same,2,1,high,112,0.92,82,1.53,82,1.29,Yes,sure,hit,2.757812976837158,NA
299,0f2kn3!,False,284,1,unequal,ST1_low_5_a2,P != T2?,Same,1,2,low,96,1.41,154,0.95,96,1.34,Yes,sure,hit,1.4320800304412842,NA
300,0f2kn3!,False,285,1,unequal,STb_5_a1,P != T2?,Same,0,1,None,112,0.99,112,1.11,112,1.1,No,sure,cr,1.5160408020019531,NA
301,0f2kn3!,False,286,1,unequal,ST2_low_6_a2,P != T2?,Same,2,2,low,154,0.88,96,1.2,96,1.32,No,sure,cr,1.8729281425476074,NA
302,0f2kn3!,False,287,1,unequal,ST1_high_6_a2,P != T2?,Same,1,2,high,132,1.03,96,1.33,132,0.86,Yes,sure,hit,1.5398130416870117,NA
303,0f2kn3!,False,288,1,unequal,ST1_high_5_a1,P != T2?,Same,1,1,high,96,1.25,132,0.91,96,1.11,Yes,sure,hit,1.5194880962371826,NA
304,0f2kn3!,False,289,1,unequal,ST1_low_6_a2,P != T1?,Same,1,2,low,154,0.89,96,1.43,154,0.92,No,sure,cr,1.723768949508667,NA
305,0f2kn3!,False,290,1,unequal,ST2_low_2_a1,P != T2?,Same,2,1,low,132,0.98,82,1.5,82,1.42,No,sure,cr,1.985840082168579,NA
306,0f2kn3!,False,291,1,unequal,ST2_high_3_a1,P != T1?,Same,2,1,high,70,1.61,96,1.13,96,1.28,Yes,sure,hit,1.5197958946228027,NA
307,0f2kn3!,False,292,1,unequal,ST1_high_1_a1,P != T2?,Same,1,1,high,82,1.44,112,0.96,82,1.53,Yes,sure,hit,3.834256172180176,NA
308,0f2kn3!,False,293,1,unequal,ST2_high_4_a1,P != T1?,Same,2,1,high,96,1.61,70,1.67,70,1.72,Yes,sure,hit,1.609032154083252,NA
309,0f2kn3!,False,294,1,unequal,ST2_low_3_a1,P != T2?,Same,2,1,low,70,1.72,112,1.05,112,1.0,No,sure,cr,2.0632131099700928,NA
310,0f2kn3!,False,295,1,unequal,ST2_low_1_a2,P != T1?,Same,2,2,low,82,1.28,132,0.88,132,0.83,Yes,sure,hit,1.4918451309204102,NA
311,0f2kn3!,False,296,1,unequal,ST1_low_4_a1,P != T2?,Same,1,1,low,112,1.01,70,1.75,112,1.02,Yes,sure,hit,6.0417280197143555,NA
312,0f2kn3!,False,297,1,unequal,STb_3_a2,P != T2?,Same,0,2,None,82,1.56,82,1.22,82,1.54,No,sure,cr,2.44390606880188,NA
313,0f2kn3!,False,298,1,unequal,ST1_low_2_a2,P != T2?,Same,1,2,low,132,1.0,82,1.32,132,1.04,Yes,sure,hit,1.6283650398254395,NA
314,0f2kn3!,False,299,1,unequal,STb_4_a1,P != T2?,Same,0,1,None,96,1.12,96,1.07,96,1.08,No,sure,cr,1.4539568424224854,NA
315,0f2kn3!,False,300,1,unequal,ST2_low_4_a2,P != T2?,Same,2,2,low,112,1.22,70,1.7,70,1.46,No,sure,cr,1.493562936782837,NA
316,0f2kn3!,False,301,1,unequal,ST1_low_6_a2,P != T2?,Same,1,2,low,154,0.74,96,1.41,154,0.86,Yes,sure,hit,2.2389283180236816,NA
317,0f2kn3!,False,302,1,unequal,ST2_high_2_a2,P != T1?,Same,2,2,high,112,0.99,82,1.57,82,1.33,Yes,sure,hit,2.283383846282959,NA
318,0f2kn3!,False,303,1,unequal,ST1_high_3_a1,P != T1?,Same,1,1,high,70,1.81,96,1.38,70,1.73,No,sure,cr,1.3827838897705078,NA
319,0f2kn3!,False,304,1,unequal,ST1_high_5_a2,P != T2?,Same,1,2,high,96,1.32,132,1.05,96,1.19,Yes,sure,hit,1.8557891845703125,NA
320,0f2kn3!,False,305,1,unequal,ST1_low_4_a1,P != T1?,Same,1,1,low,112,1.1,70,1.44,112,1.22,No,quiteSure,cr,4.669371843338013,NA
321,0f2kn3!,False,306,1,unequal,ST2_low_1_a2,P != T2?,Same,2,2,low,82,1.57,132,0.97,132,0.82,No,sure,cr,2.4879910945892334,NA
322,0f2kn3!,False,307,1,unequal,ST2_low_4_a1,P != T1?,Same,2,1,low,112,1.09,70,1.66,70,1.64,Yes,sure,hit,1.5360350608825684,NA
323,0f2kn3!,False,308,1,unequal,ST1_high_3_a1,P != T2?,Same,1,1,high,70,1.38,96,1.1,70,1.55,No,sure,miss,2.7070329189300537,NA
324,0f2kn3!,False,309,1,unequal,ST1_high_6_a1,P != T1?,Same,1,1,high,132,0.87,96,1.31,132,1.01,No,sure,cr,1.5629229545593262,NA
325,0f2kn3!,False,310,1,unequal,ST1_low_4_a1,P != T2?,Same,1,1,low,112,0.94,70,1.38,112,1.04,No,sure,miss,1.588057041168213,NA
326,0f2kn3!,False,311,1,unequal,ST2_low_3_a2,P != T1?,Same,2,2,low,70,1.84,112,1.2,112,1.01,Yes,unsure,hit,2.280888080596924,NA
327,0f2kn3!,False,312,1,unequal,ST2_high_2_a2,P != T1?,Same,2,2,high,112,1.13,82,1.3,82,1.27,Yes,sure,hit,1.6735451221466064,NA
328,0f2kn3!,False,313,1,unequal,ST2_low_2_a1,P != T1?,Same,2,1,low,132,1.03,82,1.45,82,1.62,Yes,sure,hit,1.5158941745758057,NA
329,0f2kn3!,False,314,1,unequal,ST2_low_3_a1,P != T2?,Same,2,1,low,70,1.63,112,1.14,112,0.94,No,sure,cr,1.6736018657684326,NA
330,0f2kn3!,False,315,1,unequal,ST1_high_5_a2,P != T1?,Same,1,2,high,96,1.32,132,1.01,96,1.19,No,sure,cr,1.426443099975586,NA
331,0f2kn3!,False,316,1,unequal,ST2_high_4_a2,P != T1?,Same,2,2,high,96,1.36,70,1.69,70,1.58,Yes,sure,hit,1.4037549495697021,NA
332,0f2kn3!,False,317,1,unequal,ST1_low_3_a2,P != T2?,Same,1,2,low,70,1.42,112,1.1,70,1.83,Yes,sure,hit,1.7392079830169678,NA
333,0f2kn3!,False,318,1,unequal,ST1_low_1_a2,P != T1?,Same,1,2,low,82,1.63,132,0.82,82,1.38,No,sure,cr,1.7028160095214844,NA
334,0f2kn3!,False,319,1,unequal,ST2_low_3_a1,P != T2?,Same,2,1,low,70,1.76,112,1.17,112,0.92,No,quiteSure,cr,1.3359148502349854,NA
335,0f2kn3!,False,320,1,unequal,ST2_high_1_a1,P != T1?,Same,2,1,high,82,1.54,112,1.01,112,0.98,Yes,sure,hit,1.5856430530548096,1.0
