,pcode,practice,trial,block,questionType,condition,question,PTS,TargetPosition,AccessoryPosition,TNS,T1_hz,T1_amp,T2_hz,T2_amp,P_hz,P_amp,response_dicho,response_rating,response_sdt,rt,P_correct
0,#6o1h4m,True,1,1,equal,ST2_low_5_a2,P = T2?,Same,2,2,low,96,1.18,154,0.82,154,0.71,Yes,quiteSure,hit,6.002685070037842,NA
1,#6o1h4m,True,2,1,equal,STb_8_a1,P = T2?,Same,0,1,None,180,0.84,180,0.83,180,0.87,Yes,sure,hit,0.8404951095581055,NA
2,#6o1h4m,True,3,1,equal,ST1_high_2_a2,P = T1?,Same,1,2,high,112,1.11,82,1.44,112,0.84,Yes,sure,hit,3.140963077545166,NA
3,#6o1h4m,True,4,1,equal,DT1_high_6_a1,P = T1?,Different,1,1,high,132,0.93,96,1.15,154,0.69,No,quiteSure,miss,9.176050901412964,NA
4,#6o1h4m,True,5,1,equal,DT1_high_6_a2,P = T1?,Different,1,2,high,132,0.92,96,1.36,154,0.87,No,quiteSure,miss,3.618921995162964,NA
5,#6o1h4m,True,6,1,equal,DT2_low_1_a2,P = T2?,Different,2,2,low,82,1.56,132,1.03,154,0.72,Yes,quiteSure,hit,1.7050721645355225,NA
6,#6o1h4m,True,7,1,equal,ST2_high_4_a1,P = T1?,Same,2,1,high,96,0.92,70,1.43,70,1.78,No,sure,cr,1.6975290775299072,NA
7,#6o1h4m,True,8,1,equal,STb_7_a1,P = T2?,Same,0,1,None,154,0.93,154,0.75,154,0.91,Yes,sure,hit,1.396254062652588,NA
8,#6o1h4m,True,9,1,equal,ST1_low_3_a1,P = T2?,Same,1,1,low,70,1.57,112,1.07,70,1.76,No,sure,cr,1.446655035018921,NA
9,#6o1h4m,True,10,1,equal,ST1_low_4_a1,P = T1?,Same,1,1,low,112,1.25,70,1.45,112,1.1,Yes,sure,hit,1.1743297576904297,NA
10,#6o1h4m,True,11,1,equal,STb_8_a2,P = T1?,Same,0,2,None,180,1.01,180,0.77,180,0.83,Yes,sure,hit,1.2150609493255615,NA
11,#6o1h4m,True,12,1,equal,ST2_low_6_a2,P = T1?,Same,2,2,low,154,0.84,96,1.62,96,1.19,No,sure,cr,1.3732459545135498,NA
12,#6o1h4m,True,13,1,equal,ST2_low_4_a2,P = T2?,Same,2,2,low,112,1.16,70,1.53,70,1.9,Yes,sure,hit,1.8857839107513428,NA
13,#6o1h4m,True,14,1,equal,STb_6_a2,P = T1?,Same,0,2,None,132,0.95,132,0.9,132,0.88,Yes,sure,hit,1.3951079845428467,NA
14,#6o1h4m,True,15,1,equal,DT1_high_2_a2,P = T2?,Different,1,2,high,112,0.94,82,1.57,132,1.02,Yes,quiteSure,fa,1.9545788764953613,NA
15,#6o1h4m,True,16,1,equal,ST1_low_5_a2,P = T2?,Same,1,2,low,96,1.19,154,0.65,96,1.46,No,sure,cr,1.4953112602233887,0.625
16,#6o1h4m,False,1,1,equal,ST2_low_1_a1,P = T1?,Same,2,1,low,82,1.55,132,1.06,132,1.04,No,sure,cr,1.4513318538665771,NA
17,#6o1h4m,False,2,1,equal,ST2_high_4_a1,P = T2?,Same,2,1,high,96,1.21,70,1.69,70,1.73,Yes,sure,hit,1.8989331722259521,NA
18,#6o1h4m,False,3,1,equal,ST2_low_4_a2,P = T1?,Same,2,2,low,112,1.2,70,1.49,70,1.4,No,sure,cr,1.4632439613342285,NA
19,#6o1h4m,False,4,1,equal,DT1_high_2_a1,P = T2?,Different,1,1,high,112,1.11,82,1.34,132,0.83,No,quiteSure,cr,11.245508909225464,NA
20,#6o1h4m,False,5,1,equal,ST2_low_5_a1,P = T1?,Same,2,1,low,96,1.33,154,0.89,154,0.71,No,sure,cr,1.3299431800842285,NA
21,#6o1h4m,False,6,1,equal,ST1_high_2_a2,P = T2?,Same,1,2,high,112,0.96,82,1.39,112,1.09,No,sure,cr,1.3899691104888916,NA
22,#6o1h4m,False,7,1,equal,ST1_high_4_a2,P = T1?,Same,1,2,high,96,1.28,70,1.4,96,1.18,Yes,sure,hit,2.8626697063446045,NA
23,#6o1h4m,False,8,1,equal,ST2_low_2_a2,P = T2?,Same,2,2,low,132,1.01,82,1.23,82,1.51,Yes,sure,hit,3.1311349868774414,NA
24,#6o1h4m,False,9,1,equal,ST2_high_5_a1,P = T2?,Same,2,1,high,96,1.29,132,0.92,132,0.89,Yes,sure,hit,1.2569949626922607,NA
25,#6o1h4m,False,10,1,equal,ST2_high_6_a2,P = T2?,Same,2,2,high,132,1.02,96,1.18,96,1.27,Yes,sure,hit,3.435054063796997,NA
26,#6o1h4m,False,11,1,equal,ST2_high_6_a1,P = T2?,Same,2,1,high,132,1.04,96,1.35,96,1.13,Yes,sure,hit,2.1109790802001953,NA
27,#6o1h4m,False,12,1,equal,ST2_low_5_a2,P = T2?,Same,2,2,low,96,1.08,154,0.86,154,0.73,Yes,sure,hit,1.2370870113372803,NA
28,#6o1h4m,False,13,1,equal,ST2_high_1_a2,P = T1?,Same,2,2,high,82,1.49,112,0.98,112,1.17,No,quiteSure,cr,4.369218111038208,NA
29,#6o1h4m,False,14,1,equal,ST2_low_2_a2,P = T1?,Same,2,2,low,132,0.87,82,1.49,82,1.56,No,sure,cr,2.126520872116089,NA
30,#6o1h4m,False,15,1,equal,ST1_high_1_a1,P = T2?,Same,1,1,high,82,1.3,112,1.18,82,1.36,No,sure,cr,1.6307060718536377,NA
31,#6o1h4m,False,16,1,equal,STb_2_a1,P = T2?,Same,0,1,None,70,1.51,70,1.45,70,1.82,Yes,sure,hit,1.5247437953948975,NA
32,#6o1h4m,False,17,1,equal,ST1_low_5_a2,P = T2?,Same,1,2,low,96,1.06,154,0.8,96,1.35,No,sure,cr,1.425119161605835,NA
33,#6o1h4m,False,18,1,equal,ST2_high_1_a2,P = T2?,Same,2,2,high,82,1.34,112,1.16,112,1.14,Yes,sure,hit,1.0164258480072021,NA
34,#6o1h4m,False,19,1,equal,ST1_low_3_a2,P = T2?,Same,1,2,low,70,1.73,112,1.16,70,1.48,No,sure,cr,3.0940449237823486,NA
35,#6o1h4m,False,20,1,equal,ST1_low_2_a2,P = T2?,Same,1,2,low,132,0.97,82,1.39,132,0.85,No,sure,cr,3.911201000213623,NA
36,#6o1h4m,False,21,1,equal,DT2_high_5_a1,P = T2?,Different,2,1,high,96,1.24,132,0.92,154,0.84,No,unsure,miss,3.511277198791504,NA
37,#6o1h4m,False,22,1,equal,DT1_low_2_a1,P = T2?,Different,1,1,low,132,1.06,82,1.5,154,0.96,No,quiteSure,cr,2.533082962036133,NA
38,#6o1h4m,False,23,1,equal,ST2_low_4_a1,P = T1?,Same,2,1,low,112,0.96,70,1.64,70,1.48,No,sure,cr,1.6865580081939697,NA
39,#6o1h4m,False,24,1,equal,ST2_low_1_a2,P = T1?,Same,2,2,low,82,1.32,132,0.81,132,0.86,No,sure,cr,1.9191620349884033,NA
40,#6o1h4m,False,25,1,equal,ST2_low_4_a1,P = T2?,Same,2,1,low,112,1.09,70,1.65,70,1.52,Yes,sure,hit,1.3091561794281006,NA
41,#6o1h4m,False,26,1,equal,ST1_high_6_a2,P = T1?,Same,1,2,high,132,1.0,96,1.37,132,1.0,No,quiteSure,miss,2.95857834815979,NA
42,#6o1h4m,False,27,1,equal,ST2_high_6_a1,P = T1?,Same,2,1,high,132,0.82,96,1.13,96,1.37,No,sure,cr,1.3144869804382324,NA
43,#6o1h4m,False,28,1,equal,STb_5_a1,P = T1?,Same,0,1,None,112,1.06,112,1.04,112,1.16,Yes,sure,hit,1.7774348258972168,NA
44,#6o1h4m,False,29,1,equal,ST2_high_4_a2,P = T2?,Same,2,2,high,96,1.16,70,1.41,70,1.4,Yes,sure,hit,1.3238070011138916,NA
45,#6o1h4m,False,30,1,equal,ST2_low_5_a1,P = T2?,Same,2,1,low,96,1.24,154,0.9,154,0.9,Yes,sure,hit,1.3584628105163574,NA
46,#6o1h4m,False,31,1,equal,ST1_low_4_a1,P = T1?,Same,1,1,low,112,0.98,70,1.84,112,1.01,Yes,sure,hit,1.2071449756622314,NA
47,#6o1h4m,False,32,1,equal,ST1_high_4_a2,P = T2?,Same,1,2,high,96,1.38,70,1.75,96,1.4,No,sure,cr,3.5927622318267822,NA
48,#6o1h4m,False,33,1,equal,ST2_high_3_a2,P = T2?,Same,2,2,high,70,1.8,96,1.26,96,1.4,Yes,sure,hit,1.0318610668182373,NA
49,#6o1h4m,False,34,1,equal,ST2_low_2_a2,P = T2?,Same,2,2,low,132,1.05,82,1.48,82,1.41,Yes,sure,hit,2.015180826187134,NA
50,#6o1h4m,False,35,1,equal,ST1_high_1_a2,P = T1?,Same,1,2,high,82,1.43,112,1.17,82,1.51,Yes,sure,hit,1.5765252113342285,NA
51,#6o1h4m,False,36,1,equal,ST1_high_4_a1,P = T1?,Same,1,1,high,96,1.4,70,1.59,96,1.35,Yes,sure,hit,1.7339770793914795,NA
52,#6o1h4m,False,37,1,equal,ST2_low_6_a2,P = T1?,Same,2,2,low,154,0.74,96,1.18,96,1.41,No,sure,cr,1.1892578601837158,NA
53,#6o1h4m,False,38,1,equal,ST2_high_2_a2,P = T2?,Same,2,2,high,112,1.11,82,1.22,82,1.49,Yes,sure,hit,1.6966230869293213,NA
54,#6o1h4m,False,39,1,equal,ST1_low_5_a1,P = T2?,Same,1,1,low,96,1.17,154,0.8,96,1.37,No,sure,cr,1.5469377040863037,NA
55,#6o1h4m,False,40,1,equal,ST1_high_5_a2,P = T1?,Same,1,2,high,96,1.25,132,1.01,96,1.07,Yes,sure,hit,1.5242078304290771,NA
56,#6o1h4m,False,41,1,equal,ST2_high_2_a2,P = T1?,Same,2,2,high,112,1.08,82,1.47,82,1.35,No,sure,cr,1.2972369194030762,NA
57,#6o1h4m,False,42,1,equal,ST1_high_1_a2,P = T2?,Same,1,2,high,82,1.31,112,0.96,82,1.35,No,sure,cr,1.336751937866211,NA
58,#6o1h4m,False,43,1,equal,ST2_high_5_a2,P = T2?,Same,2,2,high,96,1.2,132,0.87,132,0.93,Yes,sure,hit,1.0483150482177734,NA
59,#6o1h4m,False,44,1,equal,ST2_high_5_a1,P = T2?,Same,2,1,high,96,1.36,132,1.05,132,0.95,Yes,sure,hit,1.071549892425537,NA
60,#6o1h4m,False,45,1,equal,ST2_high_1_a2,P = T1?,Same,2,2,high,82,1.26,112,1.06,112,1.12,No,sure,cr,1.2762858867645264,NA
61,#6o1h4m,False,46,1,equal,ST2_low_5_a2,P = T1?,Same,2,2,low,96,1.36,154,0.74,154,0.91,No,sure,cr,1.2108521461486816,NA
62,#6o1h4m,False,47,1,equal,ST1_low_3_a1,P = T2?,Same,1,1,low,70,1.57,112,1.07,70,1.76,No,quiteSure,cr,3.638648748397827,NA
63,#6o1h4m,False,48,1,equal,ST1_low_1_a2,P = T2?,Same,1,2,low,82,1.48,132,0.86,82,1.43,No,sure,cr,1.4287700653076172,NA
64,#6o1h4m,False,49,1,equal,ST1_low_5_a1,P = T2?,Same,1,1,low,96,1.35,154,0.77,96,1.36,No,sure,cr,3.7758657932281494,NA
65,#6o1h4m,False,50,1,equal,ST1_low_1_a2,P = T1?,Same,1,2,low,82,1.6,132,0.82,82,1.51,Yes,sure,hit,1.6571300029754639,NA
66,#6o1h4m,False,51,1,equal,ST1_low_5_a1,P = T1?,Same,1,1,low,96,1.2,154,0.95,96,1.32,Yes,sure,hit,1.207383155822754,NA
67,#6o1h4m,False,52,1,equal,ST1_high_4_a1,P = T2?,Same,1,1,high,96,1.39,70,1.48,96,1.15,No,unsure,cr,11.43471097946167,NA
68,#6o1h4m,False,53,1,equal,ST1_low_2_a1,P = T1?,Same,1,1,low,132,0.88,82,1.43,132,0.83,Yes,sure,hit,1.131788969039917,NA
69,#6o1h4m,False,54,1,equal,ST2_low_4_a1,P = T1?,Same,2,1,low,112,1.03,70,1.52,70,1.62,No,sure,cr,1.298172950744629,NA
70,#6o1h4m,False,55,1,equal,STb_4_a2,P = T1?,Same,0,2,None,96,1.12,96,1.18,96,1.06,Yes,sure,hit,1.27292799949646,NA
71,#6o1h4m,False,56,1,equal,ST1_high_3_a1,P = T1?,Same,1,1,high,70,1.64,96,1.2,70,1.57,Yes,sure,hit,1.1128530502319336,NA
72,#6o1h4m,False,57,1,equal,ST2_low_3_a1,P = T1?,Same,2,1,low,70,1.39,112,0.97,112,1.18,No,sure,cr,1.3570499420166016,NA
73,#6o1h4m,False,58,1,equal,ST2_low_5_a2,P = T1?,Same,2,2,low,96,1.25,154,0.89,154,0.81,No,sure,cr,1.242136001586914,NA
74,#6o1h4m,False,59,1,equal,ST1_low_2_a1,P = T2?,Same,1,1,low,132,0.99,82,1.39,132,0.87,No,sure,cr,1.2404663562774658,NA
75,#6o1h4m,False,60,1,equal,DT1_low_5_a2,P = T2?,Different,1,2,low,96,1.36,154,0.91,82,1.51,No,sure,cr,1.479367971420288,NA
76,#6o1h4m,False,61,1,equal,ST1_low_4_a2,P = T2?,Same,1,2,low,112,1.04,70,1.69,112,1.08,No,sure,cr,1.9595510959625244,NA
77,#6o1h4m,False,62,1,equal,ST1_low_1_a1,P = T1?,Same,1,1,low,82,1.47,132,1.05,82,1.49,Yes,quiteSure,hit,4.700973987579346,NA
78,#6o1h4m,False,63,1,equal,ST1_low_4_a1,P = T2?,Same,1,1,low,112,1.04,70,1.68,112,1.12,No,sure,cr,1.7147116661071777,NA
79,#6o1h4m,False,64,1,equal,ST1_high_3_a2,P = T2?,Same,1,2,high,70,1.37,96,1.1,70,1.71,No,sure,cr,1.378493070602417,NA
80,#6o1h4m,False,65,1,equal,ST1_low_3_a2,P = T1?,Same,1,2,low,70,1.47,112,1.23,70,1.8,Yes,sure,hit,1.405195951461792,NA
81,#6o1h4m,False,66,1,equal,ST1_high_4_a1,P = T2?,Same,1,1,high,96,1.32,70,1.68,96,1.39,No,sure,cr,4.000913858413696,NA
82,#6o1h4m,False,67,1,equal,ST1_low_6_a1,P = T2?,Same,1,1,low,154,0.71,96,1.09,154,0.85,No,quiteSure,cr,3.08004093170166,NA
83,#6o1h4m,False,68,1,equal,ST2_high_3_a1,P = T1?,Same,2,1,high,70,1.54,96,1.37,96,1.11,No,quiteSure,cr,2.645988941192627,NA
84,#6o1h4m,False,69,1,equal,ST2_high_4_a1,P = T1?,Same,2,1,high,96,1.06,70,1.57,70,1.81,No,sure,cr,1.6774649620056152,NA
85,#6o1h4m,False,70,1,equal,ST2_low_5_a1,P = T2?,Same,2,1,low,96,1.22,154,0.82,154,0.76,Yes,quiteSure,hit,1.400413990020752,NA
86,#6o1h4m,False,71,1,equal,ST1_low_4_a1,P = T1?,Same,1,1,low,112,1.25,70,1.45,112,1.1,Yes,sure,hit,1.2900137901306152,NA
87,#6o1h4m,False,72,1,equal,ST2_high_5_a1,P = T1?,Same,2,1,high,96,1.32,132,0.9,132,0.97,No,sure,cr,1.3707292079925537,NA
88,#6o1h4m,False,73,1,equal,ST1_high_2_a1,P = T1?,Same,1,1,high,112,0.94,82,1.46,112,0.98,Yes,quiteSure,hit,2.7745070457458496,NA
89,#6o1h4m,False,74,1,equal,ST2_low_4_a1,P = T1?,Same,2,1,low,112,1.09,70,1.81,70,1.6,No,sure,cr,1.2631521224975586,NA
90,#6o1h4m,False,75,1,equal,ST2_low_1_a1,P = T1?,Same,2,1,low,82,1.47,132,0.81,132,0.91,No,sure,cr,1.372251033782959,NA
91,#6o1h4m,False,76,1,equal,ST1_low_3_a1,P = T2?,Same,1,1,low,70,1.53,112,1.03,70,1.42,No,sure,cr,1.4707839488983154,NA
92,#6o1h4m,False,77,1,equal,ST1_low_2_a1,P = T1?,Same,1,1,low,132,0.93,82,1.47,132,0.94,Yes,sure,hit,1.6601688861846924,NA
93,#6o1h4m,False,78,1,equal,ST1_low_1_a1,P = T2?,Same,1,1,low,82,1.63,132,0.93,82,1.48,No,sure,cr,2.25787091255188,NA
94,#6o1h4m,False,79,1,equal,ST1_high_1_a2,P = T2?,Same,1,2,high,82,1.45,112,0.95,82,1.34,No,sure,cr,1.5367040634155273,NA
95,#6o1h4m,False,80,1,equal,ST1_low_3_a1,P = T1?,Same,1,1,low,70,1.54,112,1.22,70,1.84,Yes,sure,hit,3.1278860569000244,NA
96,#6o1h4m,False,81,1,equal,DT1_high_3_a1,P = T1?,Different,1,1,high,70,1.5,96,1.06,60,1.64,No,quiteSure,miss,2.1386396884918213,NA
97,#6o1h4m,False,82,1,equal,ST2_low_6_a1,P = T2?,Same,2,1,low,154,0.89,96,1.35,96,1.37,Yes,sure,hit,1.057201862335205,NA
98,#6o1h4m,False,83,1,equal,ST2_high_1_a1,P = T2?,Same,2,1,high,82,1.45,112,1.0,112,1.12,Yes,sure,hit,0.987238883972168,NA
99,#6o1h4m,False,84,1,equal,ST2_high_5_a2,P = T1?,Same,2,2,high,96,1.38,132,0.86,132,1.02,No,sure,cr,1.3267462253570557,NA
100,#6o1h4m,False,85,1,equal,ST2_high_1_a1,P = T1?,Same,2,1,high,82,1.38,112,1.23,112,0.94,No,sure,cr,1.0859458446502686,NA
101,#6o1h4m,False,86,1,equal,DT2_high_3_a1,P = T1?,Different,2,1,high,70,1.39,96,1.26,112,1.14,No,quiteSure,cr,2.5320310592651367,NA
102,#6o1h4m,False,87,1,equal,ST2_high_6_a1,P = T2?,Same,2,1,high,132,0.91,96,1.14,96,1.13,Yes,sure,hit,1.0478100776672363,NA
103,#6o1h4m,False,88,1,equal,STb_2_a1,P = T1?,Same,0,1,None,70,1.79,70,1.65,70,1.62,Yes,sure,hit,1.1082408428192139,NA
104,#6o1h4m,False,89,1,equal,ST2_high_4_a2,P = T1?,Same,2,2,high,96,1.34,70,1.8,70,1.39,No,sure,cr,2.360456943511963,NA
105,#6o1h4m,False,90,1,equal,ST2_high_2_a1,P = T2?,Same,2,1,high,112,1.21,82,1.48,82,1.6,Yes,sure,hit,1.2761590480804443,NA
106,#6o1h4m,False,91,1,equal,ST1_high_4_a2,P = T1?,Same,1,2,high,96,1.06,70,1.39,96,1.34,Yes,sure,hit,1.5474238395690918,NA
107,#6o1h4m,False,92,1,equal,ST1_low_2_a2,P = T1?,Same,1,2,low,132,0.82,82,1.38,132,0.92,Yes,sure,hit,1.681462049484253,NA
108,#6o1h4m,False,93,1,equal,ST1_low_3_a2,P = T2?,Same,1,2,low,70,1.77,112,1.07,70,1.48,No,sure,cr,4.92475700378418,NA
109,#6o1h4m,False,94,1,equal,ST2_high_2_a1,P = T2?,Same,2,1,high,112,1.23,82,1.47,82,1.23,Yes,sure,hit,1.3006129264831543,NA
110,#6o1h4m,False,95,1,equal,ST1_low_3_a1,P = T1?,Same,1,1,low,70,1.44,112,1.14,70,1.38,Yes,sure,hit,1.2540509700775146,NA
111,#6o1h4m,False,96,1,equal,ST2_low_5_a2,P = T2?,Same,2,2,low,96,1.18,154,0.82,154,0.71,Yes,sure,hit,1.0934159755706787,NA
112,#6o1h4m,False,97,1,equal,ST1_high_5_a1,P = T1?,Same,1,1,high,96,1.36,132,0.8,96,1.4,Yes,sure,hit,1.2251520156860352,NA
113,#6o1h4m,False,98,1,equal,ST2_low_4_a2,P = T2?,Same,2,2,low,112,1.16,70,1.53,70,1.9,Yes,sure,hit,1.0268480777740479,NA
114,#6o1h4m,False,99,1,equal,ST2_high_1_a1,P = T1?,Same,2,1,high,82,1.25,112,1.11,112,1.18,No,quiteSure,cr,2.3974251747131348,NA
115,#6o1h4m,False,100,1,equal,ST1_low_5_a1,P = T1?,Same,1,1,low,96,1.22,154,0.78,96,1.28,Yes,sure,hit,1.1623620986938477,NA
116,#6o1h4m,False,101,1,equal,ST2_high_6_a2,P = T1?,Same,2,2,high,132,0.8,96,1.1,96,1.28,No,sure,cr,1.1251850128173828,NA
117,#6o1h4m,False,102,1,equal,ST2_low_1_a2,P = T1?,Same,2,2,low,82,1.22,132,0.8,132,1.06,No,sure,cr,0.9954390525817871,NA
118,#6o1h4m,False,103,1,equal,ST2_low_3_a2,P = T1?,Same,2,2,low,70,1.54,112,1.05,112,1.14,No,quiteSure,cr,2.112907886505127,NA
119,#6o1h4m,False,104,1,equal,ST2_low_4_a2,P = T1?,Same,2,2,low,112,0.94,70,1.51,70,1.82,No,sure,cr,1.296678066253662,NA
120,#6o1h4m,False,105,1,equal,ST1_low_1_a2,P = T2?,Same,1,2,low,82,1.5,132,1.0,82,1.59,No,sure,cr,3.719642162322998,NA
121,#6o1h4m,False,106,1,equal,ST2_low_5_a1,P = T1?,Same,2,1,low,96,1.39,154,0.87,154,0.79,No,sure,cr,1.4617300033569336,NA
122,#6o1h4m,False,107,1,equal,ST2_high_5_a2,P = T1?,Same,2,2,high,96,1.34,132,0.94,132,0.88,No,sure,cr,5.255048990249634,NA
123,#6o1h4m,False,108,1,equal,ST1_high_5_a1,P = T1?,Same,1,1,high,96,1.3,132,0.9,96,1.23,Yes,quiteSure,hit,2.0830299854278564,NA
124,#6o1h4m,False,109,1,equal,STb_3_a1,P = T2?,Same,0,1,None,82,1.51,82,1.56,82,1.61,Yes,sure,hit,1.577625036239624,NA
125,#6o1h4m,False,110,1,equal,ST1_high_1_a2,P = T1?,Same,1,2,high,82,1.58,112,1.16,82,1.58,Yes,sure,hit,4.361285924911499,NA
126,#6o1h4m,False,111,1,equal,ST2_high_5_a1,P = T2?,Same,2,1,high,96,1.19,132,0.82,132,0.99,Yes,sure,hit,0.9708991050720215,NA
127,#6o1h4m,False,112,1,equal,ST1_low_5_a2,P = T1?,Same,1,2,low,96,1.32,154,0.75,96,1.31,Yes,sure,hit,1.179744005203247,NA
128,#6o1h4m,False,113,1,equal,ST2_low_3_a1,P = T2?,Same,2,1,low,70,1.51,112,1.01,112,1.06,Yes,sure,hit,2.226269006729126,NA
129,#6o1h4m,False,114,1,equal,ST2_low_2_a1,P = T1?,Same,2,1,low,132,0.81,82,1.47,82,1.59,No,sure,cr,1.1772608757019043,NA
130,#6o1h4m,False,115,1,equal,ST2_low_2_a1,P = T1?,Same,2,1,low,132,1.03,82,1.51,82,1.34,No,unsure,cr,2.3198180198669434,NA
131,#6o1h4m,False,116,1,equal,ST1_high_1_a1,P = T1?,Same,1,1,high,82,1.49,112,1.05,82,1.23,Yes,sure,hit,1.3257989883422852,NA
132,#6o1h4m,False,117,1,equal,ST1_low_5_a1,P = T1?,Same,1,1,low,96,1.07,154,0.85,96,1.27,Yes,quiteSure,hit,2.1843440532684326,NA
133,#6o1h4m,False,118,1,equal,ST1_high_3_a1,P = T2?,Same,1,1,high,70,1.46,96,1.12,70,1.75,No,sure,cr,1.542449951171875,NA
134,#6o1h4m,False,119,1,equal,ST2_low_1_a2,P = T1?,Same,2,2,low,82,1.22,132,0.85,132,0.81,No,sure,cr,1.4275078773498535,NA
135,#6o1h4m,False,120,1,equal,ST2_high_6_a2,P = T2?,Same,2,2,high,132,0.86,96,1.4,96,1.36,Yes,quiteSure,hit,1.9428982734680176,NA
136,#6o1h4m,False,121,1,equal,ST2_low_3_a1,P = T2?,Same,2,1,low,70,1.84,112,1.19,112,0.94,Yes,sure,hit,1.2397050857543945,NA
137,#6o1h4m,False,122,1,equal,ST2_high_3_a2,P = T1?,Same,2,2,high,70,1.49,96,1.12,96,1.25,No,sure,cr,1.2093608379364014,NA
138,#6o1h4m,False,123,1,equal,ST1_high_6_a1,P = T2?,Same,1,1,high,132,0.98,96,1.1,132,0.94,No,sure,cr,1.3126270771026611,NA
139,#6o1h4m,False,124,1,equal,ST1_low_3_a1,P = T1?,Same,1,1,low,70,1.7,112,1.09,70,1.74,Yes,sure,hit,1.7459278106689453,NA
140,#6o1h4m,False,125,1,equal,ST2_low_2_a1,P = T2?,Same,2,1,low,132,0.9,82,1.26,82,1.54,Yes,sure,hit,2.686379909515381,NA
141,#6o1h4m,False,126,1,equal,STb_5_a1,P = T2?,Same,0,1,None,112,0.98,112,1.06,112,1.01,Yes,sure,hit,1.4423890113830566,NA
142,#6o1h4m,False,127,1,equal,ST2_high_6_a1,P = T1?,Same,2,1,high,132,0.97,96,1.38,96,1.29,No,sure,cr,2.9464588165283203,NA
143,#6o1h4m,False,128,1,equal,ST1_low_6_a1,P = T2?,Same,1,1,low,154,0.83,96,1.33,154,0.8,No,sure,cr,1.5312607288360596,NA
144,#6o1h4m,False,129,1,equal,ST2_high_5_a1,P = T1?,Same,2,1,high,96,1.08,132,0.86,132,0.93,No,sure,cr,1.222242832183838,NA
145,#6o1h4m,False,130,1,equal,ST2_low_1_a1,P = T1?,Same,2,1,low,82,1.47,132,1.03,132,1.02,No,sure,cr,1.7976608276367188,NA
146,#6o1h4m,False,131,1,equal,ST1_low_6_a2,P = T2?,Same,1,2,low,154,0.93,96,1.17,154,0.94,No,sure,cr,2.9225051403045654,NA
147,#6o1h4m,False,132,1,equal,ST2_high_3_a1,P = T1?,Same,2,1,high,70,1.62,96,1.06,96,1.13,No,sure,cr,1.6151480674743652,NA
148,#6o1h4m,False,133,1,equal,ST2_low_3_a2,P = T2?,Same,2,2,low,70,1.41,112,1.07,112,0.98,Yes,sure,hit,1.6743600368499756,NA
149,#6o1h4m,False,134,1,equal,ST1_low_1_a2,P = T1?,Same,1,2,low,82,1.59,132,0.81,82,1.39,Yes,sure,hit,2.3412060737609863,NA
150,#6o1h4m,False,135,1,equal,ST1_low_5_a2,P = T2?,Same,1,2,low,96,1.34,154,0.94,96,1.41,No,sure,cr,3.5474321842193604,NA
151,#6o1h4m,False,136,1,equal,ST1_low_4_a2,P = T1?,Same,1,2,low,112,0.94,70,1.77,112,1.08,Yes,sure,hit,1.6938891410827637,NA
152,#6o1h4m,False,137,1,equal,ST2_low_4_a2,P = T2?,Same,2,2,low,112,1.03,70,1.57,70,1.82,Yes,sure,hit,1.4969091415405273,NA
153,#6o1h4m,False,138,1,equal,ST1_low_4_a1,P = T1?,Same,1,1,low,112,1.11,70,1.73,112,1.14,Yes,sure,hit,1.0440669059753418,NA
154,#6o1h4m,False,139,1,equal,ST1_high_3_a1,P = T2?,Same,1,1,high,70,1.57,96,1.07,70,1.44,No,sure,cr,1.4658098220825195,NA
155,#6o1h4m,False,140,1,equal,DT2_low_1_a2,P = T2?,Different,2,2,low,82,1.56,132,1.03,154,0.72,No,quiteSure,miss,5.018953084945679,NA
156,#6o1h4m,False,141,1,equal,ST2_low_4_a2,P = T1?,Same,2,2,low,112,0.97,70,1.69,70,1.79,No,sure,cr,1.4443187713623047,NA
157,#6o1h4m,False,142,1,equal,ST2_high_6_a2,P = T1?,Same,2,2,high,132,0.96,96,1.15,96,1.38,No,sure,cr,1.3530480861663818,NA
158,#6o1h4m,False,143,1,equal,STb_8_a1,P = T1?,Same,0,1,None,180,0.74,180,0.75,180,0.81,Yes,sure,hit,1.492455005645752,NA
159,#6o1h4m,False,144,1,equal,ST2_low_6_a2,P = T2?,Same,2,2,low,154,0.76,96,1.33,96,1.22,Yes,sure,hit,1.7468631267547607,NA
160,#6o1h4m,False,145,1,equal,ST2_high_3_a1,P = T1?,Same,2,1,high,70,1.62,96,1.12,96,1.08,No,quiteSure,cr,2.0109469890594482,NA
161,#6o1h4m,False,146,1,equal,ST1_low_6_a2,P = T1?,Same,1,2,low,154,0.89,96,1.19,154,0.76,Yes,sure,hit,1.5081007480621338,NA
162,#6o1h4m,False,147,1,equal,ST2_low_2_a1,P = T1?,Same,2,1,low,132,0.85,82,1.35,82,1.39,No,sure,cr,1.760364055633545,NA
163,#6o1h4m,False,148,1,equal,ST1_high_3_a1,P = T2?,Same,1,1,high,70,1.85,96,1.29,70,1.82,No,sure,cr,1.5516400337219238,NA
164,#6o1h4m,False,149,1,equal,ST2_high_6_a1,P = T1?,Same,2,1,high,132,0.84,96,1.06,96,1.36,No,sure,cr,1.5159008502960205,NA
165,#6o1h4m,False,150,1,equal,ST1_high_6_a2,P = T2?,Same,1,2,high,132,0.9,96,1.06,132,0.92,No,quiteSure,cr,6.666724920272827,NA
166,#6o1h4m,False,151,1,equal,ST1_low_1_a1,P = T1?,Same,1,1,low,82,1.27,132,0.81,82,1.24,Yes,sure,hit,1.4219818115234375,NA
167,#6o1h4m,False,152,1,equal,ST2_high_4_a2,P = T2?,Same,2,2,high,96,1.3,70,1.61,70,1.68,Yes,sure,hit,1.3700430393218994,NA
168,#6o1h4m,False,153,1,equal,ST2_high_4_a2,P = T1?,Same,2,2,high,96,1.34,70,1.44,70,1.65,No,quiteSure,cr,3.0736279487609863,NA
169,#6o1h4m,False,154,1,equal,ST2_low_5_a2,P = T2?,Same,2,2,low,96,1.4,154,0.95,154,0.72,Yes,sure,hit,0.9142961502075195,NA
170,#6o1h4m,False,155,1,equal,ST1_high_4_a1,P = T1?,Same,1,1,high,96,1.27,70,1.38,96,1.22,Yes,sure,hit,1.2342798709869385,NA
171,#6o1h4m,False,156,1,equal,ST2_low_1_a1,P = T2?,Same,2,1,low,82,1.25,132,0.88,132,0.86,Yes,quiteSure,hit,4.5030951499938965,NA
172,#6o1h4m,False,157,1,equal,ST1_high_2_a2,P = T1?,Same,1,2,high,112,1.11,82,1.44,112,0.84,Yes,sure,hit,1.0795409679412842,NA
173,#6o1h4m,False,158,1,equal,ST1_high_2_a2,P = T1?,Same,1,2,high,112,1.05,82,1.41,112,0.92,Yes,sure,hit,1.0419270992279053,NA
174,#6o1h4m,False,159,1,equal,STb_1_a2,P = T2?,Same,0,2,None,60,1.95,60,1.73,60,1.96,Yes,sure,hit,1.3577070236206055,NA
175,#6o1h4m,False,160,1,equal,ST2_low_6_a2,P = T1?,Same,2,2,low,154,0.81,96,1.07,96,1.19,No,sure,cr,2.911824941635132,NA
176,#6o1h4m,False,161,1,equal,ST2_low_6_a2,P = T2?,Same,2,2,low,154,0.8,96,1.13,96,1.1,Yes,sure,hit,3.0599160194396973,NA
177,#6o1h4m,False,162,1,equal,ST1_high_1_a1,P = T1?,Same,1,1,high,82,1.63,112,0.94,82,1.48,Yes,sure,hit,1.0437049865722656,NA
178,#6o1h4m,False,163,1,equal,ST1_high_2_a2,P = T2?,Same,1,2,high,112,1.05,82,1.63,112,1.23,No,sure,cr,1.2434499263763428,NA
179,#6o1h4m,False,164,1,equal,STb_3_a1,P = T1?,Same,0,1,None,82,1.39,82,1.59,82,1.39,Yes,sure,hit,0.902716875076294,NA
180,#6o1h4m,False,165,1,equal,ST2_high_5_a2,P = T2?,Same,2,2,high,96,1.22,132,1.03,132,0.97,Yes,sure,hit,1.2422547340393066,NA
181,#6o1h4m,False,166,1,equal,ST1_low_4_a1,P = T2?,Same,1,1,low,112,0.93,70,1.82,112,1.17,No,sure,cr,1.4136109352111816,NA
182,#6o1h4m,False,167,1,equal,STb_8_a1,P = T2?,Same,0,1,None,180,0.84,180,0.83,180,0.87,Yes,sure,hit,0.9839138984680176,NA
183,#6o1h4m,False,168,1,equal,DT1_low_3_a1,P = T1?,Different,1,1,low,70,1.78,112,1.08,60,1.63,No,quiteSure,miss,2.3014028072357178,NA
184,#6o1h4m,False,169,1,equal,ST1_low_1_a2,P = T2?,Same,1,2,low,82,1.28,132,0.87,82,1.56,No,sure,cr,1.3509130477905273,NA
185,#6o1h4m,False,170,1,equal,ST2_high_1_a2,P = T1?,Same,2,2,high,82,1.49,112,1.17,112,1.12,No,sure,cr,1.1721031665802002,NA
186,#6o1h4m,False,171,1,equal,ST2_low_6_a2,P = T2?,Same,2,2,low,154,0.9,96,1.33,96,1.25,Yes,sure,hit,1.1084649562835693,NA
187,#6o1h4m,False,172,1,equal,ST2_low_1_a2,P = T2?,Same,2,2,low,82,1.5,132,1.06,132,1.03,Yes,sure,hit,0.9215989112854004,NA
188,#6o1h4m,False,173,1,equal,ST1_high_5_a2,P = T1?,Same,1,2,high,96,1.12,132,0.83,96,1.26,Yes,sure,hit,0.924548864364624,NA
189,#6o1h4m,False,174,1,equal,ST2_high_3_a2,P = T2?,Same,2,2,high,70,1.51,96,1.39,96,1.29,Yes,sure,hit,0.9774467945098877,NA
190,#6o1h4m,False,175,1,equal,ST1_high_5_a1,P = T1?,Same,1,1,high,96,1.4,132,0.93,96,1.32,Yes,sure,hit,1.0148751735687256,NA
191,#6o1h4m,False,176,1,equal,ST2_high_3_a2,P = T2?,Same,2,2,high,70,1.65,96,1.28,96,1.24,Yes,sure,hit,1.0774967670440674,NA
192,#6o1h4m,False,177,1,equal,ST2_high_4_a1,P = T2?,Same,2,1,high,96,1.17,70,1.69,70,1.44,Yes,sure,hit,0.9062378406524658,NA
193,#6o1h4m,False,178,1,equal,ST1_high_6_a1,P = T2?,Same,1,1,high,132,0.84,96,1.23,132,0.79,No,sure,cr,1.2562580108642578,NA
194,#6o1h4m,False,179,1,equal,ST1_high_1_a2,P = T1?,Same,1,2,high,82,1.47,112,1.14,82,1.58,Yes,sure,hit,1.1311390399932861,NA
195,#6o1h4m,False,180,1,equal,ST2_high_4_a1,P = T2?,Same,2,1,high,96,1.3,70,1.78,70,1.77,Yes,quiteSure,hit,1.3769688606262207,NA
196,#6o1h4m,False,181,1,equal,ST2_low_3_a2,P = T1?,Same,2,2,low,70,1.62,112,0.96,112,0.99,No,sure,cr,1.8718698024749756,NA
197,#6o1h4m,False,182,1,equal,DT2_high_1_a1,P = T1?,Different,2,1,high,82,1.22,112,1.17,132,0.79,No,sure,cr,1.6694562435150146,NA
198,#6o1h4m,False,183,1,equal,ST2_low_6_a1,P = T2?,Same,2,1,low,154,0.82,96,1.28,96,1.14,Yes,sure,hit,0.9844558238983154,NA
199,#6o1h4m,False,184,1,equal,ST2_high_2_a1,P = T1?,Same,2,1,high,112,0.92,82,1.54,82,1.48,No,sure,cr,1.0385808944702148,NA
200,#6o1h4m,False,185,1,equal,ST1_high_2_a1,P = T1?,Same,1,1,high,112,1.07,82,1.59,112,1.11,Yes,sure,hit,1.4907560348510742,NA
201,#6o1h4m,False,186,1,equal,ST2_high_4_a2,P = T1?,Same,2,2,high,96,1.22,70,1.69,70,1.84,No,sure,cr,1.1240661144256592,NA
202,#6o1h4m,False,187,1,equal,ST1_high_6_a2,P = T1?,Same,1,2,high,132,0.99,96,1.09,132,0.92,Yes,sure,hit,1.3358361721038818,NA
203,#6o1h4m,False,188,1,equal,DT1_low_1_a1,P = T2?,Different,1,1,low,82,1.5,132,0.89,70,1.4,No,sure,cr,1.7243101596832275,NA
204,#6o1h4m,False,189,1,equal,ST1_high_2_a1,P = T2?,Same,1,1,high,112,1.23,82,1.4,112,1.06,No,sure,cr,1.2276620864868164,NA
205,#6o1h4m,False,190,1,equal,ST2_low_5_a1,P = T2?,Same,2,1,low,96,1.27,154,0.86,154,0.89,Yes,sure,hit,1.4098901748657227,NA
206,#6o1h4m,False,191,1,equal,ST2_high_3_a1,P = T2?,Same,2,1,high,70,1.58,96,1.08,96,1.08,Yes,sure,hit,0.9513001441955566,NA
207,#6o1h4m,False,192,1,equal,ST2_low_3_a1,P = T1?,Same,2,1,low,70,1.52,112,0.92,112,1.13,No,sure,cr,1.0515849590301514,NA
208,#6o1h4m,False,193,1,equal,ST2_high_6_a1,P = T2?,Same,2,1,high,132,0.98,96,1.2,96,1.4,Yes,sure,hit,1.7306969165802002,NA
209,#6o1h4m,False,194,1,equal,ST2_high_6_a2,P = T2?,Same,2,2,high,132,0.89,96,1.1,96,1.18,Yes,sure,hit,1.091184139251709,NA
210,#6o1h4m,False,195,1,equal,ST2_high_2_a2,P = T1?,Same,2,2,high,112,1.04,82,1.49,82,1.52,Yes,unsure,fa,7.864289999008179,NA
211,#6o1h4m,False,196,1,equal,ST1_high_4_a1,P = T2?,Same,1,1,high,96,1.4,70,1.52,96,1.11,No,sure,cr,1.543172836303711,NA
212,#6o1h4m,False,197,1,equal,ST2_high_4_a1,P = T1?,Same,2,1,high,96,1.34,70,1.44,70,1.52,No,sure,cr,1.8354921340942383,NA
213,#6o1h4m,False,198,1,equal,ST1_high_4_a2,P = T2?,Same,1,2,high,96,1.28,70,1.67,96,1.28,No,sure,cr,2.125380039215088,NA
214,#6o1h4m,False,199,1,equal,ST2_high_1_a2,P = T2?,Same,2,2,high,82,1.64,112,1.14,112,0.94,Yes,sure,hit,1.0685691833496094,NA
215,#6o1h4m,False,200,1,equal,ST2_high_3_a2,P = T1?,Same,2,2,high,70,1.52,96,1.27,96,1.11,No,sure,cr,1.1729662418365479,NA
216,#6o1h4m,False,201,1,equal,ST1_high_6_a2,P = T2?,Same,1,2,high,132,0.96,96,1.22,132,0.94,No,sure,cr,1.0351970195770264,NA
217,#6o1h4m,False,202,1,equal,ST2_high_5_a2,P = T2?,Same,2,2,high,96,1.35,132,0.79,132,0.81,Yes,sure,hit,1.1700310707092285,NA
218,#6o1h4m,False,203,1,equal,ST1_high_6_a2,P = T1?,Same,1,2,high,132,0.79,96,1.26,132,0.95,Yes,sure,hit,1.064728021621704,NA
219,#6o1h4m,False,204,1,equal,ST2_low_1_a2,P = T2?,Same,2,2,low,82,1.38,132,1.05,132,0.96,Yes,sure,hit,1.0324280261993408,NA
220,#6o1h4m,False,205,1,equal,ST1_high_3_a1,P = T1?,Same,1,1,high,70,1.57,96,1.08,70,1.55,Yes,sure,hit,1.4953639507293701,NA
221,#6o1h4m,False,206,1,equal,ST1_low_6_a2,P = T2?,Same,1,2,low,154,0.85,96,1.38,154,0.83,No,sure,cr,1.2050588130950928,NA
222,#6o1h4m,False,207,1,equal,ST2_high_1_a1,P = T2?,Same,2,1,high,82,1.42,112,0.97,112,0.93,Yes,sure,hit,1.1276159286499023,NA
223,#6o1h4m,False,208,1,equal,ST1_high_4_a2,P = T2?,Same,1,2,high,96,1.24,70,1.63,96,1.12,No,sure,cr,1.179175853729248,NA
224,#6o1h4m,False,209,1,equal,ST2_low_4_a1,P = T2?,Same,2,1,low,112,1.03,70,1.39,70,1.61,Yes,sure,hit,1.0309062004089355,NA
225,#6o1h4m,False,210,1,equal,ST1_high_5_a2,P = T2?,Same,1,2,high,96,1.2,132,0.89,96,1.32,No,sure,cr,1.1409971714019775,NA
226,#6o1h4m,False,211,1,equal,ST2_low_6_a1,P = T1?,Same,2,1,low,154,0.82,96,1.37,96,1.19,No,sure,cr,1.4290378093719482,NA
227,#6o1h4m,False,212,1,equal,ST1_high_2_a1,P = T2?,Same,1,1,high,112,1.19,82,1.26,112,1.04,No,sure,cr,1.2445547580718994,NA
228,#6o1h4m,False,213,1,equal,ST1_high_4_a2,P = T1?,Same,1,2,high,96,1.41,70,1.45,96,1.29,Yes,sure,hit,1.2626368999481201,NA
229,#6o1h4m,False,214,1,equal,ST2_high_6_a2,P = T1?,Same,2,2,high,132,0.96,96,1.37,96,1.34,No,sure,cr,1.1180601119995117,NA
230,#6o1h4m,False,215,1,equal,ST1_low_2_a2,P = T2?,Same,1,2,low,132,0.91,82,1.52,132,0.83,No,sure,cr,1.1075997352600098,NA
231,#6o1h4m,False,216,1,equal,ST1_high_6_a2,P = T2?,Same,1,2,high,132,0.97,96,1.07,132,0.87,No,sure,cr,1.9712562561035156,NA
232,#6o1h4m,False,217,1,equal,ST1_low_6_a1,P = T2?,Same,1,1,low,154,0.84,96,1.38,154,0.87,No,sure,cr,2.188652753829956,NA
233,#6o1h4m,False,218,1,equal,ST1_low_3_a2,P = T2?,Same,1,2,low,70,1.81,112,1.23,70,1.68,No,sure,cr,3.7910468578338623,NA
234,#6o1h4m,False,219,1,equal,ST2_low_6_a2,P = T1?,Same,2,2,low,154,0.84,96,1.62,96,1.19,No,sure,cr,1.3719851970672607,NA
235,#6o1h4m,False,220,1,equal,ST2_high_2_a2,P = T1?,Same,2,2,high,112,0.99,82,1.63,82,1.56,No,sure,cr,1.2681400775909424,NA
236,#6o1h4m,False,221,1,equal,ST2_low_4_a1,P = T2?,Same,2,1,low,112,0.93,70,1.48,70,1.64,Yes,sure,hit,1.1265969276428223,NA
237,#6o1h4m,False,222,1,equal,ST1_high_4_a1,P = T1?,Same,1,1,high,96,1.17,70,1.49,96,1.35,Yes,quiteSure,hit,1.041679859161377,NA
238,#6o1h4m,False,223,1,equal,ST1_low_5_a2,P = T1?,Same,1,2,low,96,1.14,154,0.89,96,1.38,Yes,quiteSure,hit,1.2262153625488281,NA
239,#6o1h4m,False,224,1,equal,ST1_low_1_a2,P = T1?,Same,1,2,low,82,1.48,132,0.99,82,1.23,Yes,sure,hit,1.3582220077514648,NA
240,#6o1h4m,False,225,1,equal,ST2_high_2_a1,P = T2?,Same,2,1,high,112,1.15,82,1.61,82,1.61,Yes,sure,hit,0.9725167751312256,NA
241,#6o1h4m,False,226,1,equal,ST1_high_5_a2,P = T1?,Same,1,2,high,96,1.41,132,1.01,96,1.25,Yes,sure,hit,1.0027599334716797,NA
242,#6o1h4m,False,227,1,equal,ST2_low_3_a1,P = T1?,Same,2,1,low,70,1.69,112,1.2,112,0.96,No,sure,cr,1.183318853378296,NA
243,#6o1h4m,False,228,1,equal,ST2_low_2_a1,P = T2?,Same,2,1,low,132,1.02,82,1.27,82,1.55,Yes,sure,hit,1.0377731323242188,NA
244,#6o1h4m,False,229,1,equal,ST2_high_1_a2,P = T2?,Same,2,2,high,82,1.58,112,1.1,112,1.1,Yes,sure,hit,0.9939079284667969,NA
245,#6o1h4m,False,230,1,equal,ST1_high_5_a2,P = T2?,Same,1,2,high,96,1.42,132,0.88,96,1.29,No,sure,cr,0.998582124710083,NA
246,#6o1h4m,False,231,1,equal,ST1_low_2_a1,P = T1?,Same,1,1,low,132,0.87,82,1.23,132,0.98,Yes,sure,hit,1.9996869564056396,NA
247,#6o1h4m,False,232,1,equal,ST1_low_2_a1,P = T2?,Same,1,1,low,132,0.93,82,1.39,132,1.04,No,sure,cr,1.7667262554168701,NA
248,#6o1h4m,False,233,1,equal,ST2_high_4_a1,P = T1?,Same,2,1,high,96,0.92,70,1.43,70,1.78,No,sure,cr,1.1228830814361572,NA
249,#6o1h4m,False,234,1,equal,DT1_high_6_a1,P = T1?,Different,1,1,high,132,0.93,96,1.15,154,0.69,No,quiteSure,miss,2.920774221420288,NA
250,#6o1h4m,False,235,1,equal,ST1_high_2_a2,P = T1?,Same,1,2,high,112,1.01,82,1.49,112,0.93,Yes,sure,hit,1.8236780166625977,NA
251,#6o1h4m,False,236,1,equal,ST2_high_2_a2,P = T2?,Same,2,2,high,112,1.01,82,1.62,82,1.32,Yes,sure,hit,1.039113998413086,NA
252,#6o1h4m,False,237,1,equal,ST2_low_3_a1,P = T2?,Same,2,1,low,70,1.45,112,1.17,112,1.0,Yes,sure,hit,1.0298466682434082,NA
253,#6o1h4m,False,238,1,equal,STb_6_a2,P = T2?,Same,0,2,None,132,0.86,132,0.92,132,0.84,Yes,sure,hit,1.1739680767059326,NA
254,#6o1h4m,False,239,1,equal,ST2_high_2_a1,P = T1?,Same,2,1,high,112,1.04,82,1.3,82,1.44,No,quiteSure,cr,1.718501329421997,NA
255,#6o1h4m,False,240,1,equal,ST1_high_1_a2,P = T2?,Same,1,2,high,82,1.26,112,1.07,82,1.27,No,sure,cr,1.2633588314056396,NA
256,#6o1h4m,False,241,1,equal,ST1_high_2_a1,P = T2?,Same,1,1,high,112,1.11,82,1.51,112,1.13,No,sure,cr,1.2780497074127197,NA
257,#6o1h4m,False,242,1,equal,ST1_low_3_a1,P = T2?,Same,1,1,low,70,1.59,112,1.11,70,1.51,No,sure,cr,1.1828160285949707,NA
258,#6o1h4m,False,243,1,equal,STb_8_a2,P = T2?,Same,0,2,None,180,0.84,180,0.71,180,0.79,Yes,sure,hit,1.266855001449585,NA
259,#6o1h4m,False,244,1,equal,ST1_high_1_a1,P = T2?,Same,1,1,high,82,1.58,112,1.1,82,1.27,No,sure,cr,2.7218260765075684,NA
260,#6o1h4m,False,245,1,equal,ST1_low_1_a1,P = T2?,Same,1,1,low,82,1.52,132,0.88,82,1.39,No,sure,cr,1.334280252456665,NA
261,#6o1h4m,False,246,1,equal,ST2_low_6_a1,P = T1?,Same,2,1,low,154,0.91,96,1.33,96,1.08,No,sure,cr,1.0273799896240234,NA
262,#6o1h4m,False,247,1,equal,ST1_high_2_a2,P = T2?,Same,1,2,high,112,1.04,82,1.34,112,0.93,No,sure,cr,1.2900621891021729,NA
263,#6o1h4m,False,248,1,equal,ST1_low_2_a1,P = T2?,Same,1,1,low,132,0.85,82,1.5,132,0.9,No,sure,cr,3.491349935531616,NA
264,#6o1h4m,False,249,1,equal,ST2_high_1_a1,P = T2?,Same,2,1,high,82,1.5,112,1.01,112,1.0,Yes,sure,hit,1.1327898502349854,NA
265,#6o1h4m,False,250,1,equal,DT1_low_4_a2,P = T2?,Different,1,2,low,112,1.09,70,1.64,132,0.79,Yes,quiteSure,fa,1.0781559944152832,NA
266,#6o1h4m,False,251,1,equal,ST2_low_1_a1,P = T2?,Same,2,1,low,82,1.26,132,1.0,132,0.93,Yes,sure,hit,1.0268011093139648,NA
267,#6o1h4m,False,252,1,equal,ST1_low_4_a2,P = T1?,Same,1,2,low,112,1.03,70,1.51,112,0.96,Yes,sure,hit,1.0810179710388184,NA
268,#6o1h4m,False,253,1,equal,ST1_high_6_a1,P = T2?,Same,1,1,high,132,1.04,96,1.34,132,0.86,No,sure,cr,2.0297110080718994,NA
269,#6o1h4m,False,254,1,equal,DT2_low_5_a1,P = T1?,Different,2,1,low,96,1.3,154,0.74,180,0.85,No,sure,cr,1.6535048484802246,NA
270,#6o1h4m,False,255,1,equal,ST1_low_2_a2,P = T1?,Same,1,2,low,132,0.99,82,1.26,132,0.87,Yes,sure,hit,1.0362589359283447,NA
271,#6o1h4m,False,256,1,equal,ST1_low_3_a2,P = T1?,Same,1,2,low,70,1.65,112,1.24,70,1.37,Yes,quiteSure,hit,1.3345110416412354,NA
272,#6o1h4m,False,257,1,equal,ST1_high_1_a1,P = T1?,Same,1,1,high,82,1.43,112,1.08,82,1.63,Yes,sure,hit,2.3863320350646973,NA
273,#6o1h4m,False,258,1,equal,ST1_low_6_a2,P = T1?,Same,1,2,low,154,0.94,96,1.28,154,0.86,Yes,sure,hit,1.6663103103637695,NA
274,#6o1h4m,False,259,1,equal,ST2_low_3_a2,P = T2?,Same,2,2,low,70,1.73,112,0.94,112,0.97,Yes,sure,hit,2.228210210800171,NA
275,#6o1h4m,False,260,1,equal,ST1_high_5_a1,P = T2?,Same,1,1,high,96,1.07,132,0.93,96,1.08,No,sure,cr,1.8627448081970215,NA
276,#6o1h4m,False,261,1,equal,ST2_low_4_a2,P = T2?,Same,2,2,low,112,1.17,70,1.51,70,1.38,Yes,sure,hit,1.0065908432006836,NA
277,#6o1h4m,False,262,1,equal,ST1_low_2_a2,P = T2?,Same,1,2,low,132,0.84,82,1.37,132,1.04,No,sure,cr,1.2170917987823486,NA
278,#6o1h4m,False,263,1,equal,ST2_low_1_a1,P = T2?,Same,2,1,low,82,1.57,132,0.88,132,0.99,Yes,sure,hit,0.9567751884460449,NA
279,#6o1h4m,False,264,1,equal,ST1_high_3_a2,P = T1?,Same,1,2,high,70,1.63,96,1.18,70,1.81,Yes,sure,hit,1.119042158126831,NA
280,#6o1h4m,False,265,1,equal,ST1_high_3_a2,P = T2?,Same,1,2,high,70,1.55,96,1.26,70,1.65,No,sure,cr,5.29413914680481,NA
281,#6o1h4m,False,266,1,equal,DT2_low_5_a2,P = T1?,Different,2,2,low,96,1.41,154,0.81,180,0.89,No,sure,cr,1.1947062015533447,NA
282,#6o1h4m,False,267,1,equal,ST2_low_2_a2,P = T2?,Same,2,2,low,132,1.01,82,1.42,82,1.57,Yes,sure,hit,1.0187022686004639,NA
283,#6o1h4m,False,268,1,equal,ST1_low_6_a1,P = T1?,Same,1,1,low,154,0.92,96,1.14,154,0.84,Yes,sure,hit,4.645352840423584,NA
284,#6o1h4m,False,269,1,equal,STb_8_a2,P = T1?,Same,0,2,None,180,1.01,180,0.77,180,0.83,Yes,sure,hit,0.9439728260040283,NA
285,#6o1h4m,False,270,1,equal,ST1_low_4_a2,P = T2?,Same,1,2,low,112,1.22,70,1.7,112,0.97,No,sure,cr,2.9534530639648438,NA
286,#6o1h4m,False,271,1,equal,ST1_high_2_a1,P = T1?,Same,1,1,high,112,1.09,82,1.6,112,0.92,Yes,sure,hit,1.3839969635009766,NA
287,#6o1h4m,False,272,1,equal,ST1_high_6_a1,P = T1?,Same,1,1,high,132,0.96,96,1.34,132,0.9,No,unsure,miss,2.0286550521850586,NA
288,#6o1h4m,False,273,1,equal,ST2_high_3_a2,P = T1?,Same,2,2,high,70,1.54,96,1.22,96,1.3,No,sure,cr,1.1199851036071777,NA
289,#6o1h4m,False,274,1,equal,ST2_high_5_a2,P = T1?,Same,2,2,high,96,1.12,132,0.85,132,0.95,No,sure,cr,0.9511251449584961,NA
290,#6o1h4m,False,275,1,equal,STb_3_a2,P = T2?,Same,0,2,None,82,1.4,82,1.55,82,1.26,Yes,sure,hit,1.2467849254608154,NA
291,#6o1h4m,False,276,1,equal,ST2_high_5_a1,P = T1?,Same,2,1,high,96,1.42,132,0.97,132,0.99,No,quiteSure,cr,4.945250034332275,NA
292,#6o1h4m,False,277,1,equal,ST1_low_5_a2,P = T2?,Same,1,2,low,96,1.19,154,0.65,96,1.46,No,sure,cr,1.0812432765960693,NA
293,#6o1h4m,False,278,1,equal,ST1_low_4_a2,P = T2?,Same,1,2,low,112,0.99,70,1.6,112,1.11,No,sure,cr,0.8968276977539062,NA
294,#6o1h4m,False,279,1,equal,ST2_high_3_a1,P = T2?,Same,2,1,high,70,1.51,96,1.21,96,1.24,Yes,sure,hit,1.359757900238037,NA
295,#6o1h4m,False,280,1,equal,ST1_high_6_a1,P = T1?,Same,1,1,high,132,0.95,96,1.23,132,0.85,Yes,sure,hit,0.847400426864624,NA
296,#6o1h4m,False,281,1,equal,ST2_low_2_a1,P = T2?,Same,2,1,low,132,0.86,82,1.45,82,1.64,Yes,sure,hit,1.046140193939209,NA
297,#6o1h4m,False,282,1,equal,ST1_low_6_a1,P = T1?,Same,1,1,low,154,0.77,96,1.34,154,0.71,Yes,sure,hit,0.9986622333526611,NA
298,#6o1h4m,False,283,1,equal,ST2_low_5_a2,P = T1?,Same,2,2,low,96,1.32,154,0.86,154,0.79,No,sure,cr,1.2754590511322021,NA
299,#6o1h4m,False,284,1,equal,ST2_low_2_a2,P = T1?,Same,2,2,low,132,1.05,82,1.39,82,1.26,No,sure,cr,1.503511905670166,NA
300,#6o1h4m,False,285,1,equal,ST2_low_3_a2,P = T2?,Same,2,2,low,70,1.43,112,0.94,112,1.04,Yes,sure,hit,1.0869030952453613,NA
301,#6o1h4m,False,286,1,equal,DT2_low_4_a2,P = T1?,Different,2,2,low,112,1.2,70,1.52,60,1.55,No,sure,cr,1.8234491348266602,NA
302,#6o1h4m,False,287,1,equal,DT2_high_1_a1,P = T2?,Different,2,1,high,82,1.41,112,0.95,132,1.04,No,quiteSure,miss,1.470067024230957,NA
303,#6o1h4m,False,288,1,equal,ST2_high_1_a1,P = T1?,Same,2,1,high,82,1.35,112,1.14,112,1.18,No,sure,cr,1.2458219528198242,NA
304,#6o1h4m,False,289,1,equal,ST2_low_6_a1,P = T1?,Same,2,1,low,154,0.94,96,1.23,96,1.21,No,sure,cr,1.0700948238372803,NA
305,#6o1h4m,False,290,1,equal,ST1_high_3_a1,P = T1?,Same,1,1,high,70,1.52,96,1.4,70,1.38,Yes,quiteSure,hit,1.1793768405914307,NA
306,#6o1h4m,False,291,1,equal,ST2_low_1_a2,P = T2?,Same,2,2,low,82,1.3,132,0.85,132,0.94,Yes,sure,hit,0.9456007480621338,NA
307,#6o1h4m,False,292,1,equal,ST1_high_3_a2,P = T2?,Same,1,2,high,70,1.79,96,1.11,70,1.51,No,sure,cr,1.2879350185394287,NA
308,#6o1h4m,False,293,1,equal,STb_6_a1,P = T1?,Same,0,1,None,132,1.06,132,0.98,132,1.04,Yes,sure,hit,1.5594589710235596,NA
309,#6o1h4m,False,294,1,equal,ST2_low_3_a2,P = T1?,Same,2,2,low,70,1.69,112,1.1,112,0.92,No,sure,cr,1.3172080516815186,NA
310,#6o1h4m,False,295,1,equal,ST1_low_6_a1,P = T1?,Same,1,1,low,154,0.73,96,1.31,154,0.81,No,unsure,miss,5.123660087585449,NA
311,#6o1h4m,False,296,1,equal,ST1_low_3_a2,P = T1?,Same,1,2,low,70,1.59,112,0.99,70,1.51,Yes,sure,hit,0.9552521705627441,NA
312,#6o1h4m,False,297,1,equal,ST1_low_4_a2,P = T1?,Same,1,2,low,112,0.99,70,1.75,112,1.01,Yes,sure,hit,1.582369089126587,NA
313,#6o1h4m,False,298,1,equal,ST2_high_2_a1,P = T1?,Same,2,1,high,112,1.05,82,1.6,82,1.35,No,sure,cr,1.1589839458465576,NA
314,#6o1h4m,False,299,1,equal,ST2_high_2_a2,P = T2?,Same,2,2,high,112,1.1,82,1.35,82,1.25,Yes,sure,hit,3.7296481132507324,NA
315,#6o1h4m,False,300,1,equal,ST1_low_1_a1,P = T2?,Same,1,1,low,82,1.38,132,0.93,82,1.56,No,sure,cr,1.2401390075683594,NA
316,#6o1h4m,False,301,1,equal,ST1_high_6_a1,P = T1?,Same,1,1,high,132,0.97,96,1.16,132,0.82,Yes,sure,hit,4.173369884490967,NA
317,#6o1h4m,False,302,1,equal,ST1_high_3_a2,P = T1?,Same,1,2,high,70,1.39,96,1.28,70,1.6,Yes,sure,hit,1.678741216659546,NA
318,#6o1h4m,False,303,1,equal,ST1_low_1_a1,P = T1?,Same,1,1,low,82,1.39,132,0.83,82,1.37,Yes,sure,hit,1.0385291576385498,NA
319,#6o1h4m,False,304,1,equal,ST1_low_6_a2,P = T1?,Same,1,2,low,154,0.95,96,1.2,154,0.72,Yes,quiteSure,hit,2.564647912979126,NA
320,#6o1h4m,False,305,1,equal,ST2_low_2_a2,P = T1?,Same,2,2,low,132,1.01,82,1.63,82,1.25,No,sure,cr,1.1866729259490967,NA
321,#6o1h4m,False,306,1,equal,ST1_low_2_a2,P = T1?,Same,1,2,low,132,0.8,82,1.49,132,0.8,Yes,sure,hit,1.2625172138214111,NA
322,#6o1h4m,False,307,1,equal,ST1_high_5_a1,P = T2?,Same,1,1,high,96,1.29,132,0.79,96,1.39,No,sure,cr,1.053840160369873,NA
323,#6o1h4m,False,308,1,equal,ST1_high_5_a1,P = T2?,Same,1,1,high,96,1.3,132,0.96,96,1.29,No,sure,cr,1.1639459133148193,NA
324,#6o1h4m,False,309,1,equal,ST1_high_5_a2,P = T2?,Same,1,2,high,96,1.12,132,0.84,96,1.36,No,sure,cr,1.188122272491455,NA
325,#6o1h4m,False,310,1,equal,STb_1_a2,P = T1?,Same,0,2,None,60,1.83,60,1.68,60,1.6,Yes,sure,hit,1.1542010307312012,NA
326,#6o1h4m,False,311,1,equal,ST1_low_5_a2,P = T1?,Same,1,2,low,96,1.13,154,0.95,96,1.11,Yes,quiteSure,hit,2.992037057876587,NA
327,#6o1h4m,False,312,1,equal,ST2_low_6_a1,P = T2?,Same,2,1,low,154,0.87,96,1.31,96,1.16,Yes,sure,hit,1.0394601821899414,NA
328,#6o1h4m,False,313,1,equal,ST1_high_1_a1,P = T2?,Same,1,1,high,82,1.33,112,1.2,82,1.57,No,sure,cr,1.8809280395507812,NA
329,#6o1h4m,False,314,1,equal,ST2_high_4_a2,P = T2?,Same,2,2,high,96,1.34,70,1.71,70,1.46,Yes,sure,hit,1.1789093017578125,NA
330,#6o1h4m,False,315,1,equal,ST1_low_6_a2,P = T2?,Same,1,2,low,154,0.75,96,1.37,154,0.77,No,sure,cr,1.2229480743408203,NA
331,#6o1h4m,False,316,1,equal,ST1_low_5_a1,P = T2?,Same,1,1,low,96,1.37,154,0.92,96,1.39,No,quiteSure,cr,1.4215261936187744,NA
332,#6o1h4m,False,317,1,equal,ST2_high_3_a1,P = T2?,Same,2,1,high,70,1.47,96,1.25,96,1.38,Yes,sure,hit,1.0468087196350098,NA
333,#6o1h4m,False,318,1,equal,ST1_low_4_a1,P = T2?,Same,1,1,low,112,0.97,70,1.42,112,1.14,No,sure,cr,0.9152536392211914,NA
334,#6o1h4m,False,319,1,equal,ST1_high_3_a2,P = T1?,Same,1,2,high,70,1.77,96,1.09,70,1.71,Yes,sure,hit,0.9854540824890137,NA
335,#6o1h4m,False,320,1,equal,ST2_low_5_a1,P = T1?,Same,2,1,low,96,1.27,154,0.89,154,0.75,No,sure,cr,0.9922671318054199,1.0
