,pcode,practice,trial,block,questionType,condition,question,PTS,TargetPosition,AccessoryPosition,TNS,T1_hz,T1_amp,T2_hz,T2_amp,P_hz,P_amp,response_dicho,response_rating,response_sdt,rt,P_correct
0,1sy20#t,True,1,2,equal,ST1_low_3_a2,P = T1?,Same,1,2,low,70,1.88,112,1.2,70,1.6,Yes,unsure,hit,9.479349136352539,NA
1,1sy20#t,True,2,2,equal,DT1_high_2_a1,P = T2?,Different,1,1,high,112,1.22,82,1.51,132,0.97,No,sure,cr,3.814513921737671,NA
2,1sy20#t,True,3,2,equal,ST2_low_3_a1,P = T1?,Same,2,1,low,70,1.61,112,1.07,112,0.88,No,quiteSure,cr,2.4194889068603516,NA
3,1sy20#t,True,4,2,equal,ST2_high_2_a2,P = T2?,Same,2,2,high,112,0.96,82,1.54,82,1.13,Yes,quiteSure,hit,2.5554568767547607,NA
4,1sy20#t,True,5,2,equal,STb_6_a1,P = T1?,Same,0,1,None,132,0.79,132,0.93,132,0.95,Yes,sure,hit,1.456270694732666,NA
5,1sy20#t,True,6,2,equal,DT1_low_2_a1,P = T1?,Different,1,1,low,132,0.92,82,1.22,154,0.94,No,sure,miss,1.4310712814331055,NA
6,1sy20#t,True,7,2,equal,STb_8_a2,P = T2?,Same,0,2,None,180,0.94,180,0.8,180,0.92,Yes,sure,hit,0.911715030670166,NA
7,1sy20#t,True,8,2,equal,DT1_low_1_a1,P = T2?,Different,1,1,low,82,1.43,132,0.88,70,1.42,Yes,quiteSure,fa,1.3450701236724854,NA
8,1sy20#t,True,9,2,equal,ST1_low_6_a2,P = T2?,Same,1,2,low,154,0.67,96,1.07,154,0.99,No,sure,cr,4.060464859008789,NA
9,1sy20#t,True,10,2,equal,DT2_high_6_a2,P = T1?,Different,2,2,high,132,1.11,96,1.21,82,1.56,No,sure,cr,1.5197439193725586,NA
10,1sy20#t,True,11,2,equal,ST1_high_3_a2,P = T2?,Same,1,2,high,70,1.69,96,1.36,70,1.61,No,unsure,cr,3.0962369441986084,NA
11,1sy20#t,True,12,2,equal,ST2_high_6_a1,P = T2?,Same,2,1,high,132,0.77,96,1.49,96,1.21,Yes,quiteSure,hit,1.295813798904419,NA
12,1sy20#t,True,13,2,equal,STb_7_a2,P = T1?,Same,0,2,None,154,0.74,154,0.81,154,0.8,Yes,sure,hit,1.2727477550506592,NA
13,1sy20#t,True,14,2,equal,STb_8_a1,P = T2?,Same,0,1,None,180,0.72,180,0.87,180,0.76,Yes,sure,hit,1.5886199474334717,NA
14,1sy20#t,True,15,2,equal,ST2_high_2_a2,P = T1?,Same,2,2,high,112,0.95,82,1.36,82,1.45,No,unsure,cr,4.494921922683716,NA
15,1sy20#t,True,16,2,equal,ST1_high_2_a2,P = T1?,Same,1,2,high,112,1.07,82,1.37,112,1.02,Yes,quiteSure,hit,1.2273740768432617,0.75
16,1sy20#t,False,1,2,equal,ST1_low_5_a2,P = T1?,Same,1,2,low,96,1.18,154,0.92,96,1.27,Yes,sure,hit,1.5182549953460693,NA
17,1sy20#t,False,2,2,equal,ST2_high_4_a1,P = T2?,Same,2,1,high,96,1.24,70,1.48,70,1.73,Yes,sure,hit,2.2945868968963623,NA
18,1sy20#t,False,3,2,equal,ST1_low_4_a2,P = T1?,Same,1,2,low,112,0.99,70,1.81,112,0.97,Yes,quiteSure,hit,6.988152742385864,NA
19,1sy20#t,False,4,2,equal,ST2_high_2_a2,P = T2?,Same,2,2,high,112,0.97,82,1.22,82,1.46,No,quiteSure,miss,3.4768130779266357,NA
20,1sy20#t,False,5,2,equal,ST2_low_5_a2,P = T2?,Same,2,2,low,96,1.43,154,0.86,154,0.9,Yes,sure,hit,3.1385319232940674,NA
21,1sy20#t,False,6,2,equal,ST2_low_4_a2,P = T2?,Same,2,2,low,112,0.99,70,1.61,70,1.5,Yes,sure,hit,1.0015640258789062,NA
22,1sy20#t,False,7,2,equal,ST1_high_3_a1,P = T2?,Same,1,1,high,70,1.52,96,1.13,70,1.38,Yes,sure,fa,1.051548957824707,NA
23,1sy20#t,False,8,2,equal,ST1_high_2_a2,P = T1?,Same,1,2,high,112,1.1,82,1.45,112,1.18,Yes,sure,hit,0.9603149890899658,NA
24,1sy20#t,False,9,2,equal,ST1_low_4_a1,P = T1?,Same,1,1,low,112,1.12,70,1.84,112,1.1,Yes,sure,hit,0.6439564228057861,NA
25,1sy20#t,False,10,2,equal,ST2_low_1_a1,P = T1?,Same,2,1,low,82,1.37,132,0.86,132,0.92,No,quiteSure,cr,2.218766212463379,NA
26,1sy20#t,False,11,2,equal,ST1_high_2_a1,P = T2?,Same,1,1,high,112,1.12,82,1.4,112,0.98,No,sure,cr,1.6987648010253906,NA
27,1sy20#t,False,12,2,equal,ST1_low_3_a2,P = T1?,Same,1,2,low,70,1.48,112,1.04,70,1.55,Yes,quiteSure,hit,5.186778783798218,NA
28,1sy20#t,False,13,2,equal,ST1_high_3_a2,P = T2?,Same,1,2,high,70,1.48,96,1.3,70,1.51,No,quiteSure,cr,6.153358221054077,NA
29,1sy20#t,False,14,2,equal,ST2_high_4_a2,P = T1?,Same,2,2,high,96,1.13,70,1.51,70,1.4,Yes,sure,fa,1.2506260871887207,NA
30,1sy20#t,False,15,2,equal,ST1_high_1_a2,P = T2?,Same,1,2,high,82,1.6,112,1.22,82,1.34,No,quiteSure,cr,4.914015054702759,NA
31,1sy20#t,False,16,2,equal,ST2_high_6_a2,P = T2?,Same,2,2,high,132,0.99,96,1.11,96,1.39,Yes,sure,hit,3.4805989265441895,NA
32,1sy20#t,False,17,2,equal,ST1_low_4_a2,P = T2?,Same,1,2,low,112,1.16,70,1.37,112,1.11,No,sure,cr,1.4510128498077393,NA
33,1sy20#t,False,18,2,equal,ST2_low_2_a2,P = T2?,Same,2,2,low,132,0.86,82,1.42,82,1.63,Yes,unsure,hit,3.4995319843292236,NA
34,1sy20#t,False,19,2,equal,ST1_low_6_a2,P = T1?,Same,1,2,low,154,0.71,96,1.23,154,0.72,Yes,sure,hit,1.3395929336547852,NA
35,1sy20#t,False,20,2,equal,ST1_low_6_a2,P = T1?,Same,1,2,low,154,0.88,96,1.17,154,0.81,Yes,sure,hit,1.1752889156341553,NA
36,1sy20#t,False,21,2,equal,ST1_high_6_a2,P = T1?,Same,1,2,high,132,0.8,96,1.07,132,0.8,Yes,sure,hit,1.1806890964508057,NA
37,1sy20#t,False,22,2,equal,ST1_low_1_a1,P = T1?,Same,1,1,low,82,1.28,132,1.04,82,1.26,Yes,sure,hit,1.0490639209747314,NA
38,1sy20#t,False,23,2,equal,ST1_low_2_a2,P = T2?,Same,1,2,low,132,0.91,82,1.39,132,0.98,No,quiteSure,cr,4.824497938156128,NA
39,1sy20#t,False,24,2,equal,STb_7_a1,P = T2?,Same,0,1,None,154,0.77,154,0.93,154,0.82,Yes,sure,hit,1.29634690284729,NA
40,1sy20#t,False,25,2,equal,ST2_high_2_a1,P = T2?,Same,2,1,high,112,1.16,82,1.4,82,1.63,Yes,sure,hit,1.0268642902374268,NA
41,1sy20#t,False,26,2,equal,ST1_high_1_a2,P = T1?,Same,1,2,high,82,1.25,112,1.17,82,1.59,No,sure,miss,3.9907338619232178,NA
42,1sy20#t,False,27,2,equal,ST1_high_1_a1,P = T2?,Same,1,1,high,82,1.39,112,1.18,82,1.43,No,unsure,cr,3.3211510181427,NA
43,1sy20#t,False,28,2,equal,DT2_low_3_a2,P = T2?,Different,2,2,low,70,1.76,112,1.2,132,0.92,No,sure,miss,1.5707957744598389,NA
44,1sy20#t,False,29,2,equal,ST1_high_6_a2,P = T2?,Same,1,2,high,132,0.88,96,1.19,132,0.86,No,sure,cr,2.308223009109497,NA
45,1sy20#t,False,30,2,equal,ST2_high_2_a1,P = T2?,Same,2,1,high,112,0.98,82,1.48,82,1.29,No,sure,miss,1.6299588680267334,NA
46,1sy20#t,False,31,2,equal,ST1_low_1_a2,P = T2?,Same,1,2,low,82,1.4,132,0.84,82,1.5,No,quiteSure,cr,3.427626132965088,NA
47,1sy20#t,False,32,2,equal,ST2_low_2_a1,P = T1?,Same,2,1,low,132,0.79,82,1.24,82,1.39,No,unsure,cr,5.1204869747161865,NA
48,1sy20#t,False,33,2,equal,ST2_high_6_a2,P = T2?,Same,2,2,high,132,0.95,96,1.42,96,1.42,Yes,sure,hit,1.1845860481262207,NA
49,1sy20#t,False,34,2,equal,ST2_high_4_a1,P = T2?,Same,2,1,high,96,1.39,70,1.84,70,1.79,Yes,sure,hit,0.9985458850860596,NA
50,1sy20#t,False,35,2,equal,ST2_high_1_a2,P = T1?,Same,2,2,high,82,1.53,112,1.07,112,1.18,No,sure,cr,2.414862871170044,NA
51,1sy20#t,False,36,2,equal,ST2_high_6_a1,P = T2?,Same,2,1,high,132,0.88,96,1.41,96,1.4,Yes,sure,hit,4.062072038650513,NA
52,1sy20#t,False,37,2,equal,STb_4_a2,P = T1?,Same,0,2,None,96,1.1,96,1.28,96,1.2,Yes,sure,hit,1.2080907821655273,NA
53,1sy20#t,False,38,2,equal,ST2_low_3_a2,P = T2?,Same,2,2,low,70,1.56,112,0.96,112,1.05,Yes,sure,hit,1.20363187789917,NA
54,1sy20#t,False,39,2,equal,ST2_high_5_a2,P = T2?,Same,2,2,high,96,1.26,132,1.0,132,0.91,Yes,sure,hit,1.0034399032592773,NA
55,1sy20#t,False,40,2,equal,ST1_low_2_a1,P = T1?,Same,1,1,low,132,0.98,82,1.24,132,0.98,Yes,sure,hit,0.9992280006408691,NA
56,1sy20#t,False,41,2,equal,ST2_low_6_a2,P = T1?,Same,2,2,low,154,0.94,96,1.21,96,1.12,No,sure,cr,1.723613977432251,NA
57,1sy20#t,False,42,2,equal,STb_5_a2,P = T1?,Same,0,2,None,112,1.2,112,1.2,112,0.96,Yes,sure,hit,0.8652942180633545,NA
58,1sy20#t,False,43,2,equal,ST1_low_2_a1,P = T1?,Same,1,1,low,132,0.87,82,1.54,132,0.96,Yes,sure,hit,0.8415431976318359,NA
59,1sy20#t,False,44,2,equal,ST1_low_2_a2,P = T1?,Same,1,2,low,132,1.0,82,1.54,132,0.88,No,quiteSure,miss,1.248734951019287,NA
60,1sy20#t,False,45,2,equal,ST1_low_5_a2,P = T1?,Same,1,2,low,96,1.39,154,0.88,96,1.32,No,unsure,miss,2.331130027770996,NA
61,1sy20#t,False,46,2,equal,ST2_high_1_a2,P = T1?,Same,2,2,high,82,1.27,112,1.14,112,1.07,No,sure,cr,1.3937783241271973,NA
62,1sy20#t,False,47,2,equal,ST2_low_5_a1,P = T1?,Same,2,1,low,96,1.42,154,0.77,154,0.79,No,sure,cr,2.2860910892486572,NA
63,1sy20#t,False,48,2,equal,ST2_high_4_a2,P = T2?,Same,2,2,high,96,1.41,70,1.49,70,1.52,No,sure,miss,1.518387794494629,NA
64,1sy20#t,False,49,2,equal,ST2_high_2_a2,P = T2?,Same,2,2,high,112,1.21,82,1.6,82,1.37,Yes,sure,hit,1.0726263523101807,NA
65,1sy20#t,False,50,2,equal,ST2_high_3_a1,P = T1?,Same,2,1,high,70,1.5,96,1.07,96,1.15,Yes,quiteSure,fa,2.240648031234741,NA
66,1sy20#t,False,51,2,equal,ST2_low_1_a2,P = T1?,Same,2,2,low,82,1.31,132,0.9,132,0.97,No,quiteSure,cr,1.5819170475006104,NA
67,1sy20#t,False,52,2,equal,ST2_low_2_a1,P = T2?,Same,2,1,low,132,0.88,82,1.34,82,1.43,Yes,sure,hit,1.2441380023956299,NA
68,1sy20#t,False,53,2,equal,ST2_high_3_a2,P = T1?,Same,2,2,high,70,1.79,96,1.2,96,1.09,Yes,quiteSure,fa,2.1707279682159424,NA
69,1sy20#t,False,54,2,equal,ST2_low_4_a1,P = T2?,Same,2,1,low,112,1.21,70,1.57,70,1.47,No,sure,miss,6.19986891746521,NA
70,1sy20#t,False,55,2,equal,ST2_low_1_a1,P = T2?,Same,2,1,low,82,1.56,132,0.85,132,0.79,Yes,sure,hit,2.7373299598693848,NA
71,1sy20#t,False,56,2,equal,ST2_low_5_a1,P = T1?,Same,2,1,low,96,1.11,154,0.71,154,0.87,No,quiteSure,cr,2.438607931137085,NA
72,1sy20#t,False,57,2,equal,ST2_low_5_a2,P = T1?,Same,2,2,low,96,1.36,154,0.87,154,0.73,Yes,quiteSure,fa,1.5180740356445312,NA
73,1sy20#t,False,58,2,equal,ST1_high_3_a1,P = T1?,Same,1,1,high,70,1.58,96,1.11,70,1.68,No,unsure,miss,2.079418897628784,NA
74,1sy20#t,False,59,2,equal,ST2_low_1_a2,P = T1?,Same,2,2,low,82,1.22,132,0.94,132,0.92,No,quiteSure,cr,1.765207052230835,NA
75,1sy20#t,False,60,2,equal,ST1_high_5_a1,P = T2?,Same,1,1,high,96,1.17,132,0.87,96,1.13,No,sure,cr,1.5435690879821777,NA
76,1sy20#t,False,61,2,equal,ST1_high_5_a1,P = T2?,Same,1,1,high,96,1.25,132,0.79,96,1.22,No,sure,cr,1.2088639736175537,NA
77,1sy20#t,False,62,2,equal,ST2_high_5_a2,P = T1?,Same,2,2,high,96,1.37,132,0.93,132,0.8,No,unsure,cr,1.160810947418213,NA
78,1sy20#t,False,63,2,equal,ST1_high_2_a2,P = T2?,Same,1,2,high,112,1.23,82,1.28,112,1.06,No,sure,cr,4.937345027923584,NA
79,1sy20#t,False,64,2,equal,ST1_low_1_a1,P = T2?,Same,1,1,low,82,1.42,132,0.8,82,1.31,No,quiteSure,cr,1.4977309703826904,NA
80,1sy20#t,False,65,2,equal,ST2_high_5_a1,P = T1?,Same,2,1,high,96,1.15,132,0.96,132,0.81,No,unsure,cr,3.02778697013855,NA
81,1sy20#t,False,66,2,equal,ST2_high_4_a1,P = T1?,Same,2,1,high,96,1.18,70,1.79,70,1.7,Yes,unsure,fa,2.9620888233184814,NA
82,1sy20#t,False,67,2,equal,ST2_low_3_a2,P = T1?,Same,2,2,low,70,1.56,112,1.07,112,0.97,No,quiteSure,cr,1.7917828559875488,NA
83,1sy20#t,False,68,2,equal,ST2_high_6_a2,P = T1?,Same,2,2,high,132,1.05,96,1.41,96,1.3,No,sure,cr,1.7376923561096191,NA
84,1sy20#t,False,69,2,equal,ST1_high_1_a2,P = T1?,Same,1,2,high,82,1.28,112,1.1,82,1.24,No,unsure,miss,1.517143964767456,NA
85,1sy20#t,False,70,2,equal,ST1_high_6_a1,P = T2?,Same,1,1,high,132,0.97,96,1.28,132,0.91,No,sure,cr,1.7208549976348877,NA
86,1sy20#t,False,71,2,equal,ST1_low_1_a1,P = T2?,Same,1,1,low,82,1.63,132,0.9,82,1.44,Yes,quiteSure,fa,3.02807879447937,NA
87,1sy20#t,False,72,2,equal,STb_8_a2,P = T1?,Same,0,2,None,180,0.95,180,0.9,180,0.89,Yes,sure,hit,0.9350569248199463,NA
88,1sy20#t,False,73,2,equal,ST1_low_3_a2,P = T2?,Same,1,2,low,70,1.4,112,1.17,70,1.75,Yes,quiteSure,fa,3.746990203857422,NA
89,1sy20#t,False,74,2,equal,ST1_high_4_a1,P = T1?,Same,1,1,high,96,1.17,70,1.5,96,1.28,Yes,quiteSure,hit,2.920003890991211,NA
90,1sy20#t,False,75,2,equal,ST2_low_6_a2,P = T2?,Same,2,2,low,154,0.78,96,1.18,96,1.34,Yes,quiteSure,hit,5.098649978637695,NA
91,1sy20#t,False,76,2,equal,ST2_high_4_a1,P = T1?,Same,2,1,high,96,1.29,70,1.39,70,1.79,No,quiteSure,cr,3.089272975921631,NA
92,1sy20#t,False,77,2,equal,DT1_high_5_a2,P = T2?,Different,1,2,high,96,1.38,132,1.0,82,1.62,No,sure,cr,1.7660040855407715,NA
93,1sy20#t,False,78,2,equal,ST1_low_3_a2,P = T2?,Same,1,2,low,70,1.46,112,0.96,70,1.46,No,sure,cr,3.3661558628082275,NA
94,1sy20#t,False,79,2,equal,STb_5_a1,P = T2?,Same,0,1,None,112,1.21,112,1.09,112,1.18,Yes,quiteSure,hit,2.5551271438598633,NA
95,1sy20#t,False,80,2,equal,ST1_low_3_a1,P = T2?,Same,1,1,low,70,1.73,112,1.13,70,1.48,No,sure,cr,4.015324115753174,NA
96,1sy20#t,False,81,2,equal,ST1_low_3_a1,P = T2?,Same,1,1,low,70,1.57,112,1.08,70,1.46,No,sure,cr,2.57948899269104,NA
97,1sy20#t,False,82,2,equal,ST2_low_2_a2,P = T1?,Same,2,2,low,132,0.87,82,1.49,82,1.48,No,sure,cr,1.5472309589385986,NA
98,1sy20#t,False,83,2,equal,STb_6_a2,P = T2?,Same,0,2,None,132,0.94,132,0.91,132,0.85,Yes,sure,hit,1.2014410495758057,NA
99,1sy20#t,False,84,2,equal,ST1_low_5_a1,P = T1?,Same,1,1,low,96,1.4,154,0.81,96,1.08,No,unsure,miss,2.2147860527038574,NA
100,1sy20#t,False,85,2,equal,ST1_high_2_a1,P = T1?,Same,1,1,high,112,1.14,82,1.63,112,1.01,Yes,quiteSure,hit,1.8323678970336914,NA
101,1sy20#t,False,86,2,equal,ST1_high_6_a2,P = T2?,Same,1,2,high,132,0.91,96,1.42,132,1.05,Yes,quiteSure,fa,3.0047738552093506,NA
102,1sy20#t,False,87,2,equal,ST2_low_2_a1,P = T2?,Same,2,1,low,132,1.04,82,1.6,82,1.39,Yes,quiteSure,hit,1.2272260189056396,NA
103,1sy20#t,False,88,2,equal,ST2_low_3_a1,P = T1?,Same,2,1,low,70,1.84,112,1.04,112,1.03,No,unsure,cr,1.7662830352783203,NA
104,1sy20#t,False,89,2,equal,ST1_low_5_a2,P = T1?,Same,1,2,low,96,1.39,154,0.82,96,1.19,Yes,sure,hit,1.0735290050506592,NA
105,1sy20#t,False,90,2,equal,DT1_high_3_a2,P = T2?,Different,1,2,high,70,1.81,96,1.1,60,1.99,No,sure,cr,5.299268960952759,NA
106,1sy20#t,False,91,2,equal,ST1_high_2_a2,P = T2?,Same,1,2,high,112,1.22,82,1.58,112,1.09,No,sure,cr,1.067143201828003,NA
107,1sy20#t,False,92,2,equal,ST1_high_6_a2,P = T2?,Same,1,2,high,132,1.05,96,1.08,132,1.02,No,sure,cr,4.28606104850769,NA
108,1sy20#t,False,93,2,equal,ST2_high_2_a2,P = T1?,Same,2,2,high,112,0.95,82,1.36,82,1.45,No,quiteSure,cr,2.217348098754883,NA
109,1sy20#t,False,94,2,equal,ST2_low_6_a2,P = T2?,Same,2,2,low,154,0.74,96,1.27,96,1.37,Yes,quiteSure,hit,1.2086091041564941,NA
110,1sy20#t,False,95,2,equal,ST2_low_3_a1,P = T1?,Same,2,1,low,70,1.61,112,1.07,112,0.88,Yes,quiteSure,fa,0.7091050148010254,NA
111,1sy20#t,False,96,2,equal,ST1_high_2_a2,P = T2?,Same,1,2,high,112,1.18,82,1.45,112,1.0,No,quiteSure,cr,1.3160889148712158,NA
112,1sy20#t,False,97,2,equal,ST2_high_2_a2,P = T1?,Same,2,2,high,112,1.19,82,1.57,82,1.41,Yes,quiteSure,fa,4.442829132080078,NA
113,1sy20#t,False,98,2,equal,ST2_high_5_a1,P = T2?,Same,2,1,high,96,1.14,132,0.9,132,0.95,Yes,quiteSure,hit,2.7601470947265625,NA
114,1sy20#t,False,99,2,equal,ST2_low_1_a1,P = T1?,Same,2,1,low,82,1.5,132,0.84,132,0.95,No,sure,cr,4.016819000244141,NA
115,1sy20#t,False,100,2,equal,ST2_high_1_a2,P = T2?,Same,2,2,high,82,1.62,112,0.93,112,1.22,Yes,sure,hit,1.2274222373962402,NA
116,1sy20#t,False,101,2,equal,DT2_low_4_a1,P = T2?,Different,2,1,low,112,1.19,70,1.72,60,1.77,Yes,sure,hit,1.0000331401824951,NA
117,1sy20#t,False,102,2,equal,ST2_low_6_a2,P = T2?,Same,2,2,low,154,0.8,96,1.16,96,1.16,Yes,sure,hit,2.64565110206604,NA
118,1sy20#t,False,103,2,equal,ST1_low_3_a1,P = T1?,Same,1,1,low,70,1.76,112,1.07,70,1.46,Yes,sure,hit,1.6744499206542969,NA
119,1sy20#t,False,104,2,equal,ST1_high_4_a1,P = T1?,Same,1,1,high,96,1.13,70,1.75,96,1.34,No,unsure,miss,3.748237133026123,NA
120,1sy20#t,False,105,2,equal,ST1_low_2_a2,P = T1?,Same,1,2,low,132,0.81,82,1.6,132,0.85,Yes,sure,hit,0.9815161228179932,NA
121,1sy20#t,False,106,2,equal,STb_4_a2,P = T2?,Same,0,2,None,96,1.06,96,1.18,96,1.12,Yes,sure,hit,0.7608261108398438,NA
122,1sy20#t,False,107,2,equal,ST1_low_6_a2,P = T1?,Same,1,2,low,154,0.86,96,1.24,154,0.75,Yes,sure,hit,0.5764846801757812,NA
123,1sy20#t,False,108,2,equal,ST1_low_1_a2,P = T2?,Same,1,2,low,82,1.22,132,0.84,82,1.49,No,sure,cr,1.3170859813690186,NA
124,1sy20#t,False,109,2,equal,ST1_high_6_a2,P = T1?,Same,1,2,high,132,0.94,96,1.27,132,1.06,Yes,sure,hit,1.0326259136199951,NA
125,1sy20#t,False,110,2,equal,STb_6_a1,P = T2?,Same,0,1,None,132,0.81,132,0.94,132,0.89,Yes,sure,hit,0.9767320156097412,NA
126,1sy20#t,False,111,2,equal,ST2_low_1_a2,P = T2?,Same,2,2,low,82,1.28,132,0.96,132,0.97,Yes,sure,hit,0.8200588226318359,NA
127,1sy20#t,False,112,2,equal,ST2_low_4_a1,P = T2?,Same,2,1,low,112,1.15,70,1.54,70,1.73,No,sure,miss,1.386497974395752,NA
128,1sy20#t,False,113,2,equal,ST2_high_6_a1,P = T2?,Same,2,1,high,132,0.77,96,1.49,96,1.21,Yes,sure,hit,1.0452752113342285,NA
129,1sy20#t,False,114,2,equal,ST1_low_6_a2,P = T2?,Same,1,2,low,154,0.81,96,1.23,154,0.88,No,quiteSure,cr,1.3352880477905273,NA
130,1sy20#t,False,115,2,equal,ST2_low_5_a2,P = T2?,Same,2,2,low,96,1.38,154,0.93,154,0.81,Yes,sure,hit,0.917518138885498,NA
131,1sy20#t,False,116,2,equal,ST2_low_3_a2,P = T2?,Same,2,2,low,70,1.67,112,1.05,112,0.92,Yes,unsure,hit,2.0128421783447266,NA
132,1sy20#t,False,117,2,equal,ST1_high_2_a1,P = T2?,Same,1,1,high,112,1.15,82,1.64,112,1.23,No,quiteSure,cr,2.235607147216797,NA
133,1sy20#t,False,118,2,equal,STb_1_a2,P = T2?,Same,0,2,None,60,1.6,60,1.94,60,2.01,Yes,sure,hit,0.5046179294586182,NA
134,1sy20#t,False,119,2,equal,ST1_low_6_a2,P = T2?,Same,1,2,low,154,0.93,96,1.18,154,0.79,No,unsure,cr,1.291374921798706,NA
135,1sy20#t,False,120,2,equal,ST1_low_4_a1,P = T1?,Same,1,1,low,112,1.22,70,1.58,112,1.11,Yes,sure,hit,0.8655169010162354,NA
136,1sy20#t,False,121,2,equal,ST1_low_2_a2,P = T2?,Same,1,2,low,132,1.03,82,1.46,132,0.89,No,sure,cr,1.0027940273284912,NA
137,1sy20#t,False,122,2,equal,ST2_high_6_a1,P = T1?,Same,2,1,high,132,0.95,96,1.26,96,1.19,No,quiteSure,cr,2.106693744659424,NA
138,1sy20#t,False,123,2,equal,ST2_low_2_a2,P = T2?,Same,2,2,low,132,1.05,82,1.3,82,1.47,Yes,sure,hit,0.5293118953704834,NA
139,1sy20#t,False,124,2,equal,ST1_high_5_a2,P = T1?,Same,1,2,high,96,1.08,132,0.93,96,1.12,Yes,sure,hit,1.3162460327148438,NA
140,1sy20#t,False,125,2,equal,DT2_high_4_a2,P = T1?,Different,2,2,high,96,1.2,70,1.37,60,1.63,No,unsure,cr,3.479926109313965,NA
141,1sy20#t,False,126,2,equal,ST1_high_3_a2,P = T1?,Same,1,2,high,70,1.83,96,1.37,70,1.67,No,quiteSure,miss,1.475620985031128,NA
142,1sy20#t,False,127,2,equal,ST2_high_4_a2,P = T1?,Same,2,2,high,96,1.3,70,1.53,70,1.5,No,unsure,cr,2.304699182510376,NA
143,1sy20#t,False,128,2,equal,ST2_high_3_a1,P = T2?,Same,2,1,high,70,1.77,96,1.13,96,1.16,Yes,unsure,hit,3.5922610759735107,NA
144,1sy20#t,False,129,2,equal,DT1_high_6_a1,P = T1?,Different,1,1,high,132,0.91,96,1.15,154,0.8,No,unsure,miss,2.803392171859741,NA
145,1sy20#t,False,130,2,equal,ST1_low_5_a1,P = T1?,Same,1,1,low,96,1.07,154,0.9,96,1.08,Yes,quiteSure,hit,2.348989963531494,NA
146,1sy20#t,False,131,2,equal,ST2_low_4_a2,P = T2?,Same,2,2,low,112,0.96,70,1.39,70,1.47,Yes,sure,hit,1.5620501041412354,NA
147,1sy20#t,False,132,2,equal,ST1_low_4_a2,P = T2?,Same,1,2,low,112,1.19,70,1.44,112,1.0,No,quiteSure,cr,5.236565113067627,NA
148,1sy20#t,False,133,2,equal,ST1_high_5_a1,P = T1?,Same,1,1,high,96,1.31,132,0.86,96,1.13,Yes,sure,hit,1.4837241172790527,NA
149,1sy20#t,False,134,2,equal,ST2_low_5_a1,P = T2?,Same,2,1,low,96,1.07,154,0.86,154,0.84,Yes,sure,hit,1.0927510261535645,NA
150,1sy20#t,False,135,2,equal,ST1_high_5_a2,P = T2?,Same,1,2,high,96,1.31,132,0.95,96,1.38,No,sure,cr,1.1604878902435303,NA
151,1sy20#t,False,136,2,equal,ST1_low_1_a1,P = T1?,Same,1,1,low,82,1.6,132,0.96,82,1.25,Yes,sure,hit,1.2966558933258057,NA
152,1sy20#t,False,137,2,equal,ST2_low_3_a2,P = T1?,Same,2,2,low,70,1.54,112,1.02,112,1.12,No,quiteSure,cr,1.5207312107086182,NA
153,1sy20#t,False,138,2,equal,ST2_low_4_a1,P = T2?,Same,2,1,low,112,0.98,70,1.63,70,1.67,Yes,sure,hit,0.9357330799102783,NA
154,1sy20#t,False,139,2,equal,ST2_low_4_a2,P = T1?,Same,2,2,low,112,1.03,70,1.44,70,1.48,No,quiteSure,cr,4.059262990951538,NA
155,1sy20#t,False,140,2,equal,DT2_high_6_a1,P = T1?,Different,2,1,high,132,1.04,96,1.17,82,1.4,No,sure,cr,2.50994610786438,NA
156,1sy20#t,False,141,2,equal,ST2_low_6_a1,P = T2?,Same,2,1,low,154,0.74,96,1.33,96,1.39,Yes,sure,hit,1.1147191524505615,NA
157,1sy20#t,False,142,2,equal,ST1_high_5_a2,P = T1?,Same,1,2,high,96,1.38,132,0.89,96,1.19,No,unsure,miss,3.899343967437744,NA
158,1sy20#t,False,143,2,equal,DT2_high_6_a2,P = T1?,Different,2,2,high,132,1.11,96,1.21,82,1.56,No,sure,cr,4.020257949829102,NA
159,1sy20#t,False,144,2,equal,ST2_high_4_a1,P = T2?,Same,2,1,high,96,1.33,70,1.42,70,1.76,Yes,sure,hit,1.24884033203125,NA
160,1sy20#t,False,145,2,equal,ST1_high_3_a2,P = T2?,Same,1,2,high,70,1.69,96,1.36,70,1.61,Yes,sure,fa,3.3212778568267822,NA
161,1sy20#t,False,146,2,equal,ST2_low_5_a2,P = T1?,Same,2,2,low,96,1.4,154,0.76,154,0.94,No,quiteSure,cr,1.38211989402771,NA
162,1sy20#t,False,147,2,equal,STb_4_a1,P = T1?,Same,0,1,None,96,1.21,96,1.22,96,1.17,No,quiteSure,miss,0.7551059722900391,NA
163,1sy20#t,False,148,2,equal,ST2_low_3_a1,P = T2?,Same,2,1,low,70,1.79,112,1.15,112,1.08,Yes,sure,hit,2.1005749702453613,NA
164,1sy20#t,False,149,2,equal,ST1_high_2_a1,P = T2?,Same,1,1,high,112,1.08,82,1.22,112,1.05,Yes,sure,fa,1.269454002380371,NA
165,1sy20#t,False,150,2,equal,ST2_low_4_a2,P = T2?,Same,2,2,low,112,1.03,70,1.62,70,1.71,Yes,sure,hit,2.5044400691986084,NA
166,1sy20#t,False,151,2,equal,ST2_high_3_a1,P = T2?,Same,2,1,high,70,1.54,96,1.2,96,1.11,Yes,unsure,hit,3.9707658290863037,NA
167,1sy20#t,False,152,2,equal,DT1_low_1_a2,P = T1?,Different,1,2,low,82,1.23,132,1.01,70,1.41,Yes,unsure,hit,8.925311088562012,NA
168,1sy20#t,False,153,2,equal,ST2_high_5_a2,P = T1?,Same,2,2,high,96,1.13,132,1.0,132,0.85,No,quiteSure,cr,2.4846270084381104,NA
169,1sy20#t,False,154,2,equal,ST1_low_3_a1,P = T2?,Same,1,1,low,70,1.66,112,1.08,70,1.84,Yes,sure,fa,0.9989347457885742,NA
170,1sy20#t,False,155,2,equal,ST1_low_2_a1,P = T1?,Same,1,1,low,132,0.8,82,1.53,132,0.96,Yes,sure,hit,0.9777979850769043,NA
171,1sy20#t,False,156,2,equal,DT2_low_4_a2,P = T2?,Different,2,2,low,112,0.95,70,1.52,60,1.86,Yes,sure,hit,1.3410420417785645,NA
172,1sy20#t,False,157,2,equal,ST1_high_5_a2,P = T2?,Same,1,2,high,96,1.2,132,0.81,96,1.42,No,unsure,cr,2.1465938091278076,NA
173,1sy20#t,False,158,2,equal,ST1_high_1_a1,P = T2?,Same,1,1,high,82,1.64,112,1.21,82,1.38,No,quiteSure,cr,1.923280954360962,NA
174,1sy20#t,False,159,2,equal,ST1_low_5_a2,P = T2?,Same,1,2,low,96,1.31,154,0.93,96,1.33,No,quiteSure,cr,5.545090198516846,NA
175,1sy20#t,False,160,2,equal,ST1_low_6_a1,P = T1?,Same,1,1,low,154,0.9,96,1.29,154,0.78,Yes,sure,hit,1.3183619976043701,NA
176,1sy20#t,False,161,2,equal,ST1_low_1_a2,P = T2?,Same,1,2,low,82,1.3,132,0.91,82,1.64,No,quiteSure,cr,4.555116653442383,NA
177,1sy20#t,False,162,2,equal,ST1_low_1_a2,P = T1?,Same,1,2,low,82,1.49,132,1.03,82,1.43,No,unsure,miss,8.561650037765503,NA
178,1sy20#t,False,163,2,equal,STb_4_a1,P = T2?,Same,0,1,None,96,1.24,96,1.37,96,1.08,Yes,sure,hit,0.39414000511169434,NA
179,1sy20#t,False,164,2,equal,ST2_high_1_a1,P = T1?,Same,2,1,high,82,1.57,112,1.1,112,1.01,No,sure,cr,1.7547001838684082,NA
180,1sy20#t,False,165,2,equal,ST2_low_4_a1,P = T1?,Same,2,1,low,112,0.98,70,1.39,70,1.84,No,quiteSure,cr,1.0454998016357422,NA
181,1sy20#t,False,166,2,equal,ST1_high_4_a2,P = T2?,Same,1,2,high,96,1.29,70,1.83,96,1.18,Yes,sure,fa,1.070448875427246,NA
182,1sy20#t,False,167,2,equal,ST1_low_5_a1,P = T1?,Same,1,1,low,96,1.29,154,0.75,96,1.3,Yes,sure,hit,0.887523889541626,NA
183,1sy20#t,False,168,2,equal,ST2_high_1_a1,P = T1?,Same,2,1,high,82,1.32,112,1.23,112,1.02,No,quiteSure,cr,1.677940845489502,NA
184,1sy20#t,False,169,2,equal,DT2_high_6_a1,P = T2?,Different,2,1,high,132,0.94,96,1.07,82,1.59,Yes,sure,hit,2.3521180152893066,NA
185,1sy20#t,False,170,2,equal,ST1_low_4_a2,P = T1?,Same,1,2,low,112,1.05,70,1.39,112,1.2,Yes,sure,hit,0.6170639991760254,NA
186,1sy20#t,False,171,2,equal,ST1_high_3_a2,P = T1?,Same,1,2,high,70,1.68,96,1.08,70,1.55,No,unsure,miss,1.671854019165039,NA
187,1sy20#t,False,172,2,equal,ST2_high_3_a2,P = T2?,Same,2,2,high,70,1.4,96,1.29,96,1.14,Yes,sure,hit,4.171424150466919,NA
188,1sy20#t,False,173,2,equal,ST1_high_5_a1,P = T1?,Same,1,1,high,96,1.24,132,0.93,96,1.14,Yes,sure,hit,3.43084979057312,NA
189,1sy20#t,False,174,2,equal,ST2_low_6_a1,P = T1?,Same,2,1,low,154,0.74,96,1.06,96,1.29,No,quiteSure,cr,3.6546995639801025,NA
190,1sy20#t,False,175,2,equal,ST2_low_2_a1,P = T2?,Same,2,1,low,132,0.95,82,1.37,82,1.34,Yes,sure,hit,1.9460010528564453,NA
191,1sy20#t,False,176,2,equal,ST2_low_3_a1,P = T1?,Same,2,1,low,70,1.61,112,1.21,112,0.98,Yes,sure,fa,2.8455207347869873,NA
192,1sy20#t,False,177,2,equal,ST1_high_3_a1,P = T2?,Same,1,1,high,70,1.38,96,1.2,70,1.76,Yes,sure,fa,0.7331979274749756,NA
193,1sy20#t,False,178,2,equal,DT1_high_3_a2,P = T1?,Different,1,2,high,70,1.41,96,1.22,60,1.6,Yes,sure,hit,0.9342288970947266,NA
194,1sy20#t,False,179,2,equal,ST2_high_2_a1,P = T2?,Same,2,1,high,112,1.19,82,1.25,82,1.56,Yes,sure,hit,0.9139788150787354,NA
195,1sy20#t,False,180,2,equal,ST1_high_6_a1,P = T1?,Same,1,1,high,132,0.99,96,1.07,132,1.01,Yes,sure,hit,0.7558310031890869,NA
196,1sy20#t,False,181,2,equal,ST1_high_1_a1,P = T2?,Same,1,1,high,82,1.54,112,1.23,82,1.28,No,unsure,cr,1.6591060161590576,NA
197,1sy20#t,False,182,2,equal,STb_1_a1,P = T2?,Same,0,1,None,60,1.96,60,1.57,60,1.84,Yes,sure,hit,0.39464592933654785,NA
198,1sy20#t,False,183,2,equal,ST1_low_4_a2,P = T1?,Same,1,2,low,112,1.08,70,1.62,112,0.98,Yes,sure,hit,0.8228602409362793,NA
199,1sy20#t,False,184,2,equal,ST1_high_3_a2,P = T2?,Same,1,2,high,70,1.43,96,1.39,70,1.5,No,sure,cr,1.5867960453033447,NA
200,1sy20#t,False,185,2,equal,ST1_high_5_a2,P = T1?,Same,1,2,high,96,1.12,132,0.97,96,1.14,Yes,sure,hit,2.284169912338257,NA
201,1sy20#t,False,186,2,equal,ST2_high_2_a2,P = T1?,Same,2,2,high,112,1.21,82,1.61,82,1.49,No,quiteSure,cr,0.9559087753295898,NA
202,1sy20#t,False,187,2,equal,ST1_high_3_a2,P = T1?,Same,1,2,high,70,1.8,96,1.22,70,1.84,No,unsure,miss,4.6011528968811035,NA
203,1sy20#t,False,188,2,equal,ST1_high_3_a1,P = T2?,Same,1,1,high,70,1.62,96,1.37,70,1.73,Yes,unsure,fa,1.7159790992736816,NA
204,1sy20#t,False,189,2,equal,ST1_low_3_a2,P = T2?,Same,1,2,low,70,1.65,112,1.1,70,1.38,No,sure,cr,2.9337401390075684,NA
205,1sy20#t,False,190,2,equal,ST2_low_6_a1,P = T2?,Same,2,1,low,154,0.79,96,1.16,96,1.14,Yes,sure,hit,1.563277006149292,NA
206,1sy20#t,False,191,2,equal,ST2_high_6_a2,P = T1?,Same,2,2,high,132,0.87,96,1.23,96,1.26,No,sure,cr,3.072448968887329,NA
207,1sy20#t,False,192,2,equal,DT2_low_5_a1,P = T2?,Different,2,1,low,96,1.09,154,0.82,180,0.74,No,sure,miss,0.9147729873657227,NA
208,1sy20#t,False,193,2,equal,ST2_high_3_a1,P = T1?,Same,2,1,high,70,1.6,96,1.29,96,1.18,Yes,sure,fa,0.686450719833374,NA
209,1sy20#t,False,194,2,equal,ST2_high_2_a1,P = T1?,Same,2,1,high,112,1.02,82,1.48,82,1.39,No,unsure,cr,3.2502517700195312,NA
210,1sy20#t,False,195,2,equal,ST1_low_1_a1,P = T1?,Same,1,1,low,82,1.6,132,0.93,82,1.53,No,unsure,miss,1.230133295059204,NA
211,1sy20#t,False,196,2,equal,ST2_low_4_a1,P = T1?,Same,2,1,low,112,0.92,70,1.49,70,1.4,No,unsure,cr,2.1269021034240723,NA
212,1sy20#t,False,197,2,equal,STb_7_a2,P = T1?,Same,0,2,None,154,0.74,154,0.81,154,0.8,Yes,sure,hit,1.6541059017181396,NA
213,1sy20#t,False,198,2,equal,ST1_high_1_a2,P = T2?,Same,1,2,high,82,1.29,112,0.96,82,1.39,No,quiteSure,cr,1.2034549713134766,NA
214,1sy20#t,False,199,2,equal,ST1_high_5_a1,P = T2?,Same,1,1,high,96,1.42,132,0.85,96,1.09,No,unsure,cr,4.355880975723267,NA
215,1sy20#t,False,200,2,equal,ST2_high_5_a2,P = T2?,Same,2,2,high,96,1.36,132,0.97,132,0.84,Yes,sure,hit,2.1510488986968994,NA
216,1sy20#t,False,201,2,equal,ST2_low_2_a1,P = T1?,Same,2,1,low,132,1.04,82,1.62,82,1.51,No,unsure,cr,1.1181237697601318,NA
217,1sy20#t,False,202,2,equal,DT2_high_5_a2,P = T2?,Different,2,2,high,96,1.36,132,1.03,154,0.73,No,sure,miss,0.7796008586883545,NA
218,1sy20#t,False,203,2,equal,ST2_high_6_a2,P = T1?,Same,2,2,high,132,0.88,96,1.25,96,1.2,No,quiteSure,cr,0.8232038021087646,NA
219,1sy20#t,False,204,2,equal,ST1_high_6_a1,P = T1?,Same,1,1,high,132,1.0,96,1.35,132,0.89,Yes,sure,hit,0.8420059680938721,NA
220,1sy20#t,False,205,2,equal,ST1_high_1_a2,P = T1?,Same,1,2,high,82,1.25,112,1.13,82,1.29,No,unsure,miss,2.7341089248657227,NA
221,1sy20#t,False,206,2,equal,ST2_high_6_a1,P = T1?,Same,2,1,high,132,0.94,96,1.1,96,1.06,No,sure,cr,2.19606614112854,NA
222,1sy20#t,False,207,2,equal,ST2_low_4_a1,P = T1?,Same,2,1,low,112,1.1,70,1.6,70,1.62,No,quiteSure,cr,5.029806137084961,NA
223,1sy20#t,False,208,2,equal,ST1_low_1_a1,P = T2?,Same,1,1,low,82,1.59,132,0.92,82,1.4,No,quiteSure,cr,2.374520778656006,NA
224,1sy20#t,False,209,2,equal,ST2_low_6_a2,P = T1?,Same,2,2,low,154,0.81,96,1.32,96,1.26,No,quiteSure,cr,1.3618531227111816,NA
225,1sy20#t,False,210,2,equal,ST2_high_2_a1,P = T1?,Same,2,1,high,112,1.2,82,1.28,82,1.55,No,quiteSure,cr,2.0603580474853516,NA
226,1sy20#t,False,211,2,equal,ST1_low_4_a1,P = T1?,Same,1,1,low,112,0.97,70,1.63,112,1.16,Yes,sure,hit,0.6638751029968262,NA
227,1sy20#t,False,212,2,equal,STb_6_a2,P = T1?,Same,0,2,None,132,1.04,132,1.04,132,0.93,Yes,sure,hit,0.25748491287231445,NA
228,1sy20#t,False,213,2,equal,ST2_high_1_a2,P = T1?,Same,2,2,high,82,1.23,112,1.01,112,1.16,No,sure,cr,1.2672648429870605,NA
229,1sy20#t,False,214,2,equal,DT2_high_3_a1,P = T1?,Different,2,1,high,70,1.61,96,1.12,112,1.1,No,quiteSure,cr,5.026277780532837,NA
230,1sy20#t,False,215,2,equal,ST1_low_4_a1,P = T2?,Same,1,1,low,112,1.05,70,1.42,112,1.1,No,unsure,cr,1.6306307315826416,NA
231,1sy20#t,False,216,2,equal,ST1_high_1_a1,P = T1?,Same,1,1,high,82,1.52,112,1.16,82,1.44,Yes,quiteSure,hit,2.3972561359405518,NA
232,1sy20#t,False,217,2,equal,ST1_high_6_a1,P = T1?,Same,1,1,high,132,1.04,96,1.38,132,0.99,Yes,sure,hit,1.135166883468628,NA
233,1sy20#t,False,218,2,equal,ST1_low_5_a1,P = T2?,Same,1,1,low,96,1.17,154,0.83,96,1.26,No,sure,cr,0.8668358325958252,NA
234,1sy20#t,False,219,2,equal,ST1_low_6_a1,P = T2?,Same,1,1,low,154,0.82,96,1.42,154,0.92,No,sure,cr,0.8939659595489502,NA
235,1sy20#t,False,220,2,equal,ST1_high_4_a2,P = T1?,Same,1,2,high,96,1.31,70,1.69,96,1.32,Yes,unsure,hit,2.6193480491638184,NA
236,1sy20#t,False,221,2,equal,ST1_high_4_a2,P = T1?,Same,1,2,high,96,1.09,70,1.65,96,1.18,Yes,unsure,hit,1.0940937995910645,NA
237,1sy20#t,False,222,2,equal,ST2_high_5_a2,P = T2?,Same,2,2,high,96,1.09,132,1.0,132,1.05,Yes,sure,hit,1.1572327613830566,NA
238,1sy20#t,False,223,2,equal,ST1_low_6_a1,P = T2?,Same,1,1,low,154,0.77,96,1.09,154,0.74,No,sure,cr,1.6560750007629395,NA
239,1sy20#t,False,224,2,equal,ST2_high_3_a1,P = T2?,Same,2,1,high,70,1.66,96,1.07,96,1.3,Yes,quiteSure,hit,1.6762118339538574,NA
240,1sy20#t,False,225,2,equal,ST1_high_2_a2,P = T1?,Same,1,2,high,112,1.07,82,1.37,112,1.02,Yes,sure,hit,1.4302842617034912,NA
241,1sy20#t,False,226,2,equal,ST1_low_1_a2,P = T1?,Same,1,2,low,82,1.42,132,0.91,82,1.3,Yes,unsure,hit,1.1587679386138916,NA
242,1sy20#t,False,227,2,equal,ST1_low_2_a1,P = T2?,Same,1,1,low,132,0.98,82,1.5,132,0.96,No,sure,cr,1.0457861423492432,NA
243,1sy20#t,False,228,2,equal,ST2_low_3_a1,P = T2?,Same,2,1,low,70,1.54,112,1.05,112,1.16,Yes,quiteSure,hit,2.918018102645874,NA
244,1sy20#t,False,229,2,equal,ST2_low_2_a1,P = T1?,Same,2,1,low,132,0.85,82,1.51,82,1.6,No,quiteSure,cr,3.0490529537200928,NA
245,1sy20#t,False,230,2,equal,ST1_low_5_a1,P = T2?,Same,1,1,low,96,1.11,154,0.75,96,1.38,No,sure,cr,1.4056410789489746,NA
246,1sy20#t,False,231,2,equal,ST1_low_6_a1,P = T2?,Same,1,1,low,154,0.91,96,1.41,154,0.8,No,sure,cr,1.7680079936981201,NA
247,1sy20#t,False,232,2,equal,ST1_high_6_a1,P = T2?,Same,1,1,high,132,1.03,96,1.28,132,0.79,No,quiteSure,cr,0.7562041282653809,NA
248,1sy20#t,False,233,2,equal,ST2_low_3_a1,P = T2?,Same,2,1,low,70,1.72,112,1.04,112,0.99,Yes,sure,hit,0.892874002456665,NA
249,1sy20#t,False,234,2,equal,ST2_high_3_a1,P = T1?,Same,2,1,high,70,1.58,96,1.16,96,1.31,No,unsure,cr,0.7966020107269287,NA
250,1sy20#t,False,235,2,equal,ST2_low_2_a2,P = T2?,Same,2,2,low,132,0.88,82,1.62,82,1.31,Yes,sure,hit,0.9544210433959961,NA
251,1sy20#t,False,236,2,equal,ST2_high_1_a1,P = T1?,Same,2,1,high,82,1.59,112,1.07,112,0.93,No,unsure,cr,5.117244243621826,NA
252,1sy20#t,False,237,2,equal,ST1_high_1_a1,P = T1?,Same,1,1,high,82,1.43,112,1.22,82,1.24,Yes,quiteSure,hit,1.4528210163116455,NA
253,1sy20#t,False,238,2,equal,ST1_low_4_a1,P = T2?,Same,1,1,low,112,1.1,70,1.39,112,1.01,No,sure,cr,2.2586917877197266,NA
254,1sy20#t,False,239,2,equal,ST2_low_5_a2,P = T2?,Same,2,2,low,96,1.35,154,0.78,154,0.78,Yes,sure,hit,0.7327260971069336,NA
255,1sy20#t,False,240,2,equal,ST2_high_5_a2,P = T1?,Same,2,2,high,96,1.09,132,1.01,132,0.91,No,quiteSure,cr,4.717376947402954,NA
256,1sy20#t,False,241,2,equal,ST2_high_1_a2,P = T2?,Same,2,2,high,82,1.56,112,1.04,112,0.95,Yes,quiteSure,hit,4.265665054321289,NA
257,1sy20#t,False,242,2,equal,ST1_low_3_a2,P = T1?,Same,1,2,low,70,1.88,112,1.2,70,1.6,Yes,quiteSure,hit,1.253509283065796,NA
258,1sy20#t,False,243,2,equal,ST2_high_1_a2,P = T2?,Same,2,2,high,82,1.5,112,1.13,112,0.98,Yes,quiteSure,hit,3.4564309120178223,NA
259,1sy20#t,False,244,2,equal,ST1_high_4_a1,P = T1?,Same,1,1,high,96,1.12,70,1.39,96,1.28,No,quiteSure,miss,2.2157459259033203,NA
260,1sy20#t,False,245,2,equal,ST1_high_4_a2,P = T1?,Same,1,2,high,96,1.2,70,1.66,96,1.15,Yes,sure,hit,0.3718750476837158,NA
261,1sy20#t,False,246,2,equal,ST1_low_6_a2,P = T2?,Same,1,2,low,154,0.67,96,1.07,154,0.99,Yes,sure,fa,1.0904581546783447,NA
262,1sy20#t,False,247,2,equal,ST1_high_1_a2,P = T2?,Same,1,2,high,82,1.38,112,1.23,82,1.32,No,sure,cr,1.1107940673828125,NA
263,1sy20#t,False,248,2,equal,ST1_low_6_a1,P = T1?,Same,1,1,low,154,0.81,96,1.36,154,0.75,Yes,sure,hit,1.566396951675415,NA
264,1sy20#t,False,249,2,equal,ST1_low_3_a2,P = T1?,Same,1,2,low,70,1.57,112,1.11,70,1.43,Yes,quiteSure,hit,3.8585970401763916,NA
265,1sy20#t,False,250,2,equal,ST1_high_1_a1,P = T1?,Same,1,1,high,82,1.57,112,1.15,82,1.54,Yes,unsure,hit,7.687207221984863,NA
266,1sy20#t,False,251,2,equal,ST2_low_6_a1,P = T1?,Same,2,1,low,154,0.82,96,1.23,96,1.25,No,unsure,cr,1.5608458518981934,NA
267,1sy20#t,False,252,2,equal,STb_3_a2,P = T1?,Same,0,2,None,82,1.48,82,1.57,82,1.47,Yes,sure,hit,0.5351707935333252,NA
268,1sy20#t,False,253,2,equal,ST1_high_4_a2,P = T2?,Same,1,2,high,96,1.42,70,1.58,96,1.15,Yes,sure,fa,0.331157922744751,NA
269,1sy20#t,False,254,2,equal,ST1_high_4_a1,P = T2?,Same,1,1,high,96,1.14,70,1.57,96,1.34,Yes,sure,fa,0.2078690528869629,NA
270,1sy20#t,False,255,2,equal,ST2_low_5_a2,P = T1?,Same,2,2,low,96,1.2,154,0.91,154,0.9,Yes,sure,fa,1.024554967880249,NA
271,1sy20#t,False,256,2,equal,ST2_low_1_a1,P = T2?,Same,2,1,low,82,1.29,132,0.81,132,1.0,Yes,sure,hit,0.4390101432800293,NA
272,1sy20#t,False,257,2,equal,ST1_low_5_a1,P = T2?,Same,1,1,low,96,1.1,154,0.8,96,1.18,No,quiteSure,cr,1.5645461082458496,NA
273,1sy20#t,False,258,2,equal,ST2_high_1_a1,P = T2?,Same,2,1,high,82,1.46,112,1.03,112,0.91,Yes,sure,hit,0.9124329090118408,NA
274,1sy20#t,False,259,2,equal,ST1_low_5_a2,P = T2?,Same,1,2,low,96,1.28,154,0.91,96,1.25,No,sure,cr,1.186927080154419,NA
275,1sy20#t,False,260,2,equal,ST2_low_2_a2,P = T1?,Same,2,2,low,132,0.92,82,1.36,82,1.41,Yes,quiteSure,fa,3.862210988998413,NA
276,1sy20#t,False,261,2,equal,ST1_high_4_a1,P = T2?,Same,1,1,high,96,1.25,70,1.69,96,1.32,Yes,quiteSure,fa,1.7692480087280273,NA
277,1sy20#t,False,262,2,equal,ST1_high_3_a1,P = T1?,Same,1,1,high,70,1.41,96,1.16,70,1.82,Yes,quiteSure,hit,1.3836040496826172,NA
278,1sy20#t,False,263,2,equal,ST1_low_2_a2,P = T1?,Same,1,2,low,132,0.81,82,1.44,132,0.96,Yes,quiteSure,hit,2.9380297660827637,NA
279,1sy20#t,False,264,2,equal,ST2_low_5_a1,P = T2?,Same,2,1,low,96,1.13,154,0.9,154,0.73,Yes,sure,hit,1.7420201301574707,NA
280,1sy20#t,False,265,2,equal,ST2_high_3_a2,P = T2?,Same,2,2,high,70,1.66,96,1.09,96,1.07,Yes,sure,hit,1.094696044921875,NA
281,1sy20#t,False,266,2,equal,ST2_low_1_a1,P = T1?,Same,2,1,low,82,1.52,132,0.97,132,1.01,No,sure,cr,1.1117238998413086,NA
282,1sy20#t,False,267,2,equal,ST2_high_5_a1,P = T1?,Same,2,1,high,96,1.22,132,0.97,132,0.9,No,sure,cr,1.3621711730957031,NA
283,1sy20#t,False,268,2,equal,ST2_low_1_a2,P = T1?,Same,2,2,low,82,1.6,132,0.97,132,0.81,No,quiteSure,cr,5.589085102081299,NA
284,1sy20#t,False,269,2,equal,ST1_low_3_a1,P = T1?,Same,1,1,low,70,1.41,112,1.23,70,1.82,Yes,sure,hit,1.7002382278442383,NA
285,1sy20#t,False,270,2,equal,ST2_high_2_a1,P = T1?,Same,2,1,high,112,1.23,82,1.39,82,1.63,No,unsure,cr,3.161987066268921,NA
286,1sy20#t,False,271,2,equal,DT2_high_2_a1,P = T1?,Different,2,1,high,112,1.02,82,1.63,70,1.7,No,quiteSure,cr,1.406378984451294,NA
287,1sy20#t,False,272,2,equal,ST2_low_1_a2,P = T2?,Same,2,2,low,82,1.29,132,0.9,132,0.84,Yes,quiteSure,hit,5.88438081741333,NA
288,1sy20#t,False,273,2,equal,ST1_high_3_a1,P = T1?,Same,1,1,high,70,1.46,96,1.34,70,1.56,Yes,sure,hit,0.5301840305328369,NA
289,1sy20#t,False,274,2,equal,ST1_low_2_a2,P = T2?,Same,1,2,low,132,0.95,82,1.43,132,0.91,No,sure,cr,1.7436659336090088,NA
290,1sy20#t,False,275,2,equal,ST1_low_4_a1,P = T2?,Same,1,1,low,112,1.14,70,1.63,112,1.1,No,sure,cr,0.9321727752685547,NA
291,1sy20#t,False,276,2,equal,ST2_high_3_a2,P = T2?,Same,2,2,high,70,1.7,96,1.2,96,1.37,Yes,unsure,hit,2.460176706314087,NA
292,1sy20#t,False,277,2,equal,STb_1_a2,P = T1?,Same,0,2,None,60,1.51,60,1.89,60,1.69,Yes,unsure,hit,1.836719036102295,NA
293,1sy20#t,False,278,2,equal,ST2_low_1_a2,P = T2?,Same,2,2,low,82,1.42,132,1.02,132,0.95,Yes,sure,hit,4.376252889633179,NA
294,1sy20#t,False,279,2,equal,ST1_high_2_a1,P = T1?,Same,1,1,high,112,0.93,82,1.21,112,0.96,Yes,sure,hit,0.686290979385376,NA
295,1sy20#t,False,280,2,equal,ST1_low_2_a1,P = T2?,Same,1,1,low,132,0.87,82,1.41,132,0.81,Yes,sure,fa,0.7317259311676025,NA
296,1sy20#t,False,281,2,equal,ST2_low_3_a2,P = T2?,Same,2,2,low,70,1.83,112,1.1,112,1.01,Yes,sure,hit,0.6463890075683594,NA
297,1sy20#t,False,282,2,equal,ST1_low_4_a2,P = T2?,Same,1,2,low,112,1.22,70,1.46,112,0.92,No,quiteSure,cr,1.2921907901763916,NA
298,1sy20#t,False,283,2,equal,ST2_low_3_a2,P = T1?,Same,2,2,low,70,1.73,112,1.15,112,0.98,Yes,quiteSure,fa,2.128926992416382,NA
299,1sy20#t,False,284,2,equal,ST2_high_5_a1,P = T2?,Same,2,1,high,96,1.34,132,1.01,132,0.83,Yes,sure,hit,0.28276491165161133,NA
300,1sy20#t,False,285,2,equal,ST2_low_6_a2,P = T1?,Same,2,2,low,154,0.79,96,1.09,96,1.4,No,unsure,cr,1.7914619445800781,NA
301,1sy20#t,False,286,2,equal,ST2_low_4_a2,P = T1?,Same,2,2,low,112,0.97,70,1.66,70,1.85,No,unsure,cr,4.734247922897339,NA
302,1sy20#t,False,287,2,equal,ST2_low_6_a1,P = T1?,Same,2,1,low,154,0.81,96,1.41,96,1.25,No,unsure,cr,1.929034948348999,NA
303,1sy20#t,False,288,2,equal,ST2_low_5_a1,P = T1?,Same,2,1,low,96,1.09,154,0.91,154,0.91,No,sure,cr,1.2720351219177246,NA
304,1sy20#t,False,289,2,equal,ST1_low_6_a1,P = T1?,Same,1,1,low,154,0.87,96,1.28,154,0.91,Yes,sure,hit,0.7358739376068115,NA
305,1sy20#t,False,290,2,equal,ST2_high_4_a2,P = T1?,Same,2,2,high,96,1.22,70,1.41,70,1.48,Yes,unsure,fa,5.054465055465698,NA
306,1sy20#t,False,291,2,equal,ST2_high_1_a1,P = T2?,Same,2,1,high,82,1.6,112,1.08,112,1.0,Yes,sure,hit,1.8147919178009033,NA
307,1sy20#t,False,292,2,equal,ST1_low_3_a1,P = T1?,Same,1,1,low,70,1.49,112,1.02,70,1.38,Yes,quiteSure,hit,5.5919411182403564,NA
308,1sy20#t,False,293,2,equal,ST1_low_2_a1,P = T2?,Same,1,1,low,132,0.88,82,1.42,132,0.82,Yes,unsure,fa,4.5765540599823,NA
309,1sy20#t,False,294,2,equal,ST2_low_5_a1,P = T2?,Same,2,1,low,96,1.38,154,0.78,154,0.85,Yes,sure,hit,1.0487308502197266,NA
310,1sy20#t,False,295,2,equal,ST2_high_5_a1,P = T1?,Same,2,1,high,96,1.35,132,0.84,132,0.97,No,quiteSure,cr,4.5149900913238525,NA
311,1sy20#t,False,296,2,equal,ST2_high_6_a1,P = T1?,Same,2,1,high,132,0.99,96,1.3,96,1.37,No,quiteSure,cr,2.0589699745178223,NA
312,1sy20#t,False,297,2,equal,ST1_high_2_a2,P = T1?,Same,1,2,high,112,1.21,82,1.6,112,0.99,Yes,quiteSure,hit,1.1574618816375732,NA
313,1sy20#t,False,298,2,equal,ST2_low_2_a2,P = T1?,Same,2,2,low,132,0.93,82,1.26,82,1.48,No,quiteSure,cr,2.487196922302246,NA
314,1sy20#t,False,299,2,equal,ST2_high_2_a2,P = T2?,Same,2,2,high,112,0.96,82,1.54,82,1.13,Yes,sure,hit,2.128983736038208,NA
315,1sy20#t,False,300,2,equal,ST1_low_1_a2,P = T1?,Same,1,2,low,82,1.43,132,1.0,82,1.6,Yes,quiteSure,hit,0.8215210437774658,NA
316,1sy20#t,False,301,2,equal,ST2_high_6_a1,P = T2?,Same,2,1,high,132,0.88,96,1.26,96,1.22,Yes,sure,hit,1.6568479537963867,NA
317,1sy20#t,False,302,2,equal,ST2_high_4_a2,P = T2?,Same,2,2,high,96,1.19,70,1.52,70,1.69,Yes,quiteSure,hit,1.7644400596618652,NA
318,1sy20#t,False,303,2,equal,ST2_high_6_a2,P = T2?,Same,2,2,high,132,0.88,96,1.39,96,1.19,Yes,quiteSure,hit,1.3135168552398682,NA
319,1sy20#t,False,304,2,equal,ST1_high_2_a1,P = T1?,Same,1,1,high,112,1.13,82,1.47,112,1.08,Yes,sure,hit,0.5500409603118896,NA
320,1sy20#t,False,305,2,equal,ST2_high_4_a2,P = T2?,Same,2,2,high,96,1.3,70,1.55,70,1.48,Yes,sure,hit,0.5483651161193848,NA
321,1sy20#t,False,306,2,equal,ST2_low_4_a2,P = T1?,Same,2,2,low,112,1.21,70,1.39,70,1.67,No,quiteSure,cr,1.4985370635986328,NA
322,1sy20#t,False,307,2,equal,ST2_high_5_a1,P = T2?,Same,2,1,high,96,1.14,132,0.95,132,0.92,Yes,sure,hit,1.4488470554351807,NA
323,1sy20#t,False,308,2,equal,ST2_low_1_a1,P = T2?,Same,2,1,low,82,1.3,132,0.93,132,1.04,Yes,sure,hit,3.093999147415161,NA
324,1sy20#t,False,309,2,equal,ST2_high_4_a1,P = T1?,Same,2,1,high,96,1.12,70,1.37,70,1.62,No,unsure,cr,4.12746000289917,NA
325,1sy20#t,False,310,2,equal,ST2_low_6_a1,P = T2?,Same,2,1,low,154,0.95,96,1.09,96,1.18,Yes,sure,hit,1.0072760581970215,NA
326,1sy20#t,False,311,2,equal,ST1_low_5_a2,P = T2?,Same,1,2,low,96,1.17,154,0.77,96,1.14,No,sure,cr,3.4061760902404785,NA
327,1sy20#t,False,312,2,equal,ST2_high_3_a2,P = T1?,Same,2,2,high,70,1.54,96,1.08,96,1.13,No,quiteSure,cr,2.3521528244018555,NA
328,1sy20#t,False,313,2,equal,ST1_high_4_a2,P = T2?,Same,1,2,high,96,1.08,70,1.56,96,1.07,No,quiteSure,cr,1.3428242206573486,NA
329,1sy20#t,False,314,2,equal,ST1_high_6_a2,P = T1?,Same,1,2,high,132,1.04,96,1.18,132,1.0,Yes,sure,hit,1.2918379306793213,NA
330,1sy20#t,False,315,2,equal,ST2_high_3_a2,P = T1?,Same,2,2,high,70,1.65,96,1.29,96,1.1,No,unsure,cr,3.0364532470703125,NA
331,1sy20#t,False,316,2,equal,ST1_high_6_a1,P = T2?,Same,1,1,high,132,0.98,96,1.07,132,0.82,No,sure,cr,2.208043098449707,NA
332,1sy20#t,False,317,2,equal,ST2_high_1_a1,P = T2?,Same,2,1,high,82,1.29,112,1.18,112,1.0,Yes,sure,hit,0.7149181365966797,NA
333,1sy20#t,False,318,2,equal,ST1_high_5_a1,P = T1?,Same,1,1,high,96,1.16,132,0.88,96,1.4,No,unsure,miss,1.9546358585357666,NA
334,1sy20#t,False,319,2,equal,ST1_high_4_a1,P = T2?,Same,1,1,high,96,1.19,70,1.68,96,1.19,No,unsure,cr,1.9384660720825195,NA
335,1sy20#t,False,320,2,equal,ST1_high_5_a2,P = T2?,Same,1,2,high,96,1.37,132,0.8,96,1.21,Yes,unsure,fa,2.5919668674468994,0.5
