,pcode,practice,trial,block,questionType,condition,question,PTS,TargetPosition,AccessoryPosition,TNS,T1_hz,T1_amp,T2_hz,T2_amp,P_hz,P_amp,response_dicho,response_rating,response_sdt,rt,P_correct
0,58!k7lr,True,1,1,equal,ST2_low_1_a2,P = T2?,Same,2,2,low,82,1.48,132,0.94,132,0.96,Yes,sure,hit,2.4302120208740234,NA
1,58!k7lr,True,2,1,equal,DT2_high_2_a2,P = T2?,Different,2,2,high,112,0.94,82,1.31,70,1.39,Yes,unsure,hit,10.624022006988525,NA
2,58!k7lr,True,3,1,equal,DT1_low_6_a1,P = T2?,Different,1,1,low,154,0.74,96,1.11,180,0.83,No,sure,cr,1.6402900218963623,NA
3,58!k7lr,True,4,1,equal,DT1_high_2_a2,P = T1?,Different,1,2,high,112,1.07,82,1.26,132,0.88,Yes,unsure,hit,2.117724895477295,NA
4,58!k7lr,True,5,1,equal,STb_7_a1,P = T2?,Same,0,1,None,154,0.91,154,0.78,154,0.77,Yes,unsure,hit,2.3072891235351562,NA
5,58!k7lr,True,6,1,equal,STb_6_a2,P = T1?,Same,0,2,None,132,0.87,132,0.8,132,0.86,Yes,unsure,hit,1.7098631858825684,NA
6,58!k7lr,True,7,1,equal,DT2_high_2_a2,P = T1?,Different,2,2,high,112,1.07,82,1.23,70,1.48,No,sure,cr,1.5969178676605225,NA
7,58!k7lr,True,8,1,equal,ST2_high_3_a2,P = T1?,Same,2,2,high,70,1.69,96,0.98,96,1.53,Yes,unsure,fa,1.779442310333252,NA
8,58!k7lr,True,9,1,equal,STb_5_a1,P = T1?,Same,0,1,None,112,1.09,112,1.08,112,1.0,Yes,quiteSure,hit,1.9602959156036377,NA
9,58!k7lr,True,10,1,equal,ST2_low_3_a1,P = T1?,Same,2,1,low,70,1.32,112,1.15,112,1.29,No,unsure,cr,1.824826717376709,NA
10,58!k7lr,True,11,1,equal,ST1_high_2_a1,P = T1?,Same,1,1,high,112,0.98,82,1.41,112,1.23,Yes,unsure,hit,2.4764652252197266,NA
11,58!k7lr,True,12,1,equal,ST1_high_2_a1,P = T2?,Same,1,1,high,112,0.85,82,1.26,112,0.95,No,unsure,cr,3.1707568168640137,NA
12,58!k7lr,True,13,1,equal,ST1_high_1_a2,P = T2?,Same,1,2,high,82,1.4,112,1.0,82,1.31,No,unsure,cr,1.3513579368591309,NA
13,58!k7lr,True,14,1,equal,ST2_high_1_a1,P = T2?,Same,2,1,high,82,1.6,112,1.13,112,1.09,Yes,quiteSure,hit,1.6198608875274658,NA
14,58!k7lr,True,15,1,equal,STb_2_a2,P = T2?,Same,0,2,None,70,1.96,70,1.69,70,1.39,Yes,sure,hit,1.2157046794891357,NA
15,58!k7lr,True,16,1,equal,ST1_high_4_a1,P = T1?,Same,1,1,high,96,1.48,70,1.47,96,1.55,Yes,unsure,hit,1.4192759990692139,0.875
16,58!k7lr,False,1,1,equal,ST2_high_1_a2,P = T1?,Same,2,2,high,82,1.59,112,1.15,112,1.15,Yes,unsure,fa,3.508571147918701,NA
17,58!k7lr,False,2,1,equal,ST1_high_6_a1,P = T2?,Same,1,1,high,132,0.9,96,1.36,132,0.99,Yes,sure,fa,2.9444820880889893,NA
18,58!k7lr,False,3,1,equal,ST2_low_3_a1,P = T2?,Same,2,1,low,70,1.48,112,1.13,112,1.19,Yes,unsure,hit,1.7129101753234863,NA
19,58!k7lr,False,4,1,equal,ST2_low_5_a2,P = T1?,Same,2,2,low,96,1.34,154,0.91,154,0.89,No,sure,cr,4.2515709400177,NA
20,58!k7lr,False,5,1,equal,ST2_low_4_a2,P = T1?,Same,2,2,low,112,0.97,70,1.68,70,1.83,No,sure,cr,1.4182889461517334,NA
21,58!k7lr,False,6,1,equal,ST1_low_5_a2,P = T2?,Same,1,2,low,96,1.16,154,0.78,96,1.21,No,unsure,cr,1.8007051944732666,NA
22,58!k7lr,False,7,1,equal,ST1_low_4_a1,P = T1?,Same,1,1,low,112,1.05,70,1.52,112,1.18,Yes,quiteSure,hit,1.444444179534912,NA
23,58!k7lr,False,8,1,equal,ST2_high_5_a2,P = T2?,Same,2,2,high,96,1.34,132,0.92,132,0.85,No,quiteSure,miss,1.3291730880737305,NA
24,58!k7lr,False,9,1,equal,ST2_low_3_a2,P = T2?,Same,2,2,low,70,1.47,112,1.18,112,1.16,No,unsure,miss,1.708935260772705,NA
25,58!k7lr,False,10,1,equal,ST2_high_6_a2,P = T2?,Same,2,2,high,132,0.83,96,1.38,96,1.14,Yes,sure,hit,1.5738441944122314,NA
26,58!k7lr,False,11,1,equal,ST1_high_3_a1,P = T2?,Same,1,1,high,70,1.71,96,1.36,70,1.55,No,sure,cr,1.3461089134216309,NA
27,58!k7lr,False,12,1,equal,ST2_low_6_a2,P = T2?,Same,2,2,low,154,0.87,96,1.33,96,1.1,Yes,sure,hit,1.8226499557495117,NA
28,58!k7lr,False,13,1,equal,ST2_high_4_a2,P = T1?,Same,2,2,high,96,1.36,70,1.47,70,1.62,No,sure,cr,1.211371898651123,NA
29,58!k7lr,False,14,1,equal,ST1_low_3_a1,P = T2?,Same,1,1,low,70,1.5,112,1.22,70,1.52,No,sure,cr,1.1240990161895752,NA
30,58!k7lr,False,15,1,equal,ST1_high_5_a1,P = T1?,Same,1,1,high,96,1.08,132,0.93,96,1.22,Yes,sure,hit,1.4397408962249756,NA
31,58!k7lr,False,16,1,equal,ST2_high_4_a1,P = T1?,Same,2,1,high,96,1.11,70,1.63,70,1.38,No,sure,cr,1.2793338298797607,NA
32,58!k7lr,False,17,1,equal,ST1_low_2_a1,P = T1?,Same,1,1,low,132,1.03,82,1.6,132,0.97,Yes,sure,hit,1.6916089057922363,NA
33,58!k7lr,False,18,1,equal,ST1_low_5_a1,P = T2?,Same,1,1,low,96,1.19,154,0.78,96,1.32,No,sure,cr,1.1511569023132324,NA
34,58!k7lr,False,19,1,equal,ST2_low_6_a2,P = T1?,Same,2,2,low,154,0.89,96,1.16,96,1.19,No,unsure,cr,1.7539889812469482,NA
35,58!k7lr,False,20,1,equal,ST2_high_4_a2,P = T1?,Same,2,2,high,96,1.07,70,1.77,70,1.85,No,sure,cr,1.4458670616149902,NA
36,58!k7lr,False,21,1,equal,ST2_low_2_a1,P = T1?,Same,2,1,low,132,0.93,82,1.44,82,1.31,No,sure,cr,1.639573097229004,NA
37,58!k7lr,False,22,1,equal,ST2_low_2_a1,P = T2?,Same,2,1,low,132,0.99,82,1.46,82,1.25,Yes,sure,hit,1.7550230026245117,NA
38,58!k7lr,False,23,1,equal,ST1_low_4_a2,P = T1?,Same,1,2,low,112,0.97,70,1.55,112,1.03,Yes,quiteSure,hit,1.5992472171783447,NA
39,58!k7lr,False,24,1,equal,ST1_high_1_a2,P = T2?,Same,1,2,high,82,1.4,112,1.0,82,1.31,No,sure,cr,1.1695008277893066,NA
40,58!k7lr,False,25,1,equal,ST2_low_2_a1,P = T1?,Same,2,1,low,132,1.06,82,1.42,82,1.25,No,sure,cr,1.0629708766937256,NA
41,58!k7lr,False,26,1,equal,STb_5_a1,P = T1?,Same,0,1,None,112,1.09,112,1.08,112,1.0,No,sure,miss,1.8863098621368408,NA
42,58!k7lr,False,27,1,equal,DT2_low_3_a1,P = T1?,Different,2,1,low,70,1.55,112,1.11,132,0.87,No,sure,cr,1.4408230781555176,NA
43,58!k7lr,False,28,1,equal,ST1_high_2_a2,P = T2?,Same,1,2,high,112,1.1,82,1.59,112,0.96,Yes,unsure,fa,1.8050570487976074,NA
44,58!k7lr,False,29,1,equal,STb_2_a2,P = T2?,Same,0,2,None,70,1.96,70,1.69,70,1.39,Yes,quiteSure,hit,1.4849860668182373,NA
45,58!k7lr,False,30,1,equal,ST1_high_3_a1,P = T2?,Same,1,1,high,70,1.43,96,1.2,70,1.51,No,unsure,cr,1.1220030784606934,NA
46,58!k7lr,False,31,1,equal,ST1_high_6_a2,P = T2?,Same,1,2,high,132,0.87,96,1.27,132,0.81,Yes,unsure,fa,3.4642081260681152,NA
47,58!k7lr,False,32,1,equal,ST2_low_3_a2,P = T2?,Same,2,2,low,70,1.64,112,1.11,112,1.13,Yes,sure,hit,1.574052095413208,NA
48,58!k7lr,False,33,1,equal,ST2_high_6_a2,P = T1?,Same,2,2,high,132,0.8,96,1.06,96,1.18,Yes,sure,fa,1.8240272998809814,NA
49,58!k7lr,False,34,1,equal,ST1_low_3_a1,P = T1?,Same,1,1,low,70,1.58,112,1.23,70,1.47,Yes,unsure,hit,2.2503092288970947,NA
50,58!k7lr,False,35,1,equal,ST1_high_3_a1,P = T1?,Same,1,1,high,70,1.82,96,1.33,70,1.75,Yes,sure,hit,1.1714329719543457,NA
51,58!k7lr,False,36,1,equal,ST2_low_1_a1,P = T2?,Same,2,1,low,82,1.4,132,0.83,132,0.93,Yes,quiteSure,hit,1.5537002086639404,NA
52,58!k7lr,False,37,1,equal,ST1_high_2_a2,P = T1?,Same,1,2,high,112,1.14,82,1.21,112,1.02,Yes,sure,hit,1.0360760688781738,NA
53,58!k7lr,False,38,1,equal,ST2_high_1_a1,P = T1?,Same,2,1,high,82,1.62,112,1.06,112,1.23,Yes,unsure,fa,2.072176933288574,NA
54,58!k7lr,False,39,1,equal,ST1_low_2_a1,P = T1?,Same,1,1,low,132,0.83,82,1.27,132,0.93,Yes,sure,hit,1.1443829536437988,NA
55,58!k7lr,False,40,1,equal,ST2_high_2_a2,P = T2?,Same,2,2,high,112,1.03,82,1.5,82,1.31,Yes,sure,hit,1.168997049331665,NA
56,58!k7lr,False,41,1,equal,ST1_low_2_a1,P = T2?,Same,1,1,low,132,1.05,82,1.5,132,1.0,No,sure,cr,1.4231300354003906,NA
57,58!k7lr,False,42,1,equal,ST1_low_5_a2,P = T2?,Same,1,2,low,96,1.26,154,0.85,96,1.2,No,sure,cr,1.170982837677002,NA
58,58!k7lr,False,43,1,equal,ST1_low_2_a2,P = T1?,Same,1,2,low,132,0.89,82,1.53,132,0.83,Yes,sure,hit,1.1000990867614746,NA
59,58!k7lr,False,44,1,equal,ST1_low_1_a2,P = T1?,Same,1,2,low,82,1.24,132,0.83,82,1.58,Yes,unsure,hit,2.837283134460449,NA
60,58!k7lr,False,45,1,equal,DT1_high_5_a1,P = T2?,Different,1,1,high,96,1.12,132,1.05,82,1.6,No,sure,cr,1.1464970111846924,NA
61,58!k7lr,False,46,1,equal,ST2_low_6_a2,P = T1?,Same,2,2,low,154,0.76,96,1.27,96,1.12,No,sure,cr,1.5985937118530273,NA
62,58!k7lr,False,47,1,equal,STb_5_a2,P = T2?,Same,0,2,None,112,1.02,112,1.16,112,0.94,No,unsure,miss,1.1707708835601807,NA
63,58!k7lr,False,48,1,equal,ST1_low_3_a1,P = T2?,Same,1,1,low,70,1.45,112,0.93,70,1.42,No,sure,cr,1.1064579486846924,NA
64,58!k7lr,False,49,1,equal,STb_6_a2,P = T1?,Same,0,2,None,132,0.87,132,0.8,132,0.86,Yes,sure,hit,1.1031482219696045,NA
65,58!k7lr,False,50,1,equal,ST1_low_1_a2,P = T2?,Same,1,2,low,82,1.55,132,1.01,82,1.63,No,sure,cr,1.1482069492340088,NA
66,58!k7lr,False,51,1,equal,ST1_low_5_a2,P = T1?,Same,1,2,low,96,1.1,154,0.75,96,1.32,Yes,sure,hit,1.4643757343292236,NA
67,58!k7lr,False,52,1,equal,ST1_low_6_a2,P = T1?,Same,1,2,low,154,0.89,96,1.32,154,0.73,Yes,quiteSure,hit,1.1705689430236816,NA
68,58!k7lr,False,53,1,equal,ST1_low_5_a1,P = T2?,Same,1,1,low,96,1.08,154,0.73,96,1.18,No,sure,cr,1.8908557891845703,NA
69,58!k7lr,False,54,1,equal,ST2_low_1_a2,P = T2?,Same,2,2,low,82,1.26,132,1.04,132,0.87,No,unsure,miss,3.9389607906341553,NA
70,58!k7lr,False,55,1,equal,DT1_low_6_a1,P = T2?,Different,1,1,low,154,0.74,96,1.11,180,0.83,No,sure,cr,1.2605440616607666,NA
71,58!k7lr,False,56,1,equal,ST1_high_5_a2,P = T1?,Same,1,2,high,96,1.38,132,0.8,96,1.09,Yes,quiteSure,hit,1.2657709121704102,NA
72,58!k7lr,False,57,1,equal,ST1_high_5_a2,P = T1?,Same,1,2,high,96,1.25,132,1.02,96,1.24,Yes,sure,hit,1.0573079586029053,NA
73,58!k7lr,False,58,1,equal,ST2_high_2_a1,P = T1?,Same,2,1,high,112,1.03,82,1.54,82,1.29,No,sure,cr,1.1239359378814697,NA
74,58!k7lr,False,59,1,equal,ST1_low_1_a1,P = T1?,Same,1,1,low,82,1.31,132,0.97,82,1.28,Yes,sure,hit,1.1923470497131348,NA
75,58!k7lr,False,60,1,equal,ST2_high_5_a1,P = T2?,Same,2,1,high,96,1.17,132,1.03,132,0.96,Yes,sure,hit,1.3737080097198486,NA
76,58!k7lr,False,61,1,equal,ST2_low_3_a2,P = T2?,Same,2,2,low,70,1.79,112,1.18,112,1.1,Yes,sure,hit,1.8635509014129639,NA
77,58!k7lr,False,62,1,equal,STb_2_a2,P = T1?,Same,0,2,None,70,1.84,70,1.76,70,1.58,Yes,sure,hit,1.305189847946167,NA
78,58!k7lr,False,63,1,equal,ST2_high_3_a2,P = T2?,Same,2,2,high,70,1.37,96,1.22,96,1.18,Yes,sure,hit,1.2828319072723389,NA
79,58!k7lr,False,64,1,equal,ST1_low_6_a1,P = T2?,Same,1,1,low,154,0.83,96,1.39,154,0.94,No,sure,cr,2.8129467964172363,NA
80,58!k7lr,False,65,1,equal,ST2_high_2_a1,P = T2?,Same,2,1,high,112,1.16,82,1.35,82,1.61,Yes,sure,hit,1.5302293300628662,NA
81,58!k7lr,False,66,1,equal,ST2_high_4_a1,P = T1?,Same,2,1,high,96,1.12,70,1.49,70,1.83,No,unsure,cr,1.2183122634887695,NA
82,58!k7lr,False,67,1,equal,ST2_low_3_a2,P = T1?,Same,2,2,low,70,1.71,112,1.19,112,1.11,No,sure,cr,1.1725859642028809,NA
83,58!k7lr,False,68,1,equal,ST1_low_4_a2,P = T2?,Same,1,2,low,112,1.04,70,1.38,112,0.98,No,sure,cr,1.127720832824707,NA
84,58!k7lr,False,69,1,equal,ST2_low_3_a1,P = T1?,Same,2,1,low,70,1.68,112,0.93,112,1.21,No,unsure,cr,1.8927550315856934,NA
85,58!k7lr,False,70,1,equal,ST1_high_1_a1,P = T1?,Same,1,1,high,82,1.25,112,1.12,82,1.61,Yes,unsure,hit,3.6238889694213867,NA
86,58!k7lr,False,71,1,equal,ST1_high_1_a2,P = T2?,Same,1,2,high,82,1.53,112,1.09,82,1.26,No,sure,cr,1.5748951435089111,NA
87,58!k7lr,False,72,1,equal,ST2_high_5_a2,P = T1?,Same,2,2,high,96,1.1,132,0.91,132,1.04,No,sure,cr,1.0769948959350586,NA
88,58!k7lr,False,73,1,equal,ST1_high_5_a1,P = T2?,Same,1,1,high,96,1.14,132,1.03,96,1.27,No,sure,cr,1.0986130237579346,NA
89,58!k7lr,False,74,1,equal,ST2_low_2_a2,P = T2?,Same,2,2,low,132,1.04,82,1.42,82,1.46,Yes,sure,hit,1.5294320583343506,NA
90,58!k7lr,False,75,1,equal,ST2_high_6_a2,P = T1?,Same,2,2,high,132,0.92,96,1.12,96,1.1,No,quiteSure,cr,1.2816801071166992,NA
91,58!k7lr,False,76,1,equal,ST2_low_5_a1,P = T1?,Same,2,1,low,96,1.37,154,0.94,154,0.9,No,sure,cr,1.1920080184936523,NA
92,58!k7lr,False,77,1,equal,ST1_high_1_a1,P = T2?,Same,1,1,high,82,1.23,112,1.15,82,1.4,No,sure,cr,1.074218988418579,NA
93,58!k7lr,False,78,1,equal,ST1_high_4_a2,P = T2?,Same,1,2,high,96,1.24,70,1.61,96,1.2,No,unsure,cr,1.75264310836792,NA
94,58!k7lr,False,79,1,equal,ST1_high_5_a1,P = T2?,Same,1,1,high,96,1.25,132,0.99,96,1.1,No,sure,cr,1.8293230533599854,NA
95,58!k7lr,False,80,1,equal,ST1_high_3_a2,P = T2?,Same,1,2,high,70,1.8,96,1.24,70,1.54,No,sure,cr,1.0792229175567627,NA
96,58!k7lr,False,81,1,equal,ST1_low_4_a1,P = T2?,Same,1,1,low,112,1.03,70,1.46,112,1.03,Yes,unsure,fa,7.561605215072632,NA
97,58!k7lr,False,82,1,equal,ST1_low_6_a1,P = T1?,Same,1,1,low,154,0.84,96,1.1,154,0.87,Yes,sure,hit,1.3494329452514648,NA
98,58!k7lr,False,83,1,equal,ST2_high_6_a2,P = T2?,Same,2,2,high,132,0.89,96,1.22,96,1.3,Yes,sure,hit,2.2285609245300293,NA
99,58!k7lr,False,84,1,equal,ST2_high_6_a1,P = T2?,Same,2,1,high,132,0.98,96,1.09,96,1.22,Yes,sure,hit,3.4166500568389893,NA
100,58!k7lr,False,85,1,equal,ST1_high_2_a1,P = T1?,Same,1,1,high,112,0.98,82,1.41,112,1.23,Yes,quiteSure,hit,1.280153751373291,NA
101,58!k7lr,False,86,1,equal,ST1_high_5_a1,P = T1?,Same,1,1,high,96,1.29,132,0.86,96,1.12,Yes,unsure,hit,2.563991069793701,NA
102,58!k7lr,False,87,1,equal,DT1_low_2_a1,P = T1?,Different,1,1,low,132,0.94,82,1.22,154,0.93,No,unsure,miss,2.4512081146240234,NA
103,58!k7lr,False,88,1,equal,ST2_low_1_a2,P = T2?,Same,2,2,low,82,1.48,132,0.94,132,0.96,Yes,sure,hit,2.117903709411621,NA
104,58!k7lr,False,89,1,equal,ST2_low_1_a2,P = T2?,Same,2,2,low,82,1.37,132,0.94,132,0.94,Yes,quiteSure,hit,1.483780860900879,NA
105,58!k7lr,False,90,1,equal,ST2_low_5_a1,P = T1?,Same,2,1,low,96,1.25,154,0.78,154,0.9,No,sure,cr,1.1437749862670898,NA
106,58!k7lr,False,91,1,equal,STb_8_a1,P = T1?,Same,0,1,None,180,0.94,180,0.87,180,0.74,Yes,sure,hit,1.0442509651184082,NA
107,58!k7lr,False,92,1,equal,ST2_high_3_a2,P = T1?,Same,2,2,high,70,1.69,96,0.98,96,1.53,No,unsure,cr,1.3188669681549072,NA
108,58!k7lr,False,93,1,equal,ST1_high_3_a2,P = T1?,Same,1,2,high,70,1.66,96,1.42,70,1.84,Yes,sure,hit,1.4659671783447266,NA
109,58!k7lr,False,94,1,equal,ST2_low_6_a1,P = T2?,Same,2,1,low,154,0.93,96,1.36,96,1.09,Yes,sure,hit,1.36820387840271,NA
110,58!k7lr,False,95,1,equal,ST2_high_5_a2,P = T2?,Same,2,2,high,96,1.09,132,0.92,132,0.85,Yes,sure,hit,1.8204538822174072,NA
111,58!k7lr,False,96,1,equal,ST1_low_1_a1,P = T2?,Same,1,1,low,82,1.52,132,1.05,82,1.35,No,sure,cr,1.5059888362884521,NA
112,58!k7lr,False,97,1,equal,ST2_high_4_a2,P = T2?,Same,2,2,high,96,1.38,70,1.73,70,1.56,Yes,sure,hit,2.7013089656829834,NA
113,58!k7lr,False,98,1,equal,ST1_low_4_a1,P = T1?,Same,1,1,low,112,1.2,70,1.78,112,0.93,Yes,unsure,hit,1.6610438823699951,NA
114,58!k7lr,False,99,1,equal,ST1_low_6_a1,P = T2?,Same,1,1,low,154,0.73,96,1.37,154,0.72,No,unsure,cr,1.4838740825653076,NA
115,58!k7lr,False,100,1,equal,ST2_high_6_a1,P = T1?,Same,2,1,high,132,0.96,96,1.17,96,1.27,No,unsure,cr,1.3739838600158691,NA
116,58!k7lr,False,101,1,equal,ST1_high_6_a1,P = T1?,Same,1,1,high,132,0.94,96,1.31,132,1.04,Yes,sure,hit,1.2130622863769531,NA
117,58!k7lr,False,102,1,equal,STb_3_a1,P = T1?,Same,0,1,None,82,1.58,82,1.36,82,1.56,No,quiteSure,miss,1.191107988357544,NA
118,58!k7lr,False,103,1,equal,ST2_low_4_a1,P = T2?,Same,2,1,low,112,1.23,70,1.78,70,1.68,Yes,sure,hit,1.4820468425750732,NA
119,58!k7lr,False,104,1,equal,ST1_high_4_a2,P = T2?,Same,1,2,high,96,1.23,70,1.66,96,1.1,Yes,quiteSure,fa,1.7550780773162842,NA
120,58!k7lr,False,105,1,equal,ST1_low_4_a2,P = T1?,Same,1,2,low,112,0.95,70,1.69,112,1.07,Yes,sure,hit,1.8962161540985107,NA
121,58!k7lr,False,106,1,equal,ST2_high_5_a2,P = T1?,Same,2,2,high,96,1.07,132,1.05,132,0.92,No,sure,cr,1.12351393699646,NA
122,58!k7lr,False,107,1,equal,ST1_high_2_a1,P = T2?,Same,1,1,high,112,1.16,82,1.4,112,1.03,Yes,unsure,fa,4.117279291152954,NA
123,58!k7lr,False,108,1,equal,ST1_low_4_a2,P = T2?,Same,1,2,low,112,0.98,70,1.41,112,1.17,No,sure,cr,1.1233668327331543,NA
124,58!k7lr,False,109,1,equal,ST2_high_4_a1,P = T2?,Same,2,1,high,96,1.28,70,1.55,70,1.81,Yes,sure,hit,1.5738921165466309,NA
125,58!k7lr,False,110,1,equal,ST1_low_3_a2,P = T2?,Same,1,2,low,70,1.41,112,1.01,70,1.64,No,sure,cr,1.3078458309173584,NA
126,58!k7lr,False,111,1,equal,ST2_low_2_a2,P = T1?,Same,2,2,low,132,0.96,82,1.63,82,1.56,No,quiteSure,cr,1.266327142715454,NA
127,58!k7lr,False,112,1,equal,DT1_low_2_a2,P = T2?,Different,1,2,low,132,0.96,82,1.5,154,0.8,No,sure,cr,1.0163488388061523,NA
128,58!k7lr,False,113,1,equal,ST2_low_3_a2,P = T1?,Same,2,2,low,70,1.77,112,1.0,112,0.92,No,unsure,cr,1.148190975189209,NA
129,58!k7lr,False,114,1,equal,ST2_high_5_a1,P = T1?,Same,2,1,high,96,1.2,132,1.03,132,0.98,No,unsure,cr,1.009315013885498,NA
130,58!k7lr,False,115,1,equal,ST2_low_4_a1,P = T1?,Same,2,1,low,112,1.01,70,1.82,70,1.76,No,unsure,cr,1.5071308612823486,NA
131,58!k7lr,False,116,1,equal,ST2_high_2_a2,P = T2?,Same,2,2,high,112,1.19,82,1.58,82,1.57,Yes,sure,hit,1.3035757541656494,NA
132,58!k7lr,False,117,1,equal,STb_1_a2,P = T1?,Same,0,2,None,60,1.73,60,1.98,60,1.75,Yes,sure,hit,1.4163999557495117,NA
133,58!k7lr,False,118,1,equal,ST2_high_5_a2,P = T2?,Same,2,2,high,96,1.39,132,0.8,132,0.97,Yes,quiteSure,hit,1.5498018264770508,NA
134,58!k7lr,False,119,1,equal,ST2_low_2_a2,P = T2?,Same,2,2,low,132,1.0,82,1.52,82,1.3,Yes,sure,hit,1.1074109077453613,NA
135,58!k7lr,False,120,1,equal,ST2_high_4_a2,P = T1?,Same,2,2,high,96,1.43,70,1.39,70,1.66,No,sure,cr,0.9673669338226318,NA
136,58!k7lr,False,121,1,equal,ST1_high_2_a1,P = T2?,Same,1,1,high,112,0.99,82,1.56,112,1.11,Yes,quiteSure,fa,1.7116191387176514,NA
137,58!k7lr,False,122,1,equal,ST1_high_3_a2,P = T1?,Same,1,2,high,70,1.38,96,1.32,70,1.46,Yes,sure,hit,1.078674077987671,NA
138,58!k7lr,False,123,1,equal,DT1_low_3_a2,P = T2?,Different,1,2,low,70,1.54,112,1.08,60,1.91,No,sure,cr,1.0167789459228516,NA
139,58!k7lr,False,124,1,equal,ST1_high_6_a2,P = T2?,Same,1,2,high,132,1.04,96,1.35,132,1.04,Yes,sure,fa,0.7876181602478027,NA
140,58!k7lr,False,125,1,equal,ST2_low_3_a1,P = T1?,Same,2,1,low,70,1.52,112,0.98,112,1.13,No,sure,cr,1.0111498832702637,NA
141,58!k7lr,False,126,1,equal,ST2_low_5_a1,P = T1?,Same,2,1,low,96,1.14,154,0.79,154,0.91,No,sure,cr,1.4424512386322021,NA
142,58!k7lr,False,127,1,equal,ST2_high_2_a1,P = T2?,Same,2,1,high,112,1.22,82,1.33,82,1.31,Yes,sure,hit,1.123871088027954,NA
143,58!k7lr,False,128,1,equal,ST2_high_4_a1,P = T1?,Same,2,1,high,96,1.27,70,1.8,70,1.75,No,unsure,cr,1.2366368770599365,NA
144,58!k7lr,False,129,1,equal,ST2_high_6_a1,P = T1?,Same,2,1,high,132,1.04,96,1.24,96,1.08,Yes,unsure,fa,1.2185442447662354,NA
145,58!k7lr,False,130,1,equal,ST1_low_5_a1,P = T1?,Same,1,1,low,96,1.39,154,0.81,96,1.08,Yes,sure,hit,1.0564820766448975,NA
146,58!k7lr,False,131,1,equal,ST1_low_1_a1,P = T2?,Same,1,1,low,82,1.51,132,0.93,82,1.63,No,sure,cr,2.0691657066345215,NA
147,58!k7lr,False,132,1,equal,ST2_low_6_a1,P = T1?,Same,2,1,low,154,0.9,96,1.11,96,1.35,No,sure,cr,1.057905912399292,NA
148,58!k7lr,False,133,1,equal,ST1_high_4_a1,P = T2?,Same,1,1,high,96,1.07,70,1.41,96,1.33,Yes,sure,fa,2.138144016265869,NA
149,58!k7lr,False,134,1,equal,ST2_low_4_a1,P = T1?,Same,2,1,low,112,0.95,70,1.41,70,1.8,No,unsure,cr,1.4893531799316406,NA
150,58!k7lr,False,135,1,equal,ST2_high_5_a1,P = T1?,Same,2,1,high,96,1.2,132,0.98,132,0.81,No,unsure,cr,2.000533103942871,NA
151,58!k7lr,False,136,1,equal,ST1_low_4_a2,P = T1?,Same,1,2,low,112,1.17,70,1.74,112,1.16,Yes,unsure,hit,3.127455949783325,NA
152,58!k7lr,False,137,1,equal,DT1_high_2_a1,P = T1?,Different,1,1,high,112,0.93,82,1.59,132,0.86,Yes,unsure,hit,1.9169018268585205,NA
153,58!k7lr,False,138,1,equal,ST2_high_5_a2,P = T1?,Same,2,2,high,96,1.18,132,0.91,132,0.99,Yes,sure,fa,1.1931567192077637,NA
154,58!k7lr,False,139,1,equal,ST1_high_4_a1,P = T1?,Same,1,1,high,96,1.06,70,1.5,96,1.09,Yes,sure,hit,1.6665940284729004,NA
155,58!k7lr,False,140,1,equal,ST2_low_6_a1,P = T2?,Same,2,1,low,154,0.73,96,1.35,96,1.38,Yes,quiteSure,hit,1.623481035232544,NA
156,58!k7lr,False,141,1,equal,ST1_low_5_a1,P = T1?,Same,1,1,low,96,1.15,154,0.74,96,1.38,Yes,quiteSure,hit,2.6532399654388428,NA
157,58!k7lr,False,142,1,equal,ST2_high_3_a1,P = T1?,Same,2,1,high,70,1.48,96,1.14,96,1.3,No,sure,cr,1.192060947418213,NA
158,58!k7lr,False,143,1,equal,ST1_high_5_a2,P = T2?,Same,1,2,high,96,1.14,132,0.82,96,1.06,Yes,sure,fa,1.2386648654937744,NA
159,58!k7lr,False,144,1,equal,ST1_high_2_a1,P = T1?,Same,1,1,high,112,1.02,82,1.33,112,1.12,Yes,quiteSure,hit,1.4384922981262207,NA
160,58!k7lr,False,145,1,equal,ST2_low_1_a2,P = T1?,Same,2,2,low,82,1.47,132,0.98,132,1.05,No,quiteSure,cr,3.73982310295105,NA
161,58!k7lr,False,146,1,equal,ST2_high_2_a1,P = T2?,Same,2,1,high,112,1.07,82,1.58,82,1.44,Yes,sure,hit,1.178731918334961,NA
162,58!k7lr,False,147,1,equal,ST1_low_4_a2,P = T2?,Same,1,2,low,112,1.02,70,1.77,112,1.11,No,unsure,cr,2.386197090148926,NA
163,58!k7lr,False,148,1,equal,ST2_low_1_a2,P = T1?,Same,2,2,low,82,1.63,132,0.81,132,0.81,Yes,unsure,fa,2.187224864959717,NA
164,58!k7lr,False,149,1,equal,ST1_low_3_a2,P = T2?,Same,1,2,low,70,1.77,112,1.23,70,1.65,No,sure,cr,1.125303030014038,NA
165,58!k7lr,False,150,1,equal,ST1_high_2_a1,P = T2?,Same,1,1,high,112,0.85,82,1.26,112,0.95,No,sure,cr,1.421708106994629,NA
166,58!k7lr,False,151,1,equal,ST2_high_5_a1,P = T2?,Same,2,1,high,96,1.38,132,1.05,132,1.01,Yes,sure,hit,2.786187171936035,NA
167,58!k7lr,False,152,1,equal,ST2_low_5_a2,P = T1?,Same,2,2,low,96,1.26,154,0.93,154,0.83,No,sure,cr,2.993438959121704,NA
168,58!k7lr,False,153,1,equal,ST1_low_4_a1,P = T2?,Same,1,1,low,112,1.11,70,1.4,112,0.92,No,sure,cr,3.7997689247131348,NA
169,58!k7lr,False,154,1,equal,DT1_high_4_a2,P = T1?,Different,1,2,high,96,1.06,70,1.4,112,0.93,Yes,sure,hit,1.3734540939331055,NA
170,58!k7lr,False,155,1,equal,ST2_low_4_a2,P = T1?,Same,2,2,low,112,1.08,70,1.51,70,1.56,No,unsure,cr,2.8156330585479736,NA
171,58!k7lr,False,156,1,equal,ST2_low_4_a2,P = T2?,Same,2,2,low,112,1.2,70,1.78,70,1.85,Yes,sure,hit,1.4620847702026367,NA
172,58!k7lr,False,157,1,equal,ST2_low_1_a1,P = T1?,Same,2,1,low,82,1.46,132,1.01,132,0.82,No,sure,cr,1.150587797164917,NA
173,58!k7lr,False,158,1,equal,ST1_low_5_a2,P = T2?,Same,1,2,low,96,1.06,154,0.72,96,1.11,No,sure,cr,1.1037261486053467,NA
174,58!k7lr,False,159,1,equal,ST1_high_2_a2,P = T2?,Same,1,2,high,112,1.12,82,1.35,112,1.0,Yes,sure,fa,1.0582249164581299,NA
175,58!k7lr,False,160,1,equal,ST2_high_2_a1,P = T1?,Same,2,1,high,112,1.05,82,1.37,82,1.45,Yes,sure,fa,1.6409621238708496,NA
176,58!k7lr,False,161,1,equal,ST2_low_6_a2,P = T1?,Same,2,2,low,154,0.92,96,1.1,96,1.12,No,sure,cr,1.3265790939331055,NA
177,58!k7lr,False,162,1,equal,ST1_high_2_a1,P = T1?,Same,1,1,high,112,1.03,82,1.49,112,1.23,Yes,sure,hit,1.4777028560638428,NA
178,58!k7lr,False,163,1,equal,ST1_high_3_a2,P = T2?,Same,1,2,high,70,1.54,96,1.38,70,1.59,No,sure,cr,1.1051359176635742,NA
179,58!k7lr,False,164,1,equal,ST1_high_3_a1,P = T2?,Same,1,1,high,70,1.46,96,1.36,70,1.76,No,sure,cr,2.25049090385437,NA
180,58!k7lr,False,165,1,equal,ST2_high_3_a2,P = T2?,Same,2,2,high,70,1.82,96,1.07,96,1.38,Yes,unsure,hit,1.8680040836334229,NA
181,58!k7lr,False,166,1,equal,ST1_low_2_a1,P = T2?,Same,1,1,low,132,0.93,82,1.41,132,0.82,No,unsure,cr,3.305727958679199,NA
182,58!k7lr,False,167,1,equal,STb_6_a1,P = T2?,Same,0,1,None,132,0.88,132,0.99,132,0.9,Yes,sure,hit,1.6238787174224854,NA
183,58!k7lr,False,168,1,equal,ST1_high_4_a2,P = T1?,Same,1,2,high,96,1.19,70,1.78,96,1.34,No,unsure,miss,1.3046760559082031,NA
184,58!k7lr,False,169,1,equal,ST1_low_5_a2,P = T1?,Same,1,2,low,96,1.32,154,0.95,96,1.33,Yes,sure,hit,1.238175868988037,NA
185,58!k7lr,False,170,1,equal,ST1_low_1_a2,P = T2?,Same,1,2,low,82,1.26,132,1.0,82,1.4,Yes,quiteSure,fa,2.5684237480163574,NA
186,58!k7lr,False,171,1,equal,STb_2_a1,P = T2?,Same,0,1,None,70,1.77,70,1.46,70,1.43,Yes,sure,hit,1.4376840591430664,NA
187,58!k7lr,False,172,1,equal,ST2_low_4_a1,P = T1?,Same,2,1,low,112,0.95,70,1.73,70,1.55,No,sure,cr,1.1916210651397705,NA
188,58!k7lr,False,173,1,equal,ST2_high_3_a1,P = T2?,Same,2,1,high,70,1.45,96,1.26,96,1.27,Yes,unsure,hit,1.554084062576294,NA
189,58!k7lr,False,174,1,equal,ST2_low_2_a2,P = T1?,Same,2,2,low,132,0.82,82,1.39,82,1.52,No,sure,cr,1.12434983253479,NA
190,58!k7lr,False,175,1,equal,ST1_low_6_a2,P = T1?,Same,1,2,low,154,0.74,96,1.18,154,0.94,No,unsure,miss,3.824532985687256,NA
191,58!k7lr,False,176,1,equal,ST2_high_2_a2,P = T1?,Same,2,2,high,112,0.94,82,1.33,82,1.49,No,unsure,cr,1.2422780990600586,NA
192,58!k7lr,False,177,1,equal,ST2_low_4_a1,P = T2?,Same,2,1,low,112,1.18,70,1.53,70,1.45,Yes,sure,hit,1.2137701511383057,NA
193,58!k7lr,False,178,1,equal,ST1_high_4_a1,P = T1?,Same,1,1,high,96,1.24,70,1.38,96,1.08,Yes,sure,hit,1.4378769397735596,NA
194,58!k7lr,False,179,1,equal,ST1_high_1_a2,P = T1?,Same,1,2,high,82,1.32,112,1.22,82,1.27,Yes,sure,hit,1.0542197227478027,NA
195,58!k7lr,False,180,1,equal,ST2_high_2_a2,P = T1?,Same,2,2,high,112,1.01,82,1.35,82,1.36,No,sure,cr,1.595839023590088,NA
196,58!k7lr,False,181,1,equal,ST2_high_6_a1,P = T2?,Same,2,1,high,132,0.85,96,1.26,96,1.32,Yes,sure,hit,1.0845649242401123,NA
197,58!k7lr,False,182,1,equal,ST2_low_6_a1,P = T2?,Same,2,1,low,154,0.72,96,1.14,96,1.21,No,unsure,miss,2.7485768795013428,NA
198,58!k7lr,False,183,1,equal,ST1_low_1_a1,P = T1?,Same,1,1,low,82,1.57,132,1.05,82,1.22,Yes,sure,hit,1.2104251384735107,NA
199,58!k7lr,False,184,1,equal,ST1_high_1_a1,P = T1?,Same,1,1,high,82,1.31,112,0.94,82,1.41,Yes,sure,hit,0.9479389190673828,NA
200,58!k7lr,False,185,1,equal,ST2_low_3_a1,P = T2?,Same,2,1,low,70,1.37,112,1.01,112,1.18,Yes,sure,hit,1.1380579471588135,NA
201,58!k7lr,False,186,1,equal,ST1_high_4_a2,P = T1?,Same,1,2,high,96,1.07,70,1.38,96,1.26,Yes,sure,hit,1.0356440544128418,NA
202,58!k7lr,False,187,1,equal,ST2_low_5_a1,P = T2?,Same,2,1,low,96,1.21,154,0.87,154,0.73,Yes,sure,hit,1.0375797748565674,NA
203,58!k7lr,False,188,1,equal,ST1_high_5_a1,P = T1?,Same,1,1,high,96,1.39,132,0.86,96,1.41,Yes,sure,hit,0.7410168647766113,NA
204,58!k7lr,False,189,1,equal,DT2_high_5_a1,P = T1?,Different,2,1,high,96,1.29,132,1.01,154,0.89,Yes,sure,fa,1.5319480895996094,NA
205,58!k7lr,False,190,1,equal,ST2_high_2_a2,P = T2?,Same,2,2,high,112,1.19,82,1.25,82,1.37,Yes,sure,hit,1.0586466789245605,NA
206,58!k7lr,False,191,1,equal,ST1_low_2_a1,P = T1?,Same,1,1,low,132,1.02,82,1.27,132,1.02,Yes,sure,hit,1.0362379550933838,NA
207,58!k7lr,False,192,1,equal,ST1_low_3_a2,P = T2?,Same,1,2,low,70,1.71,112,1.12,70,1.81,No,sure,cr,1.0270018577575684,NA
208,58!k7lr,False,193,1,equal,ST2_high_4_a1,P = T2?,Same,2,1,high,96,1.11,70,1.77,70,1.8,No,unsure,miss,0.990739107131958,NA
209,58!k7lr,False,194,1,equal,ST2_low_4_a2,P = T2?,Same,2,2,low,112,1.2,70,1.65,70,1.84,No,unsure,miss,1.619495153427124,NA
210,58!k7lr,False,195,1,equal,ST2_low_1_a1,P = T2?,Same,2,1,low,82,1.4,132,1.01,132,0.79,Yes,sure,hit,1.146357774734497,NA
211,58!k7lr,False,196,1,equal,ST1_low_5_a1,P = T1?,Same,1,1,low,96,1.19,154,0.74,96,1.31,Yes,sure,hit,1.2149853706359863,NA
212,58!k7lr,False,197,1,equal,ST2_high_1_a1,P = T2?,Same,2,1,high,82,1.6,112,1.13,112,1.09,Yes,sure,hit,1.550605058670044,NA
213,58!k7lr,False,198,1,equal,ST2_low_1_a1,P = T2?,Same,2,1,low,82,1.61,132,1.05,132,0.86,No,unsure,miss,2.431241989135742,NA
214,58!k7lr,False,199,1,equal,DT1_high_5_a2,P = T1?,Different,1,2,high,96,1.09,132,0.98,82,1.25,Yes,sure,hit,1.0295453071594238,NA
215,58!k7lr,False,200,1,equal,ST1_low_1_a2,P = T1?,Same,1,2,low,82,1.6,132,0.85,82,1.3,Yes,sure,hit,1.8911030292510986,NA
216,58!k7lr,False,201,1,equal,ST1_low_1_a2,P = T1?,Same,1,2,low,82,1.4,132,0.94,82,1.39,Yes,sure,hit,1.2872228622436523,NA
217,58!k7lr,False,202,1,equal,ST2_low_5_a2,P = T2?,Same,2,2,low,96,1.39,154,0.76,154,0.86,Yes,sure,hit,1.2849318981170654,NA
218,58!k7lr,False,203,1,equal,ST1_high_6_a1,P = T1?,Same,1,1,high,132,1.02,96,1.31,132,1.01,Yes,sure,hit,1.212367057800293,NA
219,58!k7lr,False,204,1,equal,DT1_low_3_a2,P = T1?,Different,1,2,low,70,1.84,112,1.05,60,2.03,Yes,sure,hit,0.9909577369689941,NA
220,58!k7lr,False,205,1,equal,ST1_high_2_a2,P = T1?,Same,1,2,high,112,0.93,82,1.34,112,1.04,Yes,sure,hit,0.8102788925170898,NA
221,58!k7lr,False,206,1,equal,ST1_high_1_a2,P = T1?,Same,1,2,high,82,1.53,112,1.02,82,1.53,Yes,sure,hit,0.744873046875,NA
222,58!k7lr,False,207,1,equal,ST1_high_6_a1,P = T1?,Same,1,1,high,132,0.92,96,1.08,132,0.96,Yes,sure,hit,1.038348913192749,NA
223,58!k7lr,False,208,1,equal,ST1_high_5_a2,P = T2?,Same,1,2,high,96,1.29,132,1.01,96,1.34,Yes,sure,fa,1.0093410015106201,NA
224,58!k7lr,False,209,1,equal,ST1_high_1_a2,P = T2?,Same,1,2,high,82,1.42,112,1.19,82,1.3,No,sure,cr,1.1263160705566406,NA
225,58!k7lr,False,210,1,equal,ST2_high_1_a2,P = T1?,Same,2,2,high,82,1.58,112,1.13,112,1.11,Yes,unsure,fa,1.2616157531738281,NA
226,58!k7lr,False,211,1,equal,ST1_low_6_a1,P = T2?,Same,1,1,low,154,0.85,96,1.37,154,0.79,Yes,quiteSure,fa,2.7451581954956055,NA
227,58!k7lr,False,212,1,equal,STb_7_a2,P = T1?,Same,0,2,None,154,0.91,154,0.77,154,0.95,Yes,sure,hit,1.2361681461334229,NA
228,58!k7lr,False,213,1,equal,ST2_low_5_a2,P = T1?,Same,2,2,low,96,1.34,154,0.82,154,0.94,No,unsure,cr,1.801255226135254,NA
229,58!k7lr,False,214,1,equal,ST1_high_2_a2,P = T1?,Same,1,2,high,112,0.99,82,1.48,112,1.15,Yes,sure,hit,1.122366189956665,NA
230,58!k7lr,False,215,1,equal,STb_8_a2,P = T1?,Same,0,2,None,180,0.75,180,0.93,180,0.84,Yes,sure,hit,0.7642037868499756,NA
231,58!k7lr,False,216,1,equal,STb_1_a1,P = T2?,Same,0,1,None,60,2.02,60,1.89,60,1.88,Yes,sure,hit,0.6065280437469482,NA
232,58!k7lr,False,217,1,equal,DT1_high_5_a2,P = T2?,Different,1,2,high,96,1.25,132,1.05,82,1.6,No,unsure,cr,1.3289310932159424,NA
233,58!k7lr,False,218,1,equal,ST2_low_2_a2,P = T2?,Same,2,2,low,132,1.06,82,1.32,82,1.35,Yes,sure,hit,1.6141738891601562,NA
234,58!k7lr,False,219,1,equal,ST1_low_2_a2,P = T1?,Same,1,2,low,132,1.03,82,1.31,132,0.88,Yes,quiteSure,hit,1.235321044921875,NA
235,58!k7lr,False,220,1,equal,ST1_high_1_a1,P = T1?,Same,1,1,high,82,1.26,112,1.2,82,1.26,Yes,quiteSure,hit,1.326267957687378,NA
236,58!k7lr,False,221,1,equal,ST2_low_3_a2,P = T1?,Same,2,2,low,70,1.41,112,0.95,112,1.06,No,unsure,cr,1.1909680366516113,NA
237,58!k7lr,False,222,1,equal,ST2_low_4_a2,P = T2?,Same,2,2,low,112,1.04,70,1.76,70,1.45,Yes,sure,hit,1.3076989650726318,NA
238,58!k7lr,False,223,1,equal,ST2_low_2_a1,P = T2?,Same,2,1,low,132,0.8,82,1.28,82,1.57,Yes,quiteSure,hit,1.396927833557129,NA
239,58!k7lr,False,224,1,equal,ST2_low_5_a2,P = T2?,Same,2,2,low,96,1.41,154,0.83,154,0.94,Yes,sure,hit,1.210744857788086,NA
240,58!k7lr,False,225,1,equal,ST2_low_1_a1,P = T1?,Same,2,1,low,82,1.56,132,1.04,132,0.89,Yes,unsure,fa,2.185835123062134,NA
241,58!k7lr,False,226,1,equal,ST1_low_6_a1,P = T1?,Same,1,1,low,154,0.73,96,1.22,154,0.93,No,unsure,miss,6.772254943847656,NA
242,58!k7lr,False,227,1,equal,ST2_high_4_a1,P = T2?,Same,2,1,high,96,1.22,70,1.62,70,1.82,Yes,sure,hit,1.3037090301513672,NA
243,58!k7lr,False,228,1,equal,DT2_high_2_a1,P = T1?,Different,2,1,high,112,1.23,82,1.34,70,1.58,No,sure,cr,1.912255048751831,NA
244,58!k7lr,False,229,1,equal,ST2_low_6_a2,P = T2?,Same,2,2,low,154,0.81,96,1.3,96,1.07,Yes,sure,hit,1.1688930988311768,NA
245,58!k7lr,False,230,1,equal,ST1_high_5_a1,P = T2?,Same,1,1,high,96,1.23,132,0.83,96,1.27,Yes,sure,fa,2.7498559951782227,NA
246,58!k7lr,False,231,1,equal,ST1_high_6_a1,P = T2?,Same,1,1,high,132,0.87,96,1.35,132,0.86,Yes,sure,fa,0.7875592708587646,NA
247,58!k7lr,False,232,1,equal,DT1_low_5_a1,P = T2?,Different,1,1,low,96,1.09,154,0.74,82,1.27,No,sure,cr,2.854727029800415,NA
248,58!k7lr,False,233,1,equal,STb_1_a2,P = T2?,Same,0,2,None,60,1.9,60,1.94,60,1.76,Yes,sure,hit,2.2054762840270996,NA
249,58!k7lr,False,234,1,equal,ST2_low_1_a2,P = T1?,Same,2,2,low,82,1.45,132,0.79,132,0.89,No,sure,cr,1.776015043258667,NA
250,58!k7lr,False,235,1,equal,ST1_low_2_a1,P = T2?,Same,1,1,low,132,1.01,82,1.23,132,0.89,No,sure,cr,1.2145919799804688,NA
251,58!k7lr,False,236,1,equal,ST2_high_2_a2,P = T1?,Same,2,2,high,112,1.13,82,1.51,82,1.43,No,sure,cr,1.4885530471801758,NA
252,58!k7lr,False,237,1,equal,ST2_low_6_a2,P = T2?,Same,2,2,low,154,0.92,96,1.28,96,1.13,Yes,sure,hit,1.5314831733703613,NA
253,58!k7lr,False,238,1,equal,ST2_high_6_a2,P = T1?,Same,2,2,high,132,1.0,96,1.29,96,1.39,No,sure,cr,1.6876940727233887,NA
254,58!k7lr,False,239,1,equal,ST1_high_3_a2,P = T2?,Same,1,2,high,70,1.8,96,1.27,70,1.64,No,unsure,cr,2.5012991428375244,NA
255,58!k7lr,False,240,1,equal,ST2_high_1_a2,P = T2?,Same,2,2,high,82,1.36,112,1.12,112,1.23,Yes,sure,hit,1.1898691654205322,NA
256,58!k7lr,False,241,1,equal,ST2_high_1_a2,P = T2?,Same,2,2,high,82,1.45,112,0.97,112,0.99,Yes,quiteSure,hit,3.132768154144287,NA
257,58!k7lr,False,242,1,equal,ST2_high_4_a2,P = T2?,Same,2,2,high,96,1.18,70,1.48,70,1.68,Yes,sure,hit,1.1667938232421875,NA
258,58!k7lr,False,243,1,equal,ST1_high_3_a2,P = T1?,Same,1,2,high,70,1.83,96,1.17,70,1.66,Yes,sure,hit,1.1496508121490479,NA
259,58!k7lr,False,244,1,equal,ST1_low_1_a1,P = T1?,Same,1,1,low,82,1.47,132,0.86,82,1.56,Yes,sure,hit,0.9882888793945312,NA
260,58!k7lr,False,245,1,equal,ST2_high_1_a1,P = T1?,Same,2,1,high,82,1.54,112,1.03,112,1.02,No,unsure,cr,5.627550840377808,NA
261,58!k7lr,False,246,1,equal,ST2_low_2_a1,P = T1?,Same,2,1,low,132,0.81,82,1.57,82,1.22,Yes,quiteSure,fa,4.433398008346558,NA
262,58!k7lr,False,247,1,equal,ST2_low_4_a1,P = T2?,Same,2,1,low,112,1.22,70,1.41,70,1.55,Yes,sure,hit,1.869384765625,NA
263,58!k7lr,False,248,1,equal,ST1_low_4_a1,P = T2?,Same,1,1,low,112,1.04,70,1.71,112,1.19,No,sure,cr,1.173586368560791,NA
264,58!k7lr,False,249,1,equal,ST1_high_3_a1,P = T1?,Same,1,1,high,70,1.67,96,1.14,70,1.53,Yes,sure,hit,1.3058879375457764,NA
265,58!k7lr,False,250,1,equal,STb_6_a2,P = T2?,Same,0,2,None,132,0.81,132,0.79,132,0.95,Yes,sure,hit,1.3505911827087402,NA
266,58!k7lr,False,251,1,equal,ST2_high_4_a2,P = T2?,Same,2,2,high,96,1.29,70,1.64,70,1.62,Yes,sure,hit,1.1491129398345947,NA
267,58!k7lr,False,252,1,equal,ST1_high_5_a2,P = T1?,Same,1,2,high,96,1.3,132,0.8,96,1.07,Yes,unsure,hit,2.113503932952881,NA
268,58!k7lr,False,253,1,equal,ST1_low_3_a1,P = T1?,Same,1,1,low,70,1.75,112,1.02,70,1.67,Yes,sure,hit,0.9704811573028564,NA
269,58!k7lr,False,254,1,equal,DT1_high_6_a2,P = T2?,Different,1,2,high,132,0.83,96,1.17,154,0.79,No,sure,cr,1.3921849727630615,NA
270,58!k7lr,False,255,1,equal,ST2_low_3_a1,P = T1?,Same,2,1,low,70,1.32,112,1.15,112,1.29,No,sure,cr,1.1955418586730957,NA
271,58!k7lr,False,256,1,equal,ST1_low_4_a1,P = T1?,Same,1,1,low,112,1.06,70,1.64,112,1.18,Yes,quiteSure,hit,2.3884799480438232,NA
272,58!k7lr,False,257,1,equal,ST2_high_3_a1,P = T1?,Same,2,1,high,70,1.76,96,1.11,96,1.38,No,unsure,cr,1.6689867973327637,NA
273,58!k7lr,False,258,1,equal,DT1_high_3_a1,P = T2?,Different,1,1,high,70,1.65,96,1.21,60,1.74,No,sure,cr,1.1437029838562012,NA
274,58!k7lr,False,259,1,equal,ST2_low_3_a1,P = T2?,Same,2,1,low,70,1.64,112,1.18,112,1.03,Yes,sure,hit,1.214670181274414,NA
275,58!k7lr,False,260,1,equal,ST1_low_3_a1,P = T2?,Same,1,1,low,70,1.49,112,1.03,70,1.78,No,sure,cr,2.2246012687683105,NA
276,58!k7lr,False,261,1,equal,ST1_high_6_a2,P = T1?,Same,1,2,high,132,0.95,96,1.11,132,1.03,Yes,sure,hit,2.5881779193878174,NA
277,58!k7lr,False,262,1,equal,ST1_low_5_a2,P = T1?,Same,1,2,low,96,1.14,154,0.76,96,1.22,Yes,unsure,hit,2.1589181423187256,NA
278,58!k7lr,False,263,1,equal,ST1_high_4_a2,P = T2?,Same,1,2,high,96,1.1,70,1.4,96,1.12,No,sure,cr,2.4061241149902344,NA
279,58!k7lr,False,264,1,equal,ST2_high_1_a2,P = T1?,Same,2,2,high,82,1.55,112,1.23,112,0.96,No,unsure,cr,3.0735809803009033,NA
280,58!k7lr,False,265,1,equal,ST2_low_5_a1,P = T2?,Same,2,1,low,96,1.33,154,0.83,154,0.78,Yes,sure,hit,2.4553639888763428,NA
281,58!k7lr,False,266,1,equal,ST2_high_1_a2,P = T2?,Same,2,2,high,82,1.59,112,0.92,112,1.0,Yes,sure,hit,1.939284086227417,NA
282,58!k7lr,False,267,1,equal,ST2_low_2_a2,P = T1?,Same,2,2,low,132,1.0,82,1.35,82,1.5,Yes,sure,fa,1.483644962310791,NA
283,58!k7lr,False,268,1,equal,ST2_high_2_a1,P = T1?,Same,2,1,high,112,1.15,82,1.5,82,1.63,Yes,sure,fa,1.3045787811279297,NA
284,58!k7lr,False,269,1,equal,ST2_high_6_a1,P = T1?,Same,2,1,high,132,1.05,96,1.1,96,1.18,No,unsure,cr,1.4964828491210938,NA
285,58!k7lr,False,270,1,equal,ST1_low_1_a2,P = T2?,Same,1,2,low,82,1.5,132,0.88,82,1.56,No,sure,cr,1.6239848136901855,NA
286,58!k7lr,False,271,1,equal,ST2_high_6_a2,P = T2?,Same,2,2,high,132,0.83,96,1.4,96,1.16,Yes,quiteSure,hit,1.6396570205688477,NA
287,58!k7lr,False,272,1,equal,ST2_high_3_a2,P = T1?,Same,2,2,high,70,1.62,96,1.24,96,1.14,No,unsure,cr,1.5274999141693115,NA
288,58!k7lr,False,273,1,equal,ST1_high_4_a1,P = T2?,Same,1,1,high,96,1.11,70,1.62,96,1.12,Yes,unsure,fa,2.7084290981292725,NA
289,58!k7lr,False,274,1,equal,ST2_low_5_a2,P = T2?,Same,2,2,low,96,1.41,154,0.93,154,0.91,Yes,sure,hit,1.2829630374908447,NA
290,58!k7lr,False,275,1,equal,ST2_high_1_a1,P = T1?,Same,2,1,high,82,1.47,112,1.17,112,1.18,Yes,sure,fa,1.1227030754089355,NA
291,58!k7lr,False,276,1,equal,ST1_low_3_a2,P = T1?,Same,1,2,low,70,1.48,112,1.16,70,1.59,Yes,unsure,hit,2.4305520057678223,NA
292,58!k7lr,False,277,1,equal,ST2_high_5_a1,P = T1?,Same,2,1,high,96,1.1,132,1.02,132,0.89,No,unsure,cr,1.6925671100616455,NA
293,58!k7lr,False,278,1,equal,ST1_high_2_a2,P = T2?,Same,1,2,high,112,1.03,82,1.55,112,1.04,Yes,sure,fa,1.1967799663543701,NA
294,58!k7lr,False,279,1,equal,ST2_high_3_a1,P = T2?,Same,2,1,high,70,1.6,96,1.35,96,1.17,Yes,sure,hit,1.7084059715270996,NA
295,58!k7lr,False,280,1,equal,ST1_high_6_a2,P = T2?,Same,1,2,high,132,1.02,96,1.41,132,0.99,Yes,sure,fa,1.8007571697235107,NA
296,58!k7lr,False,281,1,equal,ST2_high_1_a1,P = T2?,Same,2,1,high,82,1.46,112,0.95,112,1.06,Yes,sure,hit,1.0125460624694824,NA
297,58!k7lr,False,282,1,equal,ST1_high_1_a1,P = T2?,Same,1,1,high,82,1.33,112,1.07,82,1.34,Yes,sure,fa,1.1907548904418945,NA
298,58!k7lr,False,283,1,equal,ST2_high_3_a1,P = T2?,Same,2,1,high,70,1.8,96,1.42,96,1.28,No,unsure,miss,1.3041112422943115,NA
299,58!k7lr,False,284,1,equal,ST1_low_5_a1,P = T2?,Same,1,1,low,96,1.28,154,0.73,96,1.35,No,quiteSure,cr,1.2549917697906494,NA
300,58!k7lr,False,285,1,equal,ST2_high_5_a1,P = T2?,Same,2,1,high,96,1.43,132,0.81,132,0.98,Yes,sure,hit,1.321397066116333,NA
301,58!k7lr,False,286,1,equal,ST1_high_5_a2,P = T2?,Same,1,2,high,96,1.18,132,0.8,96,1.31,Yes,sure,fa,1.8212909698486328,NA
302,58!k7lr,False,287,1,equal,ST1_high_1_a2,P = T1?,Same,1,2,high,82,1.22,112,1.05,82,1.57,Yes,quiteSure,hit,1.3508660793304443,NA
303,58!k7lr,False,288,1,equal,ST1_low_2_a2,P = T1?,Same,1,2,low,132,0.82,82,1.57,132,0.89,Yes,unsure,hit,1.416572093963623,NA
304,58!k7lr,False,289,1,equal,ST1_high_6_a1,P = T2?,Same,1,1,high,132,0.85,96,1.41,132,0.84,Yes,sure,fa,1.1700527667999268,NA
305,58!k7lr,False,290,1,equal,ST1_high_4_a2,P = T1?,Same,1,2,high,96,1.14,70,1.64,96,1.26,No,unsure,miss,2.3813669681549072,NA
306,58!k7lr,False,291,1,equal,ST1_low_6_a2,P = T2?,Same,1,2,low,154,0.73,96,1.39,154,0.71,No,sure,cr,1.2219252586364746,NA
307,58!k7lr,False,292,1,equal,ST1_low_6_a2,P = T1?,Same,1,2,low,154,0.77,96,1.16,154,0.89,Yes,sure,hit,1.2653908729553223,NA
308,58!k7lr,False,293,1,equal,ST1_low_3_a1,P = T1?,Same,1,1,low,70,1.47,112,1.02,70,1.77,Yes,sure,hit,0.9683330059051514,NA
309,58!k7lr,False,294,1,equal,ST2_low_5_a1,P = T2?,Same,2,1,low,96,1.24,154,0.94,154,0.84,Yes,sure,hit,1.1027917861938477,NA
310,58!k7lr,False,295,1,equal,ST1_high_1_a1,P = T2?,Same,1,1,high,82,1.63,112,1.15,82,1.43,No,unsure,cr,1.9546220302581787,NA
311,58!k7lr,False,296,1,equal,STb_4_a1,P = T2?,Same,0,1,None,96,1.06,96,1.39,96,1.19,Yes,sure,hit,1.0552759170532227,NA
312,58!k7lr,False,297,1,equal,ST2_low_2_a1,P = T2?,Same,2,1,low,132,0.97,82,1.51,82,1.54,Yes,sure,hit,1.6670057773590088,NA
313,58!k7lr,False,298,1,equal,ST2_high_3_a1,P = T1?,Same,2,1,high,70,1.46,96,1.31,96,1.09,No,unsure,cr,1.618642807006836,NA
314,58!k7lr,False,299,1,equal,ST2_high_1_a1,P = T2?,Same,2,1,high,82,1.26,112,0.94,112,1.13,Yes,quiteSure,hit,1.1012132167816162,NA
315,58!k7lr,False,300,1,equal,ST2_high_3_a2,P = T2?,Same,2,2,high,70,1.74,96,1.14,96,1.35,Yes,unsure,hit,2.2269070148468018,NA
316,58!k7lr,False,301,1,equal,ST1_low_3_a2,P = T1?,Same,1,2,low,70,1.51,112,0.98,70,1.63,Yes,sure,hit,1.0362071990966797,NA
317,58!k7lr,False,302,1,equal,ST1_low_6_a1,P = T1?,Same,1,1,low,154,0.88,96,1.18,154,0.91,Yes,sure,hit,0.9651541709899902,NA
318,58!k7lr,False,303,1,equal,ST2_high_6_a1,P = T2?,Same,2,1,high,132,0.97,96,1.29,96,1.14,No,unsure,miss,1.7769300937652588,NA
319,58!k7lr,False,304,1,equal,ST1_high_3_a1,P = T1?,Same,1,1,high,70,1.64,96,1.26,70,1.76,Yes,quiteSure,hit,1.013159990310669,NA
320,58!k7lr,False,305,1,equal,ST2_low_4_a2,P = T1?,Same,2,2,low,112,1.16,70,1.79,70,1.68,No,sure,cr,1.147282361984253,NA
321,58!k7lr,False,306,1,equal,ST2_high_3_a2,P = T1?,Same,2,2,high,70,1.71,96,1.21,96,1.22,No,unsure,cr,1.7127349376678467,NA
322,58!k7lr,False,307,1,equal,ST1_low_6_a2,P = T2?,Same,1,2,low,154,0.79,96,1.39,154,0.83,No,sure,cr,1.7500619888305664,NA
323,58!k7lr,False,308,1,equal,ST1_low_3_a2,P = T1?,Same,1,2,low,70,1.42,112,1.07,70,1.52,Yes,sure,hit,1.039376974105835,NA
324,58!k7lr,False,309,1,equal,ST2_low_1_a1,P = T1?,Same,2,1,low,82,1.45,132,1.03,132,0.85,No,sure,cr,1.820434808731079,NA
325,58!k7lr,False,310,1,equal,ST1_high_6_a2,P = T1?,Same,1,2,high,132,0.99,96,1.06,132,0.98,Yes,sure,hit,0.858680009841919,NA
326,58!k7lr,False,311,1,equal,ST2_low_6_a1,P = T1?,Same,2,1,low,154,0.85,96,1.06,96,1.1,Yes,sure,fa,0.2936849594116211,NA
327,58!k7lr,False,312,1,equal,ST1_high_6_a2,P = T1?,Same,1,2,high,132,0.83,96,1.21,132,0.82,Yes,sure,hit,0.4714949131011963,NA
328,58!k7lr,False,313,1,equal,ST1_high_4_a1,P = T1?,Same,1,1,high,96,1.48,70,1.47,96,1.55,Yes,sure,hit,1.033639907836914,NA
329,58!k7lr,False,314,1,equal,ST1_high_4_a1,P = T2?,Same,1,1,high,96,1.24,70,1.45,96,1.36,No,sure,cr,1.060499906539917,NA
330,58!k7lr,False,315,1,equal,ST1_low_2_a2,P = T2?,Same,1,2,low,132,0.84,82,1.53,132,0.88,No,sure,cr,1.9154040813446045,NA
331,58!k7lr,False,316,1,equal,ST1_low_2_a2,P = T2?,Same,1,2,low,132,0.83,82,1.56,132,0.87,No,sure,cr,1.0824191570281982,NA
332,58!k7lr,False,317,1,equal,ST2_low_6_a1,P = T1?,Same,2,1,low,154,0.73,96,1.13,96,1.16,Yes,sure,fa,0.9224720001220703,NA
333,58!k7lr,False,318,1,equal,ST1_low_2_a2,P = T2?,Same,1,2,low,132,0.86,82,1.22,132,1.02,No,sure,cr,1.6186020374298096,NA
334,58!k7lr,False,319,1,equal,ST1_low_1_a1,P = T2?,Same,1,1,low,82,1.56,132,1.02,82,1.28,No,sure,cr,1.7656610012054443,NA
335,58!k7lr,False,320,1,equal,ST1_low_6_a2,P = T2?,Same,1,2,low,154,0.78,96,1.33,154,0.73,No,unsure,cr,1.7546262741088867,0.75
