,pcode,practice,trial,block,questionType,condition,question,PTS,TargetPosition,AccessoryPosition,TNS,T1_hz,T1_amp,T2_hz,T2_amp,P_hz,P_amp,response_dicho,response_rating,response_sdt,rt,P_correct
0,p#di385,True,1,1,unequal,ST2_low_3_a2,P != T2?,Same,2,2,low,70,1.48,112,0.97,112,0.95,No,sure,cr,6.810196876525879,NA
1,p#di385,True,2,1,unequal,STb_8_a1,P != T1?,Same,0,1,None,180,0.74,180,0.87,180,0.84,No,sure,cr,4.2486348152160645,NA
2,p#di385,True,3,1,unequal,DT1_low_3_a1,P != T1?,Different,1,1,low,70,1.48,112,1.18,60,1.93,Yes,sure,fa,1.935521125793457,NA
3,p#di385,True,4,1,unequal,DT1_high_4_a2,P != T1?,Different,1,2,high,96,1.02,70,1.66,112,1.25,No,sure,cr,12.148313045501709,NA
4,p#di385,True,5,1,unequal,STb_2_a2,P != T2?,Same,0,2,None,70,1.49,70,1.51,70,1.53,No,quiteSure,cr,3.105738878250122,NA
5,p#di385,True,6,1,unequal,ST1_high_4_a2,P != T1?,Same,1,2,high,96,1.22,70,1.57,96,1.37,Yes,sure,fa,3.9342880249023438,NA
6,p#di385,True,7,1,unequal,DT1_low_5_a1,P != T2?,Different,1,1,low,96,1.18,154,0.94,82,1.26,Yes,quiteSure,hit,3.941977024078369,NA
7,p#di385,True,8,1,unequal,ST2_low_1_a2,P != T1?,Same,2,2,low,82,1.21,132,1.07,132,1.02,Yes,sure,hit,2.521404266357422,NA
8,p#di385,True,9,1,unequal,DT2_low_6_a2,P != T2?,Different,2,2,low,154,0.81,96,1.43,82,1.33,No,quiteSure,cr,3.3549461364746094,NA
9,p#di385,True,10,1,unequal,ST2_low_4_a2,P != T2?,Same,2,2,low,112,1.01,70,1.79,70,1.38,No,quiteSure,cr,4.519947052001953,NA
10,p#di385,True,11,1,unequal,ST1_high_3_a2,P != T1?,Same,1,2,high,70,1.87,96,1.01,70,1.54,No,quiteSure,cr,2.610395908355713,NA
11,p#di385,True,12,1,unequal,ST1_high_1_a2,P != T2?,Same,1,2,high,82,1.77,112,0.81,82,1.2,Yes,sure,hit,3.843513250350952,NA
12,p#di385,True,13,1,unequal,ST2_high_4_a2,P != T1?,Same,2,2,high,96,0.94,70,1.3,70,1.37,Yes,sure,hit,1.7117960453033447,NA
13,p#di385,True,14,1,unequal,ST1_low_4_a2,P != T2?,Same,1,2,low,112,1.32,70,1.98,112,1.24,Yes,sure,hit,2.3171629905700684,NA
14,p#di385,True,15,1,unequal,STb_6_a1,P != T1?,Same,0,1,None,132,0.71,132,0.93,132,0.96,No,sure,cr,2.025430917739868,NA
15,p#di385,True,16,1,unequal,STb_6_a2,P != T2?,Same,0,2,None,132,0.83,132,0.92,132,0.83,No,quiteSure,cr,2.9278130531311035,0.75
16,p#di385,False,1,1,unequal,STb_6_a1,P != T2?,Same,0,1,None,132,0.94,132,0.88,132,0.97,No,sure,cr,3.9267330169677734,NA
17,p#di385,False,2,1,unequal,ST2_low_2_a2,P != T2?,Same,2,2,low,132,1.02,82,1.22,82,1.34,No,sure,cr,1.9984848499298096,NA
18,p#di385,False,3,1,unequal,ST1_low_5_a2,P != T2?,Same,1,2,low,96,1.12,154,0.9,96,1.39,Yes,quiteSure,hit,9.066893100738525,NA
19,p#di385,False,4,1,unequal,DT1_high_6_a1,P != T1?,Different,1,1,high,132,1.06,96,1.32,154,0.95,Yes,sure,fa,2.76554012298584,NA
20,p#di385,False,5,1,unequal,ST2_low_2_a1,P != T2?,Same,2,1,low,132,0.82,82,1.29,82,1.55,No,quiteSure,cr,4.076275110244751,NA
21,p#di385,False,6,1,unequal,DT1_high_3_a1,P != T2?,Different,1,1,high,70,1.47,96,1.25,60,1.94,Yes,sure,hit,2.922827959060669,NA
22,p#di385,False,7,1,unequal,ST2_low_1_a1,P != T2?,Same,2,1,low,82,1.62,132,1.0,132,1.01,No,sure,cr,3.4406421184539795,NA
23,p#di385,False,8,1,unequal,ST2_high_3_a2,P != T2?,Same,2,2,high,70,1.42,96,1.08,96,1.43,No,sure,cr,2.56354022026062,NA
24,p#di385,False,9,1,unequal,ST1_low_2_a1,P != T2?,Same,1,1,low,132,0.82,82,1.21,132,0.97,Yes,sure,hit,2.180410146713257,NA
25,p#di385,False,10,1,unequal,ST1_high_1_a2,P != T2?,Same,1,2,high,82,1.77,112,0.81,82,1.2,No,sure,miss,2.8510098457336426,NA
26,p#di385,False,11,1,unequal,DT1_high_1_a1,P != T2?,Different,1,1,high,82,1.42,112,1.17,70,1.6,Yes,sure,hit,3.712899923324585,NA
27,p#di385,False,12,1,unequal,ST1_high_1_a1,P != T2?,Same,1,1,high,82,1.33,112,0.96,82,1.37,Yes,unsure,hit,2.58585524559021,NA
28,p#di385,False,13,1,unequal,ST2_low_5_a2,P != T1?,Same,2,2,low,96,1.09,154,0.84,154,0.72,Yes,sure,hit,1.6400220394134521,NA
29,p#di385,False,14,1,unequal,ST2_high_3_a1,P != T1?,Same,2,1,high,70,1.51,96,1.37,96,1.09,Yes,sure,hit,3.8005213737487793,NA
30,p#di385,False,15,1,unequal,ST2_low_6_a2,P != T1?,Same,2,2,low,154,0.86,96,1.07,96,1.26,Yes,quiteSure,hit,1.4672210216522217,NA
31,p#di385,False,16,1,unequal,ST1_low_6_a2,P != T2?,Same,1,2,low,154,0.76,96,1.11,154,0.88,No,quiteSure,miss,2.314873218536377,NA
32,p#di385,False,17,1,unequal,ST2_low_1_a1,P != T2?,Same,2,1,low,82,1.63,132,0.96,132,0.93,No,quiteSure,cr,2.298981189727783,NA
33,p#di385,False,18,1,unequal,ST2_high_3_a1,P != T1?,Same,2,1,high,70,1.79,96,1.13,96,1.08,Yes,sure,hit,2.4965240955352783,NA
34,p#di385,False,19,1,unequal,STb_8_a2,P != T1?,Same,0,2,None,180,0.91,180,0.95,180,0.79,No,sure,cr,1.8251729011535645,NA
35,p#di385,False,20,1,unequal,ST2_high_1_a1,P != T1?,Same,2,1,high,82,1.22,112,1.01,112,1.17,No,sure,miss,5.151486873626709,NA
36,p#di385,False,21,1,unequal,ST1_low_3_a1,P != T1?,Same,1,1,low,70,1.46,112,1.21,70,1.43,No,sure,cr,3.1679208278656006,NA
37,p#di385,False,22,1,unequal,DT2_low_5_a2,P != T2?,Different,2,2,low,96,1.08,154,0.93,180,0.92,No,sure,cr,2.857390880584717,NA
38,p#di385,False,23,1,unequal,ST2_high_4_a1,P != T2?,Same,2,1,high,96,1.38,70,1.61,70,1.48,No,sure,cr,2.3623909950256348,NA
39,p#di385,False,24,1,unequal,STb_6_a2,P != T2?,Same,0,2,None,132,0.83,132,0.92,132,0.83,No,quiteSure,cr,6.368485689163208,NA
40,p#di385,False,25,1,unequal,ST2_high_6_a2,P != T1?,Same,2,2,high,132,0.95,96,1.2,96,1.12,Yes,sure,hit,2.455886125564575,NA
41,p#di385,False,26,1,unequal,ST2_low_4_a1,P != T1?,Same,2,1,low,112,1.21,70,1.41,70,1.83,Yes,sure,hit,2.9754958152770996,NA
42,p#di385,False,27,1,unequal,ST2_low_4_a1,P != T1?,Same,2,1,low,112,0.96,70,1.68,70,1.8,Yes,sure,hit,1.958977222442627,NA
43,p#di385,False,28,1,unequal,ST1_high_1_a1,P != T2?,Same,1,1,high,82,1.29,112,1.0,82,1.38,Yes,unsure,hit,3.1460399627685547,NA
44,p#di385,False,29,1,unequal,ST2_high_6_a1,P != T1?,Same,2,1,high,132,0.99,96,1.28,96,1.17,No,quiteSure,miss,5.806588888168335,NA
45,p#di385,False,30,1,unequal,ST2_high_4_a1,P != T2?,Same,2,1,high,96,1.13,70,1.76,70,1.4,No,sure,cr,2.2491230964660645,NA
46,p#di385,False,31,1,unequal,ST2_low_6_a1,P != T2?,Same,2,1,low,154,0.82,96,1.39,96,1.42,No,sure,cr,1.733407974243164,NA
47,p#di385,False,32,1,unequal,ST2_low_3_a2,P != T1?,Same,2,2,low,70,1.53,112,1.13,112,0.93,Yes,unsure,hit,1.7776851654052734,NA
48,p#di385,False,33,1,unequal,ST2_high_4_a2,P != T1?,Same,2,2,high,96,1.3,70,1.56,70,1.79,No,unsure,miss,2.1137351989746094,NA
49,p#di385,False,34,1,unequal,ST2_low_5_a1,P != T2?,Same,2,1,low,96,1.28,154,0.84,154,0.74,No,sure,cr,2.180962085723877,NA
50,p#di385,False,35,1,unequal,ST2_low_2_a2,P != T2?,Same,2,2,low,132,0.85,82,1.33,82,1.22,No,sure,cr,1.3916471004486084,NA
51,p#di385,False,36,1,unequal,ST2_high_6_a2,P != T2?,Same,2,2,high,132,1.06,96,1.33,96,1.1,No,sure,cr,1.4194581508636475,NA
52,p#di385,False,37,1,unequal,ST1_high_5_a2,P != T2?,Same,1,2,high,96,1.22,132,0.98,96,1.18,Yes,quiteSure,hit,2.115217924118042,NA
53,p#di385,False,38,1,unequal,ST2_high_2_a2,P != T2?,Same,2,2,high,112,1.02,82,1.39,82,1.3,No,sure,cr,1.9836571216583252,NA
54,p#di385,False,39,1,unequal,ST1_low_6_a2,P != T2?,Same,1,2,low,154,0.82,96,1.2,154,0.75,Yes,unsure,hit,4.769243001937866,NA
55,p#di385,False,40,1,unequal,ST1_high_1_a1,P != T1?,Same,1,1,high,82,1.4,112,1.11,82,1.41,No,sure,cr,2.3603057861328125,NA
56,p#di385,False,41,1,unequal,ST2_low_3_a1,P != T1?,Same,2,1,low,70,1.77,112,1.0,112,1.2,Yes,sure,hit,2.5847396850585938,NA
57,p#di385,False,42,1,unequal,ST1_low_5_a1,P != T2?,Same,1,1,low,96,1.3,154,0.91,96,1.18,No,quiteSure,miss,1.7069761753082275,NA
58,p#di385,False,43,1,unequal,ST2_low_3_a1,P != T1?,Same,2,1,low,70,1.85,112,1.06,112,1.22,Yes,sure,hit,1.7111759185791016,NA
59,p#di385,False,44,1,unequal,ST1_high_1_a2,P != T1?,Same,1,2,high,82,1.58,112,1.17,82,1.28,No,sure,cr,3.915135145187378,NA
60,p#di385,False,45,1,unequal,ST1_low_3_a2,P != T2?,Same,1,2,low,70,1.5,112,1.23,70,1.53,Yes,sure,hit,8.503586053848267,NA
61,p#di385,False,46,1,unequal,ST2_high_6_a1,P != T2?,Same,2,1,high,132,0.9,96,1.27,96,1.4,No,sure,cr,1.6460530757904053,NA
62,p#di385,False,47,1,unequal,ST1_low_3_a1,P != T1?,Same,1,1,low,70,1.84,112,1.21,70,1.71,No,sure,cr,1.9584391117095947,NA
63,p#di385,False,48,1,unequal,ST1_high_4_a1,P != T2?,Same,1,1,high,96,1.42,70,1.65,96,1.23,Yes,unsure,hit,7.175029993057251,NA
64,p#di385,False,49,1,unequal,ST1_low_3_a1,P != T2?,Same,1,1,low,70,1.52,112,0.95,70,1.54,Yes,sure,hit,5.08064603805542,NA
65,p#di385,False,50,1,unequal,DT2_high_4_a1,P != T2?,Different,2,1,high,96,1.34,70,1.55,60,1.75,No,sure,cr,1.3940601348876953,NA
66,p#di385,False,51,1,unequal,ST1_high_1_a1,P != T2?,Same,1,1,high,82,1.53,112,1.13,82,1.6,Yes,sure,hit,5.6478540897369385,NA
67,p#di385,False,52,1,unequal,ST1_high_1_a1,P != T1?,Same,1,1,high,82,1.52,112,1.23,82,1.38,No,sure,cr,1.6430399417877197,NA
68,p#di385,False,53,1,unequal,ST1_high_1_a1,P != T1?,Same,1,1,high,82,1.39,112,1.01,82,1.33,No,sure,cr,1.9157440662384033,NA
69,p#di385,False,54,1,unequal,ST1_low_4_a2,P != T1?,Same,1,2,low,112,1.05,70,1.71,112,0.96,No,quiteSure,cr,2.6535720825195312,NA
70,p#di385,False,55,1,unequal,ST1_low_1_a2,P != T1?,Same,1,2,low,82,1.57,132,0.91,82,1.63,No,quiteSure,cr,2.205467939376831,NA
71,p#di385,False,56,1,unequal,ST2_high_1_a2,P != T1?,Same,2,2,high,82,1.34,112,0.95,112,0.96,Yes,sure,hit,3.3728861808776855,NA
72,p#di385,False,57,1,unequal,ST1_high_4_a2,P != T1?,Same,1,2,high,96,1.22,70,1.57,96,1.37,No,quiteSure,cr,2.3590478897094727,NA
73,p#di385,False,58,1,unequal,ST1_high_2_a2,P != T2?,Same,1,2,high,112,1.01,82,1.5,112,1.16,No,quiteSure,miss,2.0252699851989746,NA
74,p#di385,False,59,1,unequal,ST2_low_6_a2,P != T2?,Same,2,2,low,154,0.83,96,1.19,96,1.22,No,quiteSure,cr,1.552381992340088,NA
75,p#di385,False,60,1,unequal,ST2_high_5_a1,P != T2?,Same,2,1,high,96,1.06,132,0.8,132,0.99,No,sure,cr,1.9569878578186035,NA
76,p#di385,False,61,1,unequal,ST2_high_2_a2,P != T2?,Same,2,2,high,112,1.16,82,1.35,82,1.59,No,sure,cr,1.91163969039917,NA
77,p#di385,False,62,1,unequal,ST2_high_6_a1,P != T1?,Same,2,1,high,132,0.9,96,1.29,96,1.33,No,unsure,miss,7.783634185791016,NA
78,p#di385,False,63,1,unequal,ST1_low_6_a1,P != T1?,Same,1,1,low,154,0.87,96,1.1,154,0.83,No,unsure,cr,3.9410035610198975,NA
79,p#di385,False,64,1,unequal,ST2_high_5_a2,P != T2?,Same,2,2,high,96,1.11,132,0.93,132,1.0,No,sure,cr,1.7980008125305176,NA
80,p#di385,False,65,1,unequal,ST1_low_3_a2,P != T2?,Same,1,2,low,70,1.48,112,0.95,70,1.56,Yes,sure,hit,5.2486841678619385,NA
81,p#di385,False,66,1,unequal,ST1_high_2_a1,P != T1?,Same,1,1,high,112,1.23,82,1.63,112,1.06,No,quiteSure,cr,3.193234920501709,NA
82,p#di385,False,67,1,unequal,ST2_high_4_a2,P != T2?,Same,2,2,high,96,1.15,70,1.76,70,1.81,No,sure,cr,1.7909328937530518,NA
83,p#di385,False,68,1,unequal,ST2_low_3_a1,P != T2?,Same,2,1,low,70,1.67,112,1.16,112,0.92,No,sure,cr,1.4440279006958008,NA
84,p#di385,False,69,1,unequal,ST1_low_1_a1,P != T1?,Same,1,1,low,82,1.29,132,1.03,82,1.25,No,sure,cr,1.5072920322418213,NA
85,p#di385,False,70,1,unequal,ST2_high_4_a1,P != T1?,Same,2,1,high,96,1.4,70,1.56,70,1.81,No,sure,miss,1.5270378589630127,NA
86,p#di385,False,71,1,unequal,ST1_high_6_a2,P != T1?,Same,1,2,high,132,0.84,96,1.41,132,1.04,No,sure,cr,1.5306129455566406,NA
87,p#di385,False,72,1,unequal,ST1_low_2_a2,P != T2?,Same,1,2,low,132,0.84,82,1.51,132,0.79,Yes,sure,hit,1.7755358219146729,NA
88,p#di385,False,73,1,unequal,ST1_high_2_a2,P != T1?,Same,1,2,high,112,0.92,82,1.63,112,1.18,No,sure,cr,3.1925950050354004,NA
89,p#di385,False,74,1,unequal,ST2_high_6_a1,P != T1?,Same,2,1,high,132,0.89,96,1.36,96,1.12,Yes,sure,hit,2.8976199626922607,NA
90,p#di385,False,75,1,unequal,ST1_low_4_a2,P != T2?,Same,1,2,low,112,1.32,70,1.98,112,1.24,Yes,sure,hit,1.5333819389343262,NA
91,p#di385,False,76,1,unequal,ST1_high_3_a1,P != T2?,Same,1,1,high,70,1.66,96,1.14,70,1.51,No,unsure,miss,3.8260140419006348,NA
92,p#di385,False,77,1,unequal,STb_7_a2,P != T2?,Same,0,2,None,154,0.86,154,0.81,154,0.91,No,quiteSure,cr,1.3465628623962402,NA
93,p#di385,False,78,1,unequal,ST2_low_2_a1,P != T1?,Same,2,1,low,132,0.8,82,1.3,82,1.55,Yes,sure,hit,1.5980589389801025,NA
94,p#di385,False,79,1,unequal,ST2_high_2_a2,P != T1?,Same,2,2,high,112,1.0,82,1.44,82,1.54,Yes,quiteSure,hit,6.772545099258423,NA
95,p#di385,False,80,1,unequal,ST1_low_1_a1,P != T1?,Same,1,1,low,82,1.64,132,0.85,82,1.31,No,sure,cr,3.732930898666382,NA
96,p#di385,False,81,1,unequal,STb_7_a1,P != T2?,Same,0,1,None,154,0.87,154,0.84,154,0.84,No,sure,cr,1.1031312942504883,NA
97,p#di385,False,82,1,unequal,ST2_low_1_a2,P != T1?,Same,2,2,low,82,1.21,132,1.07,132,1.02,Yes,sure,hit,1.527364730834961,NA
98,p#di385,False,83,1,unequal,ST2_low_1_a2,P != T1?,Same,2,2,low,82,1.58,132,0.81,132,1.06,Yes,sure,hit,1.0758869647979736,NA
99,p#di385,False,84,1,unequal,ST1_low_2_a1,P != T2?,Same,1,1,low,132,0.86,82,1.45,132,0.83,Yes,quiteSure,hit,6.119333982467651,NA
100,p#di385,False,85,1,unequal,ST2_high_6_a2,P != T1?,Same,2,2,high,132,0.83,96,1.1,96,1.29,Yes,sure,hit,1.9540679454803467,NA
101,p#di385,False,86,1,unequal,ST2_high_1_a1,P != T2?,Same,2,1,high,82,1.32,112,0.93,112,1.22,No,sure,cr,1.5988459587097168,NA
102,p#di385,False,87,1,unequal,ST1_low_1_a1,P != T2?,Same,1,1,low,82,1.35,132,0.9,82,1.51,Yes,sure,hit,3.103236198425293,NA
103,p#di385,False,88,1,unequal,ST1_low_4_a1,P != T1?,Same,1,1,low,112,1.2,70,1.82,112,1.16,No,sure,cr,1.3923919200897217,NA
104,p#di385,False,89,1,unequal,STb_6_a1,P != T1?,Same,0,1,None,132,0.71,132,0.93,132,0.96,No,sure,cr,1.6664092540740967,NA
105,p#di385,False,90,1,unequal,ST1_high_6_a1,P != T1?,Same,1,1,high,132,1.02,96,1.39,132,0.96,No,sure,cr,1.2806029319763184,NA
106,p#di385,False,91,1,unequal,ST2_high_4_a2,P != T1?,Same,2,2,high,96,0.94,70,1.3,70,1.37,No,sure,miss,1.352222204208374,NA
107,p#di385,False,92,1,unequal,ST2_low_5_a2,P != T2?,Same,2,2,low,96,1.26,154,0.86,154,0.74,No,quiteSure,cr,2.2444980144500732,NA
108,p#di385,False,93,1,unequal,ST1_high_6_a2,P != T2?,Same,1,2,high,132,0.82,96,1.1,132,1.04,Yes,quiteSure,hit,3.0663700103759766,NA
109,p#di385,False,94,1,unequal,DT1_high_3_a1,P != T1?,Different,1,1,high,70,1.69,96,1.11,60,2.01,No,quiteSure,cr,1.5777089595794678,NA
110,p#di385,False,95,1,unequal,ST2_low_6_a2,P != T2?,Same,2,2,low,154,0.74,96,1.34,96,1.39,No,quiteSure,cr,1.7532799243927002,NA
111,p#di385,False,96,1,unequal,ST1_low_5_a1,P != T2?,Same,1,1,low,96,1.21,154,0.83,96,1.16,Yes,unsure,hit,3.420346975326538,NA
112,p#di385,False,97,1,unequal,ST2_low_2_a1,P != T2?,Same,2,1,low,132,1.01,82,1.63,82,1.52,No,sure,cr,1.3488950729370117,NA
113,p#di385,False,98,1,unequal,ST1_high_3_a2,P != T1?,Same,1,2,high,70,1.73,96,1.35,70,1.64,No,quiteSure,cr,2.496731758117676,NA
114,p#di385,False,99,1,unequal,ST2_low_6_a1,P != T1?,Same,2,1,low,154,0.84,96,1.27,96,1.13,Yes,sure,hit,2.3153903484344482,NA
115,p#di385,False,100,1,unequal,ST1_low_5_a2,P != T2?,Same,1,2,low,96,1.16,154,0.81,96,1.4,Yes,sure,hit,1.3024919033050537,NA
116,p#di385,False,101,1,unequal,ST2_high_6_a2,P != T2?,Same,2,2,high,132,0.84,96,1.28,96,1.06,No,sure,cr,1.4164090156555176,NA
117,p#di385,False,102,1,unequal,DT2_low_2_a2,P != T1?,Different,2,2,low,132,0.84,82,1.45,70,1.74,No,unsure,miss,4.028439044952393,NA
118,p#di385,False,103,1,unequal,ST1_high_4_a1,P != T1?,Same,1,1,high,96,1.32,70,1.48,96,1.13,No,quiteSure,cr,1.287757158279419,NA
119,p#di385,False,104,1,unequal,STb_2_a2,P != T2?,Same,0,2,None,70,1.49,70,1.51,70,1.53,No,quiteSure,cr,2.4343461990356445,NA
120,p#di385,False,105,1,unequal,ST1_low_1_a2,P != T2?,Same,1,2,low,82,1.31,132,0.98,82,1.57,No,sure,miss,6.279403924942017,NA
121,p#di385,False,106,1,unequal,STb_3_a1,P != T1?,Same,0,1,None,82,1.41,82,1.58,82,1.49,No,quiteSure,cr,2.1861162185668945,NA
122,p#di385,False,107,1,unequal,ST1_high_2_a2,P != T1?,Same,1,2,high,112,0.98,82,1.41,112,1.08,No,sure,cr,1.5510079860687256,NA
123,p#di385,False,108,1,unequal,ST2_high_5_a1,P != T1?,Same,2,1,high,96,1.06,132,0.8,132,0.97,Yes,unsure,hit,3.372262954711914,NA
124,p#di385,False,109,1,unequal,ST2_high_5_a2,P != T1?,Same,2,2,high,96,1.21,132,0.94,132,0.79,Yes,unsure,hit,6.553800106048584,NA
125,p#di385,False,110,1,unequal,ST1_low_2_a1,P != T2?,Same,1,1,low,132,0.91,82,1.36,132,0.87,No,sure,miss,1.772547721862793,NA
126,p#di385,False,111,1,unequal,ST2_high_5_a1,P != T2?,Same,2,1,high,96,1.41,132,1.06,132,1.0,No,sure,cr,1.144252061843872,NA
127,p#di385,False,112,1,unequal,ST2_high_5_a2,P != T1?,Same,2,2,high,96,1.24,132,0.83,132,1.02,No,sure,miss,1.166882038116455,NA
128,p#di385,False,113,1,unequal,ST2_high_5_a2,P != T1?,Same,2,2,high,96,1.16,132,0.87,132,0.91,No,quiteSure,miss,3.1278910636901855,NA
129,p#di385,False,114,1,unequal,ST1_low_2_a2,P != T1?,Same,1,2,low,132,0.91,82,1.54,132,0.98,No,sure,cr,1.664062261581421,NA
130,p#di385,False,115,1,unequal,STb_7_a2,P != T1?,Same,0,2,None,154,0.87,154,0.85,154,0.89,No,unsure,cr,7.114339113235474,NA
131,p#di385,False,116,1,unequal,ST2_high_3_a2,P != T2?,Same,2,2,high,70,1.64,96,1.09,96,1.07,No,sure,cr,1.8441691398620605,NA
132,p#di385,False,117,1,unequal,ST1_low_3_a1,P != T1?,Same,1,1,low,70,1.58,112,0.95,70,1.77,No,sure,cr,1.1695690155029297,NA
133,p#di385,False,118,1,unequal,ST2_high_6_a2,P != T1?,Same,2,2,high,132,0.97,96,1.42,96,1.38,No,quiteSure,miss,3.213512897491455,NA
134,p#di385,False,119,1,unequal,ST2_low_3_a2,P != T2?,Same,2,2,low,70,1.46,112,0.92,112,1.01,No,quiteSure,cr,3.2601592540740967,NA
135,p#di385,False,120,1,unequal,ST1_high_5_a2,P != T2?,Same,1,2,high,96,1.24,132,0.93,96,1.13,No,sure,miss,0.805121898651123,NA
136,p#di385,False,121,1,unequal,ST2_high_3_a1,P != T2?,Same,2,1,high,70,1.46,96,1.25,96,1.38,No,quiteSure,cr,3.03755784034729,NA
137,p#di385,False,122,1,unequal,ST2_high_1_a2,P != T1?,Same,2,2,high,82,1.49,112,1.02,112,1.18,Yes,quiteSure,hit,3.3971610069274902,NA
138,p#di385,False,123,1,unequal,ST2_high_1_a1,P != T2?,Same,2,1,high,82,1.39,112,0.96,112,1.15,Yes,quiteSure,fa,1.8691473007202148,NA
139,p#di385,False,124,1,unequal,ST1_high_2_a1,P != T1?,Same,1,1,high,112,1.21,82,1.43,112,0.95,No,quiteSure,cr,1.77504301071167,NA
140,p#di385,False,125,1,unequal,ST1_high_5_a1,P != T1?,Same,1,1,high,96,1.18,132,0.82,96,1.38,No,quiteSure,cr,1.6865742206573486,NA
141,p#di385,False,126,1,unequal,ST2_high_4_a1,P != T2?,Same,2,1,high,96,1.15,70,1.48,70,1.58,No,sure,cr,3.2619552612304688,NA
142,p#di385,False,127,1,unequal,ST2_high_2_a1,P != T2?,Same,2,1,high,112,0.96,82,1.21,82,1.48,No,quiteSure,cr,1.707991123199463,NA
143,p#di385,False,128,1,unequal,ST2_high_4_a1,P != T1?,Same,2,1,high,96,1.28,70,1.8,70,1.67,Yes,quiteSure,hit,1.689201831817627,NA
144,p#di385,False,129,1,unequal,ST2_low_5_a1,P != T2?,Same,2,1,low,96,1.33,154,0.84,154,0.71,No,sure,cr,1.4164140224456787,NA
145,p#di385,False,130,1,unequal,ST2_low_3_a2,P != T1?,Same,2,2,low,70,1.4,112,1.17,112,1.14,Yes,quiteSure,hit,2.897000312805176,NA
146,p#di385,False,131,1,unequal,ST1_high_6_a1,P != T1?,Same,1,1,high,132,0.9,96,1.35,132,0.81,No,sure,cr,1.5953989028930664,NA
147,p#di385,False,132,1,unequal,ST1_high_6_a2,P != T1?,Same,1,2,high,132,0.88,96,1.42,132,0.84,No,sure,cr,1.728945016860962,NA
148,p#di385,False,133,1,unequal,ST1_low_5_a1,P != T1?,Same,1,1,low,96,1.36,154,0.83,96,1.37,No,sure,cr,1.3974978923797607,NA
149,p#di385,False,134,1,unequal,ST1_low_4_a1,P != T1?,Same,1,1,low,112,0.95,70,1.51,112,1.22,No,sure,cr,1.9574511051177979,NA
150,p#di385,False,135,1,unequal,ST1_low_5_a2,P != T2?,Same,1,2,low,96,1.41,154,0.92,96,1.23,Yes,sure,hit,1.303178071975708,NA
151,p#di385,False,136,1,unequal,ST1_low_6_a2,P != T2?,Same,1,2,low,154,0.79,96,1.36,154,0.89,Yes,sure,hit,1.4358229637145996,NA
152,p#di385,False,137,1,unequal,ST2_high_3_a1,P != T1?,Same,2,1,high,70,1.55,96,1.16,96,1.2,No,sure,miss,2.1844730377197266,NA
153,p#di385,False,138,1,unequal,ST1_high_5_a2,P != T2?,Same,1,2,high,96,1.42,132,0.91,96,1.37,No,sure,miss,1.6634738445281982,NA
154,p#di385,False,139,1,unequal,ST2_low_4_a2,P != T2?,Same,2,2,low,112,1.01,70,1.79,70,1.38,No,sure,cr,1.3686299324035645,NA
155,p#di385,False,140,1,unequal,ST1_low_2_a1,P != T1?,Same,1,1,low,132,0.84,82,1.43,132,0.98,No,sure,cr,1.2811298370361328,NA
156,p#di385,False,141,1,unequal,ST2_low_2_a1,P != T1?,Same,2,1,low,132,1.0,82,1.32,82,1.44,Yes,sure,hit,1.9353218078613281,NA
157,p#di385,False,142,1,unequal,ST2_high_1_a1,P != T1?,Same,2,1,high,82,1.34,112,1.23,112,1.13,No,quiteSure,miss,1.7555687427520752,NA
158,p#di385,False,143,1,unequal,ST2_high_5_a2,P != T2?,Same,2,2,high,96,1.11,132,0.84,132,0.88,No,sure,cr,1.664639949798584,NA
159,p#di385,False,144,1,unequal,DT1_low_3_a2,P != T2?,Different,1,2,low,70,1.74,112,1.04,60,1.99,Yes,sure,hit,2.0234107971191406,NA
160,p#di385,False,145,1,unequal,ST1_high_4_a2,P != T2?,Same,1,2,high,96,1.14,70,1.7,96,1.07,Yes,sure,hit,5.041702032089233,NA
161,p#di385,False,146,1,unequal,ST2_low_1_a1,P != T2?,Same,2,1,low,82,1.5,132,0.93,132,0.9,No,quiteSure,cr,1.417433261871338,NA
162,p#di385,False,147,1,unequal,ST1_high_4_a2,P != T1?,Same,1,2,high,96,1.26,70,1.51,96,1.42,No,quiteSure,cr,3.4840810298919678,NA
163,p#di385,False,148,1,unequal,STb_5_a1,P != T1?,Same,0,1,None,112,1.12,112,1.04,112,1.03,No,sure,cr,0.9897730350494385,NA
164,p#di385,False,149,1,unequal,ST2_high_4_a2,P != T1?,Same,2,2,high,96,1.14,70,1.73,70,1.49,Yes,sure,hit,1.5469942092895508,NA
165,p#di385,False,150,1,unequal,ST1_low_1_a1,P != T2?,Same,1,1,low,82,1.37,132,1.0,82,1.51,Yes,sure,hit,5.081387758255005,NA
166,p#di385,False,151,1,unequal,ST2_low_5_a1,P != T1?,Same,2,1,low,96,1.08,154,0.79,154,0.75,Yes,sure,hit,1.483314037322998,NA
167,p#di385,False,152,1,unequal,ST2_low_4_a2,P != T2?,Same,2,2,low,112,1.1,70,1.83,70,1.5,No,sure,cr,5.442904710769653,NA
168,p#di385,False,153,1,unequal,ST1_low_5_a1,P != T1?,Same,1,1,low,96,1.17,154,0.84,96,1.33,No,sure,cr,3.24065899848938,NA
169,p#di385,False,154,1,unequal,ST1_low_1_a2,P != T1?,Same,1,2,low,82,1.43,132,0.91,82,1.32,No,sure,cr,1.3273630142211914,NA
170,p#di385,False,155,1,unequal,ST2_low_6_a1,P != T1?,Same,2,1,low,154,0.79,96,1.41,96,1.25,Yes,sure,hit,2.251878023147583,NA
171,p#di385,False,156,1,unequal,ST2_low_6_a1,P != T2?,Same,2,1,low,154,0.83,96,1.26,96,1.15,No,sure,cr,1.098633050918579,NA
172,p#di385,False,157,1,unequal,ST2_high_5_a2,P != T2?,Same,2,2,high,96,1.1,132,1.05,132,0.82,No,sure,cr,2.1149680614471436,NA
173,p#di385,False,158,1,unequal,ST1_high_5_a2,P != T1?,Same,1,2,high,96,1.29,132,1.03,96,1.2,Yes,sure,fa,1.080444097518921,NA
174,p#di385,False,159,1,unequal,ST1_high_3_a1,P != T2?,Same,1,1,high,70,1.52,96,1.39,70,1.69,No,sure,miss,1.1239521503448486,NA
175,p#di385,False,160,1,unequal,ST2_high_6_a2,P != T2?,Same,2,2,high,132,0.85,96,1.21,96,1.42,No,sure,cr,1.1934089660644531,NA
176,p#di385,False,161,1,unequal,ST1_low_5_a2,P != T1?,Same,1,2,low,96,1.2,154,0.77,96,1.19,No,sure,cr,3.218474864959717,NA
177,p#di385,False,162,1,unequal,ST1_low_6_a1,P != T2?,Same,1,1,low,154,0.8,96,1.07,154,0.73,Yes,unsure,hit,6.594231128692627,NA
178,p#di385,False,163,1,unequal,ST1_high_2_a2,P != T2?,Same,1,2,high,112,1.16,82,1.49,112,1.12,Yes,sure,hit,1.5285780429840088,NA
179,p#di385,False,164,1,unequal,ST1_high_3_a2,P != T1?,Same,1,2,high,70,1.84,96,1.24,70,1.57,No,sure,cr,1.7307229042053223,NA
180,p#di385,False,165,1,unequal,ST2_high_3_a1,P != T2?,Same,2,1,high,70,1.47,96,1.42,96,1.23,Yes,sure,fa,1.146914005279541,NA
181,p#di385,False,166,1,unequal,ST1_high_6_a2,P != T1?,Same,1,2,high,132,0.87,96,1.14,132,0.9,No,sure,cr,1.9332349300384521,NA
182,p#di385,False,167,1,unequal,ST2_low_2_a1,P != T1?,Same,2,1,low,132,0.99,82,1.44,82,1.31,Yes,unsure,hit,1.756911039352417,NA
183,p#di385,False,168,1,unequal,ST2_low_6_a2,P != T1?,Same,2,2,low,154,0.89,96,1.12,96,1.19,Yes,quiteSure,hit,1.0593080520629883,NA
184,p#di385,False,169,1,unequal,STb_2_a1,P != T2?,Same,0,1,None,70,1.4,70,1.46,70,1.48,No,sure,cr,0.7167069911956787,NA
185,p#di385,False,170,1,unequal,ST1_high_4_a1,P != T1?,Same,1,1,high,96,1.39,70,1.61,96,1.32,No,quiteSure,cr,0.8553838729858398,NA
186,p#di385,False,171,1,unequal,ST2_low_2_a2,P != T2?,Same,2,2,low,132,0.81,82,1.46,82,1.26,No,sure,cr,2.1364541053771973,NA
187,p#di385,False,172,1,unequal,ST1_low_6_a2,P != T1?,Same,1,2,low,154,0.9,96,1.36,154,0.89,No,quiteSure,cr,3.105170965194702,NA
188,p#di385,False,173,1,unequal,ST2_high_4_a2,P != T2?,Same,2,2,high,96,1.24,70,1.6,70,1.85,No,sure,cr,1.2138469219207764,NA
189,p#di385,False,174,1,unequal,ST1_high_6_a1,P != T1?,Same,1,1,high,132,0.82,96,1.23,132,0.96,No,quiteSure,cr,1.3065752983093262,NA
190,p#di385,False,175,1,unequal,ST1_low_6_a2,P != T1?,Same,1,2,low,154,0.74,96,1.09,154,0.87,No,quiteSure,cr,1.576611042022705,NA
191,p#di385,False,176,1,unequal,ST2_high_3_a2,P != T1?,Same,2,2,high,70,1.57,96,1.36,96,1.21,Yes,sure,hit,1.3691458702087402,NA
192,p#di385,False,177,1,unequal,ST1_high_5_a1,P != T1?,Same,1,1,high,96,1.24,132,1.01,96,1.09,No,sure,cr,1.8880610466003418,NA
193,p#di385,False,178,1,unequal,ST2_low_4_a1,P != T2?,Same,2,1,low,112,1.22,70,1.63,70,1.56,No,sure,cr,1.8181450366973877,NA
194,p#di385,False,179,1,unequal,ST2_low_1_a2,P != T2?,Same,2,2,low,82,1.62,132,0.84,132,0.81,No,sure,cr,2.1371347904205322,NA
195,p#di385,False,180,1,unequal,ST1_low_4_a1,P != T2?,Same,1,1,low,112,1.19,70,1.51,112,1.15,No,quiteSure,miss,3.7085769176483154,NA
196,p#di385,False,181,1,unequal,ST2_high_3_a2,P != T2?,Same,2,2,high,70,1.54,96,1.43,96,1.36,No,quiteSure,cr,4.812885999679565,NA
197,p#di385,False,182,1,unequal,ST1_high_6_a1,P != T2?,Same,1,1,high,132,0.84,96,1.31,132,0.84,No,sure,miss,1.1442880630493164,NA
198,p#di385,False,183,1,unequal,ST1_low_1_a1,P != T1?,Same,1,1,low,82,1.27,132,0.9,82,1.62,No,quiteSure,cr,1.8190548419952393,NA
199,p#di385,False,184,1,unequal,ST1_low_4_a2,P != T1?,Same,1,2,low,112,0.93,70,1.69,112,1.08,No,sure,cr,1.2015819549560547,NA
200,p#di385,False,185,1,unequal,ST2_high_5_a1,P != T2?,Same,2,1,high,96,1.32,132,1.03,132,0.87,Yes,unsure,fa,9.38184118270874,NA
201,p#di385,False,186,1,unequal,ST1_low_3_a2,P != T1?,Same,1,2,low,70,1.73,112,1.0,70,1.48,No,sure,cr,1.7781918048858643,NA
202,p#di385,False,187,1,unequal,ST1_high_2_a1,P != T2?,Same,1,1,high,112,1.04,82,1.45,112,1.03,No,sure,miss,1.1261789798736572,NA
203,p#di385,False,188,1,unequal,ST2_low_5_a1,P != T2?,Same,2,1,low,96,1.07,154,0.87,154,0.82,No,quiteSure,cr,1.3714885711669922,NA
204,p#di385,False,189,1,unequal,ST2_low_4_a1,P != T2?,Same,2,1,low,112,1.21,70,1.78,70,1.38,Yes,sure,fa,1.889482021331787,NA
205,p#di385,False,190,1,unequal,ST1_low_5_a2,P != T1?,Same,1,2,low,96,1.13,154,0.94,96,1.25,No,sure,cr,1.0740628242492676,NA
206,p#di385,False,191,1,unequal,ST2_high_2_a2,P != T1?,Same,2,2,high,112,0.96,82,1.51,82,1.44,Yes,unsure,hit,1.8168251514434814,NA
207,p#di385,False,192,1,unequal,ST2_high_2_a2,P != T1?,Same,2,2,high,112,1.17,82,1.44,82,1.49,Yes,unsure,hit,1.3298077583312988,NA
208,p#di385,False,193,1,unequal,ST1_high_1_a2,P != T2?,Same,1,2,high,82,1.61,112,1.03,82,1.44,Yes,quiteSure,hit,2.295560121536255,NA
209,p#di385,False,194,1,unequal,ST2_high_2_a1,P != T2?,Same,2,1,high,112,0.99,82,1.61,82,1.23,No,quiteSure,cr,1.7535290718078613,NA
210,p#di385,False,195,1,unequal,ST1_low_6_a1,P != T1?,Same,1,1,low,154,0.73,96,1.42,154,0.77,No,quiteSure,cr,2.089083194732666,NA
211,p#di385,False,196,1,unequal,ST2_low_2_a2,P != T1?,Same,2,2,low,132,1.03,82,1.64,82,1.23,No,quiteSure,miss,3.4854929447174072,NA
212,p#di385,False,197,1,unequal,ST1_high_5_a1,P != T1?,Same,1,1,high,96,1.38,132,0.88,96,1.36,No,sure,cr,1.6839380264282227,NA
213,p#di385,False,198,1,unequal,DT1_low_2_a1,P != T2?,Different,1,1,low,132,0.92,82,1.3,154,0.89,No,quiteSure,miss,5.353281021118164,NA
214,p#di385,False,199,1,unequal,ST2_low_4_a2,P != T2?,Same,2,2,low,112,1.2,70,1.57,70,1.72,No,sure,cr,1.5287449359893799,NA
215,p#di385,False,200,1,unequal,ST2_high_3_a1,P != T2?,Same,2,1,high,70,1.5,96,1.28,96,1.39,No,sure,cr,1.641955852508545,NA
216,p#di385,False,201,1,unequal,ST2_low_4_a2,P != T1?,Same,2,2,low,112,1.09,70,1.43,70,1.42,Yes,unsure,hit,3.0235612392425537,NA
217,p#di385,False,202,1,unequal,ST1_low_2_a2,P != T2?,Same,1,2,low,132,0.81,82,1.48,132,0.94,Yes,sure,hit,1.5703318119049072,NA
218,p#di385,False,203,1,unequal,ST2_low_5_a2,P != T2?,Same,2,2,low,96,1.3,154,0.88,154,0.92,No,sure,cr,1.8471450805664062,NA
219,p#di385,False,204,1,unequal,ST1_high_5_a2,P != T1?,Same,1,2,high,96,1.32,132,0.8,96,1.15,No,sure,cr,2.049470901489258,NA
220,p#di385,False,205,1,unequal,ST1_high_2_a1,P != T1?,Same,1,1,high,112,1.1,82,1.39,112,1.21,No,unsure,cr,4.767959117889404,NA
221,p#di385,False,206,1,unequal,ST1_high_5_a1,P != T2?,Same,1,1,high,96,1.27,132,0.94,96,1.39,No,sure,miss,1.4601218700408936,NA
222,p#di385,False,207,1,unequal,ST1_high_3_a1,P != T1?,Same,1,1,high,70,1.79,96,1.25,70,1.48,No,sure,cr,1.2571728229522705,NA
223,p#di385,False,208,1,unequal,ST1_high_3_a1,P != T1?,Same,1,1,high,70,1.65,96,1.36,70,1.71,Yes,unsure,fa,1.507664680480957,NA
224,p#di385,False,209,1,unequal,STb_3_a2,P != T1?,Same,0,2,None,82,1.64,82,1.62,82,1.5,No,sure,cr,1.4055118560791016,NA
225,p#di385,False,210,1,unequal,ST2_low_6_a1,P != T1?,Same,2,1,low,154,0.92,96,1.06,96,1.33,Yes,sure,hit,1.4153268337249756,NA
226,p#di385,False,211,1,unequal,ST1_high_4_a2,P != T2?,Same,1,2,high,96,1.35,70,1.51,96,1.26,No,unsure,miss,4.757251024246216,NA
227,p#di385,False,212,1,unequal,DT2_low_3_a1,P != T1?,Different,2,1,low,70,1.46,112,1.15,132,0.8,No,sure,miss,3.244259834289551,NA
228,p#di385,False,213,1,unequal,ST2_low_5_a2,P != T1?,Same,2,2,low,96,1.09,154,0.75,154,0.73,Yes,sure,hit,7.105753660202026,NA
229,p#di385,False,214,1,unequal,ST2_low_3_a2,P != T2?,Same,2,2,low,70,1.55,112,1.02,112,0.99,No,sure,cr,1.9557640552520752,NA
230,p#di385,False,215,1,unequal,ST1_high_3_a2,P != T2?,Same,1,2,high,70,1.77,96,1.28,70,1.8,Yes,unsure,hit,6.280592918395996,NA
231,p#di385,False,216,1,unequal,ST2_low_5_a2,P != T1?,Same,2,2,low,96,1.13,154,0.88,154,0.74,Yes,quiteSure,hit,3.4646189212799072,NA
232,p#di385,False,217,1,unequal,ST1_low_4_a1,P != T2?,Same,1,1,low,112,1.21,70,1.59,112,1.06,Yes,sure,hit,2.137152910232544,NA
233,p#di385,False,218,1,unequal,DT2_low_5_a2,P != T1?,Different,2,2,low,96,1.07,154,0.87,180,0.85,Yes,sure,hit,3.528918981552124,NA
234,p#di385,False,219,1,unequal,ST1_low_3_a2,P != T1?,Same,1,2,low,70,1.66,112,1.01,70,1.71,Yes,unsure,fa,17.01117968559265,NA
235,p#di385,False,220,1,unequal,ST2_low_2_a1,P != T2?,Same,2,1,low,132,1.05,82,1.6,82,1.53,No,sure,cr,2.4927589893341064,NA
236,p#di385,False,221,1,unequal,ST1_high_6_a2,P != T2?,Same,1,2,high,132,0.92,96,1.2,132,1.02,No,unsure,miss,2.7006092071533203,NA
237,p#di385,False,222,1,unequal,ST1_high_5_a1,P != T2?,Same,1,1,high,96,1.23,132,0.85,96,1.24,Yes,quiteSure,hit,1.4369640350341797,NA
238,p#di385,False,223,1,unequal,ST1_low_1_a2,P != T2?,Same,1,2,low,82,1.28,132,0.87,82,1.35,Yes,quiteSure,hit,2.273603916168213,NA
239,p#di385,False,224,1,unequal,DT1_high_5_a2,P != T2?,Different,1,2,high,96,1.23,132,1.01,82,1.24,No,unsure,miss,1.4881999492645264,NA
240,p#di385,False,225,1,unequal,ST1_low_2_a1,P != T1?,Same,1,1,low,132,0.96,82,1.34,132,0.79,No,unsure,cr,3.3760781288146973,NA
241,p#di385,False,226,1,unequal,STb_4_a2,P != T2?,Same,0,2,None,96,1.23,96,1.23,96,1.36,No,quiteSure,cr,1.8224422931671143,NA
242,p#di385,False,227,1,unequal,ST1_high_5_a2,P != T1?,Same,1,2,high,96,1.41,132,0.82,96,1.4,No,sure,cr,1.4142627716064453,NA
243,p#di385,False,228,1,unequal,ST1_high_2_a2,P != T1?,Same,1,2,high,112,1.17,82,1.31,112,1.08,No,quiteSure,cr,2.0920348167419434,NA
244,p#di385,False,229,1,unequal,ST1_high_6_a1,P != T2?,Same,1,1,high,132,0.9,96,1.41,132,0.88,No,quiteSure,miss,2.67472505569458,NA
245,p#di385,False,230,1,unequal,ST1_high_5_a1,P != T2?,Same,1,1,high,96,1.25,132,0.88,96,1.26,Yes,sure,hit,2.8587799072265625,NA
246,p#di385,False,231,1,unequal,STb_3_a1,P != T2?,Same,0,1,None,82,1.42,82,1.45,82,1.38,No,sure,cr,1.3722941875457764,NA
247,p#di385,False,232,1,unequal,ST1_high_4_a1,P != T1?,Same,1,1,high,96,1.06,70,1.7,96,1.15,No,quiteSure,cr,3.754915952682495,NA
248,p#di385,False,233,1,unequal,ST1_high_4_a1,P != T2?,Same,1,1,high,96,1.19,70,1.64,96,1.43,Yes,quiteSure,hit,2.0362801551818848,NA
249,p#di385,False,234,1,unequal,ST2_high_2_a1,P != T2?,Same,2,1,high,112,1.16,82,1.26,82,1.3,No,sure,cr,1.5052940845489502,NA
250,p#di385,False,235,1,unequal,ST1_high_2_a2,P != T2?,Same,1,2,high,112,1.01,82,1.44,112,1.17,Yes,quiteSure,hit,2.0221309661865234,NA
251,p#di385,False,236,1,unequal,ST1_low_5_a1,P != T2?,Same,1,1,low,96,1.24,154,0.75,96,1.16,Yes,sure,hit,2.386343002319336,NA
252,p#di385,False,237,1,unequal,ST2_low_2_a2,P != T1?,Same,2,2,low,132,0.85,82,1.4,82,1.56,Yes,unsure,hit,2.520443916320801,NA
253,p#di385,False,238,1,unequal,ST2_high_2_a1,P != T1?,Same,2,1,high,112,1.09,82,1.34,82,1.31,Yes,unsure,hit,3.4898087978363037,NA
254,p#di385,False,239,1,unequal,ST2_low_1_a2,P != T2?,Same,2,2,low,82,1.41,132,0.99,132,0.98,No,sure,cr,3.7545249462127686,NA
255,p#di385,False,240,1,unequal,ST1_high_1_a2,P != T1?,Same,1,2,high,82,1.23,112,1.2,82,1.58,No,sure,cr,1.4416992664337158,NA
256,p#di385,False,241,1,unequal,ST2_high_1_a1,P != T2?,Same,2,1,high,82,1.48,112,1.11,112,1.12,No,sure,cr,1.192553997039795,NA
257,p#di385,False,242,1,unequal,ST2_low_4_a2,P != T1?,Same,2,2,low,112,0.95,70,1.76,70,1.4,No,sure,miss,1.6848790645599365,NA
258,p#di385,False,243,1,unequal,ST2_high_6_a1,P != T2?,Same,2,1,high,132,0.9,96,1.36,96,1.35,No,sure,cr,3.2881269454956055,NA
259,p#di385,False,244,1,unequal,ST1_low_4_a2,P != T1?,Same,1,2,low,112,1.13,70,1.54,112,1.12,No,sure,cr,4.454603910446167,NA
260,p#di385,False,245,1,unequal,ST2_low_2_a2,P != T1?,Same,2,2,low,132,0.95,82,1.61,82,1.62,Yes,sure,hit,2.83535099029541,NA
261,p#di385,False,246,1,unequal,ST1_low_1_a1,P != T2?,Same,1,1,low,82,1.27,132,0.83,82,1.58,Yes,sure,hit,1.7370710372924805,NA
262,p#di385,False,247,1,unequal,ST1_high_1_a2,P != T2?,Same,1,2,high,82,1.33,112,1.14,82,1.41,Yes,quiteSure,hit,8.529486179351807,NA
263,p#di385,False,248,1,unequal,ST1_low_1_a2,P != T1?,Same,1,2,low,82,1.62,132,0.97,82,1.24,No,sure,cr,3.2857089042663574,NA
264,p#di385,False,249,1,unequal,ST1_high_4_a1,P != T2?,Same,1,1,high,96,1.18,70,1.66,96,1.24,No,sure,miss,1.3490970134735107,NA
265,p#di385,False,250,1,unequal,ST1_low_5_a1,P != T1?,Same,1,1,low,96,1.17,154,0.8,96,1.06,No,quiteSure,cr,4.88138484954834,NA
266,p#di385,False,251,1,unequal,ST1_high_6_a2,P != T2?,Same,1,2,high,132,0.96,96,1.36,132,1.05,Yes,unsure,hit,1.577744960784912,NA
267,p#di385,False,252,1,unequal,ST2_low_6_a2,P != T2?,Same,2,2,low,154,0.84,96,1.43,96,1.21,No,quiteSure,cr,1.4370172023773193,NA
268,p#di385,False,253,1,unequal,DT2_low_3_a2,P != T2?,Different,2,2,low,70,1.48,112,0.98,132,0.79,No,unsure,cr,2.894932985305786,NA
269,p#di385,False,254,1,unequal,ST2_low_5_a1,P != T1?,Same,2,1,low,96,1.34,154,0.95,154,0.92,Yes,quiteSure,hit,2.790069818496704,NA
270,p#di385,False,255,1,unequal,ST1_low_3_a1,P != T2?,Same,1,1,low,70,1.4,112,1.08,70,1.46,Yes,sure,hit,3.6250839233398438,NA
271,p#di385,False,256,1,unequal,ST1_low_4_a2,P != T2?,Same,1,2,low,112,1.13,70,1.53,112,1.16,Yes,quiteSure,hit,1.3353588581085205,NA
272,p#di385,False,257,1,unequal,ST1_low_2_a2,P != T1?,Same,1,2,low,132,0.89,82,1.5,132,0.97,No,quiteSure,cr,1.529019832611084,NA
273,p#di385,False,258,1,unequal,ST2_low_1_a2,P != T2?,Same,2,2,low,82,1.42,132,0.84,132,0.96,No,sure,cr,3.398298978805542,NA
274,p#di385,False,259,1,unequal,ST2_high_1_a1,P != T1?,Same,2,1,high,82,1.59,112,1.03,112,1.13,Yes,quiteSure,hit,2.5839788913726807,NA
275,p#di385,False,260,1,unequal,STb_6_a2,P != T1?,Same,0,2,None,132,0.87,132,1.03,132,0.84,No,sure,cr,1.4143452644348145,NA
276,p#di385,False,261,1,unequal,ST1_low_1_a2,P != T2?,Same,1,2,low,82,1.55,132,0.79,82,1.45,Yes,sure,hit,2.7662570476531982,NA
277,p#di385,False,262,1,unequal,ST1_low_6_a2,P != T1?,Same,1,2,low,154,0.72,96,1.43,154,0.94,No,sure,cr,2.70033597946167,NA
278,p#di385,False,263,1,unequal,ST2_low_4_a1,P != T1?,Same,2,1,low,112,0.95,70,1.64,70,1.73,Yes,sure,hit,2.5443530082702637,NA
279,p#di385,False,264,1,unequal,ST1_high_4_a2,P != T1?,Same,1,2,high,96,1.24,70,1.37,96,1.17,No,unsure,cr,7.6485817432403564,NA
280,p#di385,False,265,1,unequal,ST2_low_1_a1,P != T1?,Same,2,1,low,82,1.33,132,0.82,132,0.83,Yes,sure,hit,1.3455910682678223,NA
281,p#di385,False,266,1,unequal,ST2_high_4_a2,P != T2?,Same,2,2,high,96,1.1,70,1.61,70,1.82,No,sure,cr,3.0121328830718994,NA
282,p#di385,False,267,1,unequal,ST1_high_3_a1,P != T2?,Same,1,1,high,70,1.51,96,1.14,70,1.49,No,sure,miss,2.9249401092529297,NA
283,p#di385,False,268,1,unequal,ST2_high_4_a1,P != T1?,Same,2,1,high,96,1.13,70,1.49,70,1.59,Yes,unsure,hit,4.452692031860352,NA
284,p#di385,False,269,1,unequal,ST2_low_4_a2,P != T1?,Same,2,2,low,112,1.02,70,1.61,70,1.58,Yes,quiteSure,hit,1.2148151397705078,NA
285,p#di385,False,270,1,unequal,ST2_low_5_a2,P != T2?,Same,2,2,low,96,1.22,154,0.91,154,0.91,No,sure,cr,1.4860620498657227,NA
286,p#di385,False,271,1,unequal,DT2_high_1_a2,P != T1?,Different,2,2,high,82,1.52,112,0.92,132,1.03,Yes,quiteSure,hit,1.6845409870147705,NA
287,p#di385,False,272,1,unequal,ST1_low_2_a1,P != T1?,Same,1,1,low,132,0.94,82,1.36,132,1.06,No,sure,cr,1.2593028545379639,NA
288,p#di385,False,273,1,unequal,ST2_low_1_a1,P != T1?,Same,2,1,low,82,1.54,132,0.81,132,0.84,Yes,sure,hit,2.115891218185425,NA
289,p#di385,False,274,1,unequal,ST2_low_1_a1,P != T1?,Same,2,1,low,82,1.62,132,0.85,132,0.84,Yes,unsure,hit,5.6260130405426025,NA
290,p#di385,False,275,1,unequal,ST1_low_6_a1,P != T2?,Same,1,1,low,154,0.71,96,1.35,154,0.71,No,quiteSure,miss,1.7047629356384277,NA
291,p#di385,False,276,1,unequal,ST2_high_3_a2,P != T1?,Same,2,2,high,70,1.74,96,1.16,96,1.42,No,unsure,miss,6.637267827987671,NA
292,p#di385,False,277,1,unequal,ST2_low_6_a2,P != T1?,Same,2,2,low,154,0.92,96,1.36,96,1.28,Yes,sure,hit,1.2328379154205322,NA
293,p#di385,False,278,1,unequal,ST2_low_6_a1,P != T2?,Same,2,1,low,154,0.75,96,1.39,96,1.35,No,sure,cr,1.2813019752502441,NA
294,p#di385,False,279,1,unequal,STb_8_a1,P != T1?,Same,0,1,None,180,0.74,180,0.87,180,0.84,No,sure,cr,0.6501576900482178,NA
295,p#di385,False,280,1,unequal,ST1_low_6_a1,P != T1?,Same,1,1,low,154,0.92,96,1.27,154,0.89,No,sure,cr,1.556755781173706,NA
296,p#di385,False,281,1,unequal,ST1_high_3_a2,P != T1?,Same,1,2,high,70,1.87,96,1.01,70,1.54,No,sure,cr,1.2992541790008545,NA
297,p#di385,False,282,1,unequal,ST1_high_1_a2,P != T1?,Same,1,2,high,82,1.27,112,1.01,82,1.43,No,sure,cr,1.4126739501953125,NA
298,p#di385,False,283,1,unequal,DT2_high_5_a1,P != T1?,Different,2,1,high,96,1.31,132,0.92,154,0.75,Yes,quiteSure,hit,1.218310832977295,NA
299,p#di385,False,284,1,unequal,ST2_high_3_a2,P != T1?,Same,2,2,high,70,1.78,96,1.08,96,1.25,Yes,unsure,hit,1.7759690284729004,NA
300,p#di385,False,285,1,unequal,ST2_high_1_a2,P != T2?,Same,2,2,high,82,1.53,112,1.01,112,1.02,No,quiteSure,cr,2.2710368633270264,NA
301,p#di385,False,286,1,unequal,ST1_high_3_a2,P != T2?,Same,1,2,high,70,1.85,96,1.25,70,1.49,No,unsure,miss,1.941645860671997,NA
302,p#di385,False,287,1,unequal,ST1_low_6_a1,P != T2?,Same,1,1,low,154,0.9,96,1.33,154,0.73,Yes,quiteSure,hit,5.060720205307007,NA
303,p#di385,False,288,1,unequal,ST2_high_1_a2,P != T2?,Same,2,2,high,82,1.41,112,1.16,112,1.06,No,sure,cr,1.638472318649292,NA
304,p#di385,False,289,1,unequal,ST2_low_3_a1,P != T2?,Same,2,1,low,70,1.71,112,1.02,112,0.92,No,sure,cr,1.1712510585784912,NA
305,p#di385,False,290,1,unequal,ST1_low_2_a2,P != T1?,Same,1,2,low,132,1.03,82,1.24,132,0.83,No,quiteSure,cr,1.9124999046325684,NA
306,p#di385,False,291,1,unequal,ST2_high_2_a2,P != T2?,Same,2,2,high,112,1.04,82,1.63,82,1.57,No,sure,cr,1.5944139957427979,NA
307,p#di385,False,292,1,unequal,ST2_high_5_a1,P != T1?,Same,2,1,high,96,1.43,132,0.8,132,0.94,Yes,sure,hit,1.0128138065338135,NA
308,p#di385,False,293,1,unequal,ST1_high_2_a1,P != T2?,Same,1,1,high,112,1.21,82,1.24,112,1.06,Yes,sure,hit,1.3702259063720703,NA
309,p#di385,False,294,1,unequal,ST1_low_3_a2,P != T2?,Same,1,2,low,70,1.76,112,0.97,70,1.62,Yes,sure,hit,1.7767419815063477,NA
310,p#di385,False,295,1,unequal,ST2_low_5_a1,P != T1?,Same,2,1,low,96,1.11,154,0.94,154,0.9,Yes,sure,hit,2.002460241317749,NA
311,p#di385,False,296,1,unequal,ST1_high_3_a2,P != T2?,Same,1,2,high,70,1.49,96,1.25,70,1.4,Yes,sure,hit,1.5734148025512695,NA
312,p#di385,False,297,1,unequal,ST2_low_3_a1,P != T1?,Same,2,1,low,70,1.65,112,0.92,112,1.15,Yes,sure,hit,1.7775330543518066,NA
313,p#di385,False,298,1,unequal,ST2_low_4_a1,P != T2?,Same,2,1,low,112,0.94,70,1.42,70,1.55,No,sure,cr,1.3034818172454834,NA
314,p#di385,False,299,1,unequal,ST1_low_5_a2,P != T1?,Same,1,2,low,96,1.35,154,0.91,96,1.34,No,quiteSure,cr,1.7054190635681152,NA
315,p#di385,False,300,1,unequal,ST2_low_3_a2,P != T2?,Same,2,2,low,70,1.48,112,0.97,112,0.95,No,quiteSure,cr,1.3072350025177002,NA
316,p#di385,False,301,1,unequal,ST1_high_6_a1,P != T2?,Same,1,1,high,132,0.82,96,1.3,132,1.05,Yes,sure,hit,1.5081400871276855,NA
317,p#di385,False,302,1,unequal,ST2_low_1_a2,P != T1?,Same,2,2,low,82,1.4,132,0.81,132,0.9,Yes,unsure,hit,1.2822208404541016,NA
318,p#di385,False,303,1,unequal,ST2_high_5_a1,P != T1?,Same,2,1,high,96,1.4,132,0.96,132,0.95,Yes,unsure,hit,1.553191900253296,NA
319,p#di385,False,304,1,unequal,ST2_high_2_a1,P != T1?,Same,2,1,high,112,1.03,82,1.41,82,1.47,Yes,quiteSure,hit,2.6267311573028564,NA
320,p#di385,False,305,1,unequal,ST2_low_3_a2,P != T1?,Same,2,2,low,70,1.42,112,1.17,112,0.94,Yes,sure,hit,1.3466260433197021,NA
321,p#di385,False,306,1,unequal,ST1_high_3_a1,P != T1?,Same,1,1,high,70,1.4,96,1.32,70,1.57,No,quiteSure,cr,1.7089250087738037,NA
322,p#di385,False,307,1,unequal,ST2_high_1_a2,P != T1?,Same,2,2,high,82,1.62,112,1.09,112,0.99,Yes,sure,hit,0.9986879825592041,NA
323,p#di385,False,308,1,unequal,ST2_low_3_a1,P != T2?,Same,2,1,low,70,1.85,112,1.12,112,1.17,No,sure,cr,1.3483939170837402,NA
324,p#di385,False,309,1,unequal,ST1_low_4_a1,P != T2?,Same,1,1,low,112,1.17,70,1.75,112,1.05,Yes,sure,hit,0.8978188037872314,NA
325,p#di385,False,310,1,unequal,ST1_low_2_a2,P != T2?,Same,1,2,low,132,0.89,82,1.31,132,0.99,Yes,sure,hit,0.8310329914093018,NA
326,p#di385,False,311,1,unequal,ST1_high_2_a1,P != T2?,Same,1,1,high,112,0.93,82,1.31,112,0.95,Yes,sure,hit,0.7884469032287598,NA
327,p#di385,False,312,1,unequal,ST2_high_2_a1,P != T1?,Same,2,1,high,112,1.11,82,1.41,82,1.44,Yes,sure,hit,2.0056698322296143,NA
328,p#di385,False,313,1,unequal,ST1_high_4_a2,P != T2?,Same,1,2,high,96,1.1,70,1.59,96,1.13,Yes,sure,hit,2.0013649463653564,NA
329,p#di385,False,314,1,unequal,ST1_low_4_a1,P != T1?,Same,1,1,low,112,0.95,70,1.74,112,0.93,No,sure,cr,1.9784579277038574,NA
330,p#di385,False,315,1,unequal,ST2_high_6_a1,P != T2?,Same,2,1,high,132,0.9,96,1.36,96,1.23,No,sure,cr,1.2339861392974854,NA
331,p#di385,False,316,1,unequal,ST2_high_1_a2,P != T2?,Same,2,2,high,82,1.26,112,0.98,112,1.14,No,sure,cr,0.9881401062011719,NA
332,p#di385,False,317,1,unequal,ST1_low_3_a2,P != T1?,Same,1,2,low,70,1.79,112,1.2,70,1.71,No,sure,cr,1.1954329013824463,NA
333,p#di385,False,318,1,unequal,ST1_low_3_a1,P != T2?,Same,1,1,low,70,1.63,112,0.94,70,1.85,Yes,sure,hit,0.9669709205627441,NA
334,p#di385,False,319,1,unequal,ST1_low_4_a2,P != T2?,Same,1,2,low,112,0.93,70,1.55,112,1.15,Yes,sure,hit,1.505924940109253,NA
335,p#di385,False,320,1,unequal,DT1_high_4_a2,P != T1?,Different,1,2,high,96,1.02,70,1.66,112,1.25,No,sure,cr,1.0766139030456543,1.0
