,pcode,practice,trial,block,questionType,condition,question,PTS,TargetPosition,AccessoryPosition,TNS,T1_hz,T1_amp,T2_hz,T2_amp,P_hz,P_amp,response_dicho,response_rating,response_sdt,rt,P_correct
0,!48c0za,True,1,1,unequal,ST1_high_2_a2,P != T2?,Same,1,2,high,112,1.16,82,1.39,112,1.14,Yes,unsure,hit,3.223325252532959,NA
1,!48c0za,True,2,1,unequal,DT1_high_1_a2,P != T2?,Different,1,2,high,82,1.57,112,0.94,70,1.62,Yes,unsure,hit,3.4975509643554688,NA
2,!48c0za,True,3,1,unequal,ST2_high_6_a1,P != T1?,Same,2,1,high,132,1.0,96,1.13,96,1.04,Yes,unsure,hit,2.949970006942749,NA
3,!48c0za,True,4,1,unequal,DT2_low_3_a1,P != T1?,Different,2,1,low,70,1.82,112,1.11,132,1.01,Yes,unsure,hit,3.445591926574707,NA
4,!48c0za,True,5,1,unequal,ST2_high_1_a2,P != T1?,Same,2,2,high,82,1.33,112,0.9,112,1.04,Yes,unsure,hit,2.2312209606170654,NA
5,!48c0za,True,6,1,unequal,DT1_low_2_a2,P != T2?,Different,1,2,low,132,0.92,82,1.63,154,0.73,Yes,sure,hit,1.846520185470581,NA
6,!48c0za,True,7,1,unequal,STb_3_a1,P != T2?,Same,0,1,None,82,1.31,82,1.32,82,1.62,No,quiteSure,cr,2.8874518871307373,NA
7,!48c0za,True,8,1,unequal,ST2_high_6_a1,P != T2?,Same,2,1,high,132,0.8,96,0.95,96,1.22,Yes,unsure,fa,2.2350170612335205,NA
8,!48c0za,True,9,1,unequal,ST1_high_2_a1,P != T2?,Same,1,1,high,112,1.04,82,1.38,112,0.84,No,unsure,miss,3.967405080795288,NA
9,!48c0za,True,10,1,unequal,ST1_high_1_a1,P != T1?,Same,1,1,high,82,1.69,112,0.97,82,1.37,No,unsure,cr,4.7098119258880615,NA
10,!48c0za,True,11,1,unequal,DT2_high_5_a1,P != T1?,Different,2,1,high,96,1.08,132,0.99,154,0.86,Yes,unsure,hit,3.7414300441741943,NA
11,!48c0za,True,12,1,unequal,STb_5_a1,P != T2?,Same,0,1,None,112,1.13,112,1.07,112,1.14,No,quiteSure,cr,3.720273017883301,NA
12,!48c0za,True,13,1,unequal,ST2_low_3_a2,P != T2?,Same,2,2,low,70,1.98,112,0.97,112,1.19,No,quiteSure,cr,2.557009220123291,NA
13,!48c0za,True,14,1,unequal,STb_8_a1,P != T1?,Same,0,1,None,180,0.83,180,0.84,180,0.9,No,quiteSure,cr,2.139500141143799,NA
14,!48c0za,True,15,1,unequal,ST1_high_5_a1,P != T1?,Same,1,1,high,96,1.34,132,0.98,96,0.99,No,unsure,cr,2.8904519081115723,NA
15,!48c0za,True,16,1,unequal,STb_4_a1,P != T1?,Same,0,1,None,96,1.08,96,1.25,96,1.4,No,quiteSure,cr,4.821765899658203,0.75
16,!48c0za,False,1,1,unequal,ST2_low_3_a2,P != T1?,Same,2,2,low,70,1.38,112,1.05,112,1.12,Yes,unsure,hit,6.39971399307251,NA
17,!48c0za,False,2,1,unequal,ST2_high_5_a2,P != T1?,Same,2,2,high,96,1.16,132,0.79,132,1.05,Yes,quiteSure,hit,2.2100930213928223,NA
18,!48c0za,False,3,1,unequal,ST2_low_2_a2,P != T1?,Same,2,2,low,132,0.97,82,1.29,82,1.5,No,unsure,miss,3.529654026031494,NA
19,!48c0za,False,4,1,unequal,ST1_high_2_a2,P != T2?,Same,1,2,high,112,1.01,82,1.37,112,0.98,Yes,unsure,hit,2.0975699424743652,NA
20,!48c0za,False,5,1,unequal,ST2_high_2_a2,P != T2?,Same,2,2,high,112,0.98,82,1.24,82,1.39,No,quiteSure,cr,2.289285659790039,NA
21,!48c0za,False,6,1,unequal,ST1_high_4_a1,P != T2?,Same,1,1,high,96,1.42,70,1.5,96,1.06,Yes,unsure,hit,6.283476829528809,NA
22,!48c0za,False,7,1,unequal,ST1_low_2_a2,P != T2?,Same,1,2,low,132,0.79,82,1.32,132,0.83,Yes,unsure,hit,6.221675157546997,NA
23,!48c0za,False,8,1,unequal,ST2_high_1_a2,P != T2?,Same,2,2,high,82,1.59,112,1.0,112,1.0,No,quiteSure,cr,3.225666046142578,NA
24,!48c0za,False,9,1,unequal,ST1_high_6_a2,P != T2?,Same,1,2,high,132,1.0,96,1.27,132,0.81,Yes,quiteSure,hit,4.370936870574951,NA
25,!48c0za,False,10,1,unequal,ST1_high_5_a2,P != T1?,Same,1,2,high,96,1.42,132,0.84,96,1.14,No,quiteSure,cr,1.5379571914672852,NA
26,!48c0za,False,11,1,unequal,ST1_high_5_a1,P != T1?,Same,1,1,high,96,1.26,132,0.86,96,1.31,No,unsure,cr,1.7819819450378418,NA
27,!48c0za,False,12,1,unequal,DT1_low_3_a2,P != T1?,Different,1,2,low,70,1.57,112,0.94,60,1.8,No,unsure,cr,3.6057510375976562,NA
28,!48c0za,False,13,1,unequal,ST2_low_6_a2,P != T1?,Same,2,2,low,154,0.92,96,1.13,96,1.41,Yes,quiteSure,hit,4.866780042648315,NA
29,!48c0za,False,14,1,unequal,ST1_high_4_a2,P != T1?,Same,1,2,high,96,1.31,70,1.57,96,1.34,No,unsure,cr,2.2536461353302,NA
30,!48c0za,False,15,1,unequal,ST2_low_4_a1,P != T2?,Same,2,1,low,112,1.01,70,1.58,70,1.38,No,quiteSure,cr,2.816049814224243,NA
31,!48c0za,False,16,1,unequal,ST2_high_3_a1,P != T2?,Same,2,1,high,70,1.67,96,1.25,96,1.07,No,quiteSure,cr,1.3951139450073242,NA
32,!48c0za,False,17,1,unequal,ST2_low_2_a1,P != T2?,Same,2,1,low,132,0.88,82,1.42,82,1.43,No,unsure,cr,2.7955520153045654,NA
33,!48c0za,False,18,1,unequal,ST1_low_2_a1,P != T1?,Same,1,1,low,132,1.01,82,1.27,132,1.02,No,quiteSure,cr,1.6933140754699707,NA
34,!48c0za,False,19,1,unequal,ST1_low_4_a1,P != T1?,Same,1,1,low,112,1.01,70,1.79,112,1.1,No,quiteSure,cr,1.8284451961517334,NA
35,!48c0za,False,20,1,unequal,ST1_high_5_a1,P != T2?,Same,1,1,high,96,1.32,132,1.04,96,1.19,Yes,unsure,hit,2.5470809936523438,NA
36,!48c0za,False,21,1,unequal,ST2_low_2_a1,P != T2?,Same,2,1,low,132,0.87,82,1.42,82,1.62,No,quiteSure,cr,1.7800960540771484,NA
37,!48c0za,False,22,1,unequal,ST2_low_1_a2,P != T1?,Same,2,2,low,82,1.44,132,0.9,132,0.83,Yes,quiteSure,hit,3.828157901763916,NA
38,!48c0za,False,23,1,unequal,ST2_low_6_a2,P != T2?,Same,2,2,low,154,0.86,96,1.28,96,1.14,No,quiteSure,cr,1.85394287109375,NA
39,!48c0za,False,24,1,unequal,ST1_low_5_a2,P != T2?,Same,1,2,low,96,1.36,154,0.71,96,1.31,Yes,unsure,hit,3.6683027744293213,NA
40,!48c0za,False,25,1,unequal,ST2_low_6_a1,P != T2?,Same,2,1,low,154,0.81,96,1.21,96,1.42,No,quiteSure,cr,2.0028369426727295,NA
41,!48c0za,False,26,1,unequal,ST1_low_5_a2,P != T1?,Same,1,2,low,96,1.3,154,0.87,96,1.17,No,quiteSure,cr,1.5358431339263916,NA
42,!48c0za,False,27,1,unequal,ST2_high_1_a2,P != T1?,Same,2,2,high,82,1.42,112,0.96,112,1.18,Yes,quiteSure,hit,3.2018439769744873,NA
43,!48c0za,False,28,1,unequal,ST2_high_5_a2,P != T1?,Same,2,2,high,96,1.3,132,0.93,132,1.05,No,unsure,miss,2.1172120571136475,NA
44,!48c0za,False,29,1,unequal,ST2_high_5_a2,P != T1?,Same,2,2,high,96,1.13,132,0.85,132,1.0,No,unsure,miss,1.66994309425354,NA
45,!48c0za,False,30,1,unequal,ST1_low_1_a2,P != T2?,Same,1,2,low,82,1.52,132,1.01,82,1.49,Yes,quiteSure,hit,2.7058029174804688,NA
46,!48c0za,False,31,1,unequal,ST1_low_5_a1,P != T1?,Same,1,1,low,96,1.28,154,0.75,96,1.27,No,unsure,cr,1.3314549922943115,NA
47,!48c0za,False,32,1,unequal,ST2_low_3_a1,P != T2?,Same,2,1,low,70,1.76,112,1.04,112,1.21,No,unsure,cr,3.3586459159851074,NA
48,!48c0za,False,33,1,unequal,ST1_low_5_a1,P != T1?,Same,1,1,low,96,1.13,154,0.9,96,1.31,No,unsure,cr,5.044710874557495,NA
49,!48c0za,False,34,1,unequal,DT1_low_2_a2,P != T1?,Different,1,2,low,132,0.84,82,1.27,154,0.74,No,quiteSure,cr,1.1449060440063477,NA
50,!48c0za,False,35,1,unequal,ST2_low_5_a1,P != T2?,Same,2,1,low,96,1.14,154,0.9,154,0.94,No,quiteSure,cr,2.5438969135284424,NA
51,!48c0za,False,36,1,unequal,ST1_low_1_a1,P != T2?,Same,1,1,low,82,1.23,132,0.95,82,1.29,Yes,quiteSure,hit,4.640129089355469,NA
52,!48c0za,False,37,1,unequal,ST2_high_2_a1,P != T1?,Same,2,1,high,112,1.0,82,1.3,82,1.63,No,unsure,miss,4.072719097137451,NA
53,!48c0za,False,38,1,unequal,ST2_low_4_a1,P != T2?,Same,2,1,low,112,1.13,70,1.64,70,1.72,No,quiteSure,cr,2.2362539768218994,NA
54,!48c0za,False,39,1,unequal,ST1_low_2_a2,P != T2?,Same,1,2,low,132,1.04,82,1.28,132,0.93,Yes,unsure,hit,5.110940933227539,NA
55,!48c0za,False,40,1,unequal,ST1_high_2_a2,P != T2?,Same,1,2,high,112,1.16,82,1.39,112,1.14,Yes,unsure,hit,2.8886866569519043,NA
56,!48c0za,False,41,1,unequal,STb_7_a1,P != T2?,Same,0,1,None,154,0.79,154,0.89,154,0.95,No,sure,cr,2.8183093070983887,NA
57,!48c0za,False,42,1,unequal,ST2_high_4_a1,P != T2?,Same,2,1,high,96,1.17,70,1.72,70,1.79,No,quiteSure,cr,2.5934810638427734,NA
58,!48c0za,False,43,1,unequal,ST2_low_2_a2,P != T2?,Same,2,2,low,132,0.93,82,1.3,82,1.48,No,quiteSure,cr,2.9473752975463867,NA
59,!48c0za,False,44,1,unequal,ST1_high_2_a1,P != T1?,Same,1,1,high,112,1.0,82,1.29,112,1.19,No,quiteSure,cr,5.764113187789917,NA
60,!48c0za,False,45,1,unequal,ST1_high_1_a2,P != T2?,Same,1,2,high,82,1.22,112,0.93,82,1.37,Yes,unsure,hit,4.388625860214233,NA
61,!48c0za,False,46,1,unequal,ST1_low_3_a2,P != T2?,Same,1,2,low,70,1.4,112,1.03,70,1.71,Yes,quiteSure,hit,3.679013967514038,NA
62,!48c0za,False,47,1,unequal,STb_6_a1,P != T2?,Same,0,1,None,132,0.87,132,0.99,132,0.86,No,quiteSure,cr,2.496703863143921,NA
63,!48c0za,False,48,1,unequal,ST1_low_6_a2,P != T1?,Same,1,2,low,154,0.91,96,1.09,154,0.78,No,unsure,cr,2.9732956886291504,NA
64,!48c0za,False,49,1,unequal,ST2_high_6_a2,P != T2?,Same,2,2,high,132,0.98,96,1.08,96,1.32,No,quiteSure,cr,1.667145013809204,NA
65,!48c0za,False,50,1,unequal,ST1_high_3_a1,P != T2?,Same,1,1,high,70,1.73,96,1.24,70,1.43,Yes,unsure,hit,2.4565539360046387,NA
66,!48c0za,False,51,1,unequal,ST1_high_6_a2,P != T1?,Same,1,2,high,132,0.82,96,1.34,132,0.83,No,quiteSure,cr,1.9148812294006348,NA
67,!48c0za,False,52,1,unequal,STb_8_a1,P != T2?,Same,0,1,None,180,0.87,180,0.9,180,0.74,No,quiteSure,cr,2.121066093444824,NA
68,!48c0za,False,53,1,unequal,ST1_high_5_a2,P != T1?,Same,1,2,high,96,1.07,132,0.99,96,1.1,No,unsure,cr,2.862450122833252,NA
69,!48c0za,False,54,1,unequal,ST2_low_2_a1,P != T1?,Same,2,1,low,132,0.96,82,1.6,82,1.33,Yes,quiteSure,hit,2.656694173812866,NA
70,!48c0za,False,55,1,unequal,DT2_low_5_a2,P != T2?,Different,2,2,low,96,1.32,154,0.77,180,0.93,Yes,unsure,fa,2.954164981842041,NA
71,!48c0za,False,56,1,unequal,ST2_high_3_a1,P != T1?,Same,2,1,high,70,1.78,96,1.18,96,1.37,Yes,quiteSure,hit,3.3532469272613525,NA
72,!48c0za,False,57,1,unequal,ST1_high_4_a2,P != T1?,Same,1,2,high,96,1.08,70,1.54,96,1.08,No,unsure,cr,3.494638204574585,NA
73,!48c0za,False,58,1,unequal,ST1_high_3_a1,P != T2?,Same,1,1,high,70,1.65,96,1.4,70,1.68,Yes,unsure,hit,4.005247116088867,NA
74,!48c0za,False,59,1,unequal,ST2_low_4_a1,P != T1?,Same,2,1,low,112,1.04,70,1.84,70,1.53,Yes,sure,hit,3.2199831008911133,NA
75,!48c0za,False,60,1,unequal,ST2_high_2_a2,P != T2?,Same,2,2,high,112,1.15,82,1.58,82,1.38,No,quiteSure,cr,1.9607291221618652,NA
76,!48c0za,False,61,1,unequal,ST2_low_3_a1,P != T2?,Same,2,1,low,70,1.67,112,1.23,112,0.96,No,quiteSure,cr,2.6118898391723633,NA
77,!48c0za,False,62,1,unequal,ST1_high_5_a1,P != T2?,Same,1,1,high,96,1.41,132,0.87,96,1.4,No,quiteSure,miss,1.5599260330200195,NA
78,!48c0za,False,63,1,unequal,DT1_high_1_a2,P != T1?,Different,1,2,high,82,1.35,112,0.92,70,1.6,No,unsure,cr,4.684176921844482,NA
79,!48c0za,False,64,1,unequal,ST2_high_1_a2,P != T1?,Same,2,2,high,82,1.24,112,1.08,112,1.1,Yes,quiteSure,hit,2.463320016860962,NA
80,!48c0za,False,65,1,unequal,ST1_high_1_a2,P != T1?,Same,1,2,high,82,1.45,112,1.11,82,1.21,No,quiteSure,cr,2.053194999694824,NA
81,!48c0za,False,66,1,unequal,ST2_high_6_a2,P != T1?,Same,2,2,high,132,0.9,96,1.11,96,1.23,No,quiteSure,miss,1.490232229232788,NA
82,!48c0za,False,67,1,unequal,ST1_low_4_a1,P != T2?,Same,1,1,low,112,1.2,70,1.6,112,0.98,Yes,quiteSure,hit,2.8171098232269287,NA
83,!48c0za,False,68,1,unequal,ST2_high_6_a2,P != T1?,Same,2,2,high,132,0.96,96,1.41,96,1.27,Yes,unsure,hit,2.6288280487060547,NA
84,!48c0za,False,69,1,unequal,ST2_high_1_a1,P != T2?,Same,2,1,high,82,1.59,112,0.98,112,1.08,No,quiteSure,cr,2.014885902404785,NA
85,!48c0za,False,70,1,unequal,STb_4_a2,P != T1?,Same,0,2,None,96,1.23,96,1.35,96,1.42,Yes,quiteSure,fa,2.8808388710021973,NA
86,!48c0za,False,71,1,unequal,ST1_high_2_a2,P != T1?,Same,1,2,high,112,1.05,82,1.33,112,1.12,No,unsure,cr,5.521608114242554,NA
87,!48c0za,False,72,1,unequal,ST2_high_3_a2,P != T2?,Same,2,2,high,70,1.74,96,1.23,96,1.25,No,sure,cr,1.4376649856567383,NA
88,!48c0za,False,73,1,unequal,ST1_low_4_a2,P != T2?,Same,1,2,low,112,1.04,70,1.38,112,1.17,No,unsure,miss,13.034852743148804,NA
89,!48c0za,False,74,1,unequal,ST1_high_6_a2,P != T2?,Same,1,2,high,132,0.85,96,1.06,132,0.82,Yes,quiteSure,hit,8.95586609840393,NA
90,!48c0za,False,75,1,unequal,ST1_low_6_a1,P != T2?,Same,1,1,low,154,0.88,96,1.28,154,0.8,Yes,quiteSure,hit,7.8849451541900635,NA
91,!48c0za,False,76,1,unequal,ST1_high_4_a1,P != T1?,Same,1,1,high,96,1.28,70,1.66,96,1.36,No,quiteSure,cr,3.557537078857422,NA
92,!48c0za,False,77,1,unequal,ST1_low_3_a2,P != T2?,Same,1,2,low,70,1.54,112,1.12,70,1.6,Yes,quiteSure,hit,7.029476881027222,NA
93,!48c0za,False,78,1,unequal,ST2_low_3_a2,P != T2?,Same,2,2,low,70,1.41,112,1.18,112,1.16,Yes,quiteSure,fa,4.129615068435669,NA
94,!48c0za,False,79,1,unequal,ST2_low_6_a2,P != T2?,Same,2,2,low,154,0.74,96,1.18,96,1.19,No,quiteSure,cr,4.076367139816284,NA
95,!48c0za,False,80,1,unequal,ST1_high_1_a1,P != T2?,Same,1,1,high,82,1.38,112,1.01,82,1.54,Yes,quiteSure,hit,4.189768075942993,NA
96,!48c0za,False,81,1,unequal,ST1_high_3_a1,P != T1?,Same,1,1,high,70,1.82,96,1.38,70,1.55,No,quiteSure,cr,3.6045989990234375,NA
97,!48c0za,False,82,1,unequal,ST1_high_3_a2,P != T1?,Same,1,2,high,70,1.76,96,1.37,70,1.79,No,quiteSure,cr,2.595755100250244,NA
98,!48c0za,False,83,1,unequal,ST1_high_6_a2,P != T1?,Same,1,2,high,132,0.8,96,1.28,132,0.89,No,quiteSure,cr,4.076843976974487,NA
99,!48c0za,False,84,1,unequal,ST1_high_6_a1,P != T1?,Same,1,1,high,132,0.93,96,1.11,132,1.05,No,quiteSure,cr,2.9072628021240234,NA
100,!48c0za,False,85,1,unequal,ST1_high_1_a2,P != T1?,Same,1,2,high,82,1.62,112,1.03,82,1.43,No,quiteSure,cr,3.0416088104248047,NA
101,!48c0za,False,86,1,unequal,ST1_low_6_a2,P != T2?,Same,1,2,low,154,0.9,96,1.19,154,0.81,Yes,quiteSure,hit,3.471162796020508,NA
102,!48c0za,False,87,1,unequal,ST1_low_4_a2,P != T1?,Same,1,2,low,112,1.12,70,1.53,112,1.12,No,quiteSure,cr,2.498785972595215,NA
103,!48c0za,False,88,1,unequal,ST1_high_6_a1,P != T1?,Same,1,1,high,132,0.82,96,1.08,132,0.94,No,quiteSure,cr,2.905704975128174,NA
104,!48c0za,False,89,1,unequal,ST1_low_2_a1,P != T1?,Same,1,1,low,132,0.8,82,1.51,132,0.82,No,quiteSure,cr,3.8462870121002197,NA
105,!48c0za,False,90,1,unequal,ST1_low_5_a2,P != T1?,Same,1,2,low,96,1.35,154,0.84,96,1.29,No,quiteSure,cr,1.5812287330627441,NA
106,!48c0za,False,91,1,unequal,ST2_low_2_a1,P != T2?,Same,2,1,low,132,0.92,82,1.5,82,1.28,No,quiteSure,cr,4.617356061935425,NA
107,!48c0za,False,92,1,unequal,ST1_low_4_a1,P != T2?,Same,1,1,low,112,1.2,70,1.79,112,1.09,No,unsure,miss,3.221756935119629,NA
108,!48c0za,False,93,1,unequal,ST1_low_2_a1,P != T2?,Same,1,1,low,132,0.81,82,1.25,132,0.85,Yes,unsure,hit,8.057449102401733,NA
109,!48c0za,False,94,1,unequal,ST1_low_2_a1,P != T2?,Same,1,1,low,132,0.79,82,1.35,132,0.94,Yes,unsure,hit,2.3701093196868896,NA
110,!48c0za,False,95,1,unequal,ST1_high_1_a1,P != T2?,Same,1,1,high,82,1.45,112,1.02,82,1.45,Yes,unsure,hit,2.8219990730285645,NA
111,!48c0za,False,96,1,unequal,ST1_low_1_a2,P != T1?,Same,1,2,low,82,1.42,132,0.85,82,1.21,No,quiteSure,cr,2.3716578483581543,NA
112,!48c0za,False,97,1,unequal,ST1_high_2_a2,P != T2?,Same,1,2,high,112,1.2,82,1.27,112,1.06,Yes,unsure,hit,2.778263807296753,NA
113,!48c0za,False,98,1,unequal,ST2_low_2_a2,P != T1?,Same,2,2,low,132,0.79,82,1.25,82,1.22,Yes,quiteSure,hit,3.1564090251922607,NA
114,!48c0za,False,99,1,unequal,STb_2_a1,P != T1?,Same,0,1,None,70,1.44,70,1.8,70,1.64,No,unsure,cr,2.5225889682769775,NA
115,!48c0za,False,100,1,unequal,ST2_high_1_a2,P != T1?,Same,2,2,high,82,1.33,112,0.9,112,1.04,No,unsure,miss,1.7590608596801758,NA
116,!48c0za,False,101,1,unequal,ST1_low_6_a2,P != T1?,Same,1,2,low,154,0.93,96,1.14,154,0.88,No,quiteSure,cr,2.7056097984313965,NA
117,!48c0za,False,102,1,unequal,ST1_low_5_a1,P != T2?,Same,1,1,low,96,1.18,154,0.72,96,1.22,Yes,quiteSure,hit,4.660112142562866,NA
118,!48c0za,False,103,1,unequal,ST1_high_3_a2,P != T1?,Same,1,2,high,70,1.81,96,1.42,70,1.53,No,quiteSure,cr,1.6720597743988037,NA
119,!48c0za,False,104,1,unequal,ST2_low_5_a1,P != T2?,Same,2,1,low,96,1.25,154,0.81,154,0.81,No,sure,cr,1.4931259155273438,NA
120,!48c0za,False,105,1,unequal,ST2_high_4_a2,P != T1?,Same,2,2,high,96,1.31,70,1.68,70,1.58,Yes,unsure,hit,3.4968738555908203,NA
121,!48c0za,False,106,1,unequal,STb_4_a1,P != T2?,Same,0,1,None,96,1.19,96,1.29,96,1.29,No,quiteSure,cr,2.250594139099121,NA
122,!48c0za,False,107,1,unequal,DT2_low_1_a1,P != T1?,Different,2,1,low,82,1.25,132,1.02,154,0.94,Yes,unsure,hit,3.4660048484802246,NA
123,!48c0za,False,108,1,unequal,STb_5_a1,P != T1?,Same,0,1,None,112,1.19,112,1.21,112,1.17,No,quiteSure,cr,2.370620012283325,NA
124,!48c0za,False,109,1,unequal,ST1_high_4_a2,P != T2?,Same,1,2,high,96,1.08,70,1.52,96,1.11,Yes,unsure,hit,3.6909282207489014,NA
125,!48c0za,False,110,1,unequal,DT2_low_5_a1,P != T1?,Different,2,1,low,96,1.24,154,0.9,180,0.91,Yes,unsure,hit,5.785733938217163,NA
126,!48c0za,False,111,1,unequal,ST1_low_4_a2,P != T1?,Same,1,2,low,112,1.03,70,1.53,112,1.09,No,quiteSure,cr,2.900686025619507,NA
127,!48c0za,False,112,1,unequal,ST2_high_2_a1,P != T2?,Same,2,1,high,112,0.91,82,1.56,82,1.22,No,quiteSure,cr,2.391085147857666,NA
128,!48c0za,False,113,1,unequal,ST2_high_3_a1,P != T1?,Same,2,1,high,70,1.64,96,1.26,96,1.07,Yes,unsure,hit,2.9314708709716797,NA
129,!48c0za,False,114,1,unequal,ST2_high_6_a2,P != T2?,Same,2,2,high,132,1.02,96,1.11,96,1.07,No,sure,cr,2.36542010307312,NA
130,!48c0za,False,115,1,unequal,ST1_low_6_a1,P != T2?,Same,1,1,low,154,0.85,96,1.34,154,0.9,No,quiteSure,miss,1.9171700477600098,NA
131,!48c0za,False,116,1,unequal,ST1_low_3_a2,P != T1?,Same,1,2,low,70,1.76,112,0.98,70,1.37,No,sure,cr,1.5802438259124756,NA
132,!48c0za,False,117,1,unequal,ST2_low_3_a1,P != T2?,Same,2,1,low,70,1.71,112,1.2,112,1.04,No,sure,cr,1.9850540161132812,NA
133,!48c0za,False,118,1,unequal,ST1_low_1_a1,P != T1?,Same,1,1,low,82,1.57,132,0.8,82,1.52,No,sure,cr,3.198370933532715,NA
134,!48c0za,False,119,1,unequal,ST2_high_5_a1,P != T1?,Same,2,1,high,96,1.25,132,0.9,132,0.83,Yes,unsure,hit,4.1888298988342285,NA
135,!48c0za,False,120,1,unequal,ST1_low_3_a1,P != T1?,Same,1,1,low,70,1.74,112,0.96,70,1.78,No,quiteSure,cr,4.319576740264893,NA
136,!48c0za,False,121,1,unequal,ST1_high_2_a1,P != T1?,Same,1,1,high,112,1.05,82,1.35,112,1.09,No,unsure,cr,1.3983738422393799,NA
137,!48c0za,False,122,1,unequal,ST2_low_3_a2,P != T1?,Same,2,2,low,70,1.71,112,0.94,112,1.07,Yes,quiteSure,hit,3.668405055999756,NA
138,!48c0za,False,123,1,unequal,ST2_low_1_a2,P != T2?,Same,2,2,low,82,1.32,132,0.99,132,0.86,No,sure,cr,2.930590867996216,NA
139,!48c0za,False,124,1,unequal,ST1_high_2_a1,P != T2?,Same,1,1,high,112,1.04,82,1.38,112,0.84,Yes,unsure,hit,2.570971965789795,NA
140,!48c0za,False,125,1,unequal,ST2_low_5_a2,P != T1?,Same,2,2,low,96,1.16,154,0.73,154,0.83,Yes,unsure,hit,2.838243007659912,NA
141,!48c0za,False,126,1,unequal,ST2_high_3_a1,P != T2?,Same,2,1,high,70,1.74,96,1.36,96,1.33,No,quiteSure,cr,1.872648000717163,NA
142,!48c0za,False,127,1,unequal,ST2_low_3_a1,P != T1?,Same,2,1,low,70,1.81,112,0.92,112,0.97,Yes,quiteSure,hit,2.90191388130188,NA
143,!48c0za,False,128,1,unequal,DT2_low_4_a2,P != T2?,Different,2,2,low,112,1.05,70,1.46,60,1.7,No,quiteSure,cr,1.6249217987060547,NA
144,!48c0za,False,129,1,unequal,ST2_low_5_a1,P != T1?,Same,2,1,low,96,1.33,154,0.87,154,0.9,Yes,quiteSure,hit,2.7490029335021973,NA
145,!48c0za,False,130,1,unequal,ST1_low_5_a1,P != T2?,Same,1,1,low,96,1.34,154,0.94,96,1.22,Yes,unsure,hit,5.413984060287476,NA
146,!48c0za,False,131,1,unequal,ST1_high_3_a2,P != T1?,Same,1,2,high,70,1.63,96,1.26,70,1.56,No,quiteSure,cr,1.3101041316986084,NA
147,!48c0za,False,132,1,unequal,ST2_high_5_a1,P != T1?,Same,2,1,high,96,1.26,132,0.94,132,0.82,Yes,quiteSure,hit,5.87915301322937,NA
148,!48c0za,False,133,1,unequal,ST2_low_3_a1,P != T1?,Same,2,1,low,70,1.6,112,1.21,112,0.93,Yes,quiteSure,hit,3.6780481338500977,NA
149,!48c0za,False,134,1,unequal,ST2_low_4_a2,P != T1?,Same,2,2,low,112,1.18,70,1.69,70,1.53,Yes,quiteSure,hit,2.953317880630493,NA
150,!48c0za,False,135,1,unequal,ST1_high_1_a2,P != T1?,Same,1,2,high,82,1.25,112,0.97,82,1.22,No,unsure,cr,2.1228690147399902,NA
151,!48c0za,False,136,1,unequal,ST2_high_2_a2,P != T1?,Same,2,2,high,112,1.06,82,1.45,82,1.23,Yes,quiteSure,hit,6.234265089035034,NA
152,!48c0za,False,137,1,unequal,ST2_low_1_a2,P != T1?,Same,2,2,low,82,1.45,132,1.04,132,0.82,Yes,unsure,hit,4.031925916671753,NA
153,!48c0za,False,138,1,unequal,ST1_high_5_a1,P != T1?,Same,1,1,high,96,1.34,132,0.98,96,0.99,Yes,unsure,fa,5.515132904052734,NA
154,!48c0za,False,139,1,unequal,ST2_high_4_a1,P != T1?,Same,2,1,high,96,1.22,70,1.39,70,1.5,Yes,quiteSure,hit,3.89565372467041,NA
155,!48c0za,False,140,1,unequal,ST1_high_1_a1,P != T1?,Same,1,1,high,82,1.44,112,1.05,82,1.54,No,quiteSure,cr,2.010406017303467,NA
156,!48c0za,False,141,1,unequal,ST2_low_2_a2,P != T2?,Same,2,2,low,132,0.88,82,1.37,82,1.59,No,quiteSure,cr,2.166116952896118,NA
157,!48c0za,False,142,1,unequal,ST2_high_2_a2,P != T1?,Same,2,2,high,112,1.22,82,1.39,82,1.39,Yes,quiteSure,hit,4.6858439445495605,NA
158,!48c0za,False,143,1,unequal,ST2_low_1_a1,P != T2?,Same,2,1,low,82,1.61,132,0.97,132,1.06,No,quiteSure,cr,2.1395161151885986,NA
159,!48c0za,False,144,1,unequal,ST1_high_5_a2,P != T1?,Same,1,2,high,96,1.21,132,0.99,96,1.12,No,quiteSure,cr,1.482889175415039,NA
160,!48c0za,False,145,1,unequal,ST1_high_4_a1,P != T2?,Same,1,1,high,96,1.36,70,1.84,96,1.17,Yes,unsure,hit,2.8399312496185303,NA
161,!48c0za,False,146,1,unequal,ST2_high_4_a1,P != T2?,Same,2,1,high,96,1.39,70,1.76,70,1.4,No,quiteSure,cr,1.6916768550872803,NA
162,!48c0za,False,147,1,unequal,ST2_low_6_a1,P != T1?,Same,2,1,low,154,0.84,96,1.09,96,1.18,Yes,quiteSure,hit,2.321376085281372,NA
163,!48c0za,False,148,1,unequal,STb_5_a2,P != T1?,Same,0,2,None,112,0.92,112,1.21,112,1.22,No,quiteSure,cr,1.3513808250427246,NA
164,!48c0za,False,149,1,unequal,ST2_high_6_a2,P != T2?,Same,2,2,high,132,0.98,96,1.34,96,1.34,No,quiteSure,cr,1.6075210571289062,NA
165,!48c0za,False,150,1,unequal,ST2_high_2_a1,P != T1?,Same,2,1,high,112,1.21,82,1.26,82,1.36,Yes,unsure,hit,1.7797179222106934,NA
166,!48c0za,False,151,1,unequal,ST1_high_5_a2,P != T2?,Same,1,2,high,96,1.19,132,0.89,96,1.39,Yes,unsure,hit,2.4940521717071533,NA
167,!48c0za,False,152,1,unequal,ST1_low_1_a2,P != T2?,Same,1,2,low,82,1.53,132,0.91,82,1.44,Yes,unsure,hit,2.521221876144409,NA
168,!48c0za,False,153,1,unequal,ST1_low_4_a1,P != T2?,Same,1,1,low,112,0.98,70,1.4,112,1.13,Yes,unsure,hit,4.093331813812256,NA
169,!48c0za,False,154,1,unequal,ST2_low_1_a1,P != T2?,Same,2,1,low,82,1.45,132,0.8,132,0.85,No,quiteSure,cr,3.0641207695007324,NA
170,!48c0za,False,155,1,unequal,ST1_low_5_a2,P != T2?,Same,1,2,low,96,1.39,154,0.73,96,1.13,Yes,unsure,hit,2.4338691234588623,NA
171,!48c0za,False,156,1,unequal,ST2_high_5_a2,P != T2?,Same,2,2,high,96,1.25,132,0.89,132,0.91,No,quiteSure,cr,2.073594808578491,NA
172,!48c0za,False,157,1,unequal,ST2_low_1_a2,P != T2?,Same,2,2,low,82,1.43,132,0.8,132,0.96,No,quiteSure,cr,1.782175064086914,NA
173,!48c0za,False,158,1,unequal,ST2_high_1_a2,P != T2?,Same,2,2,high,82,1.45,112,1.21,112,1.24,No,quiteSure,cr,1.8269639015197754,NA
174,!48c0za,False,159,1,unequal,ST1_low_2_a1,P != T2?,Same,1,1,low,132,0.98,82,1.48,132,0.79,Yes,quiteSure,hit,2.2973849773406982,NA
175,!48c0za,False,160,1,unequal,ST2_low_4_a2,P != T2?,Same,2,2,low,112,1.2,70,1.63,70,1.39,No,quiteSure,cr,1.8949179649353027,NA
176,!48c0za,False,161,1,unequal,ST2_low_4_a2,P != T2?,Same,2,2,low,112,1.08,70,1.67,70,1.56,No,sure,cr,3.1036629676818848,NA
177,!48c0za,False,162,1,unequal,ST1_high_3_a2,P != T2?,Same,1,2,high,70,1.58,96,1.4,70,1.64,Yes,quiteSure,hit,2.516301155090332,NA
178,!48c0za,False,163,1,unequal,ST1_high_3_a1,P != T2?,Same,1,1,high,70,1.54,96,1.11,70,1.63,Yes,unsure,hit,2.003696918487549,NA
179,!48c0za,False,164,1,unequal,ST1_high_6_a1,P != T2?,Same,1,1,high,132,0.91,96,1.26,132,0.98,Yes,unsure,hit,1.983902931213379,NA
180,!48c0za,False,165,1,unequal,ST1_low_6_a2,P != T2?,Same,1,2,low,154,0.79,96,1.38,154,0.92,Yes,unsure,hit,6.120748996734619,NA
181,!48c0za,False,166,1,unequal,ST2_high_3_a2,P != T2?,Same,2,2,high,70,1.37,96,1.32,96,1.12,No,quiteSure,cr,3.714099168777466,NA
182,!48c0za,False,167,1,unequal,STb_6_a1,P != T1?,Same,0,1,None,132,0.89,132,0.91,132,0.99,No,quiteSure,cr,2.0971739292144775,NA
183,!48c0za,False,168,1,unequal,ST1_low_4_a2,P != T2?,Same,1,2,low,112,1.12,70,1.8,112,1.17,Yes,quiteSure,hit,2.0029523372650146,NA
184,!48c0za,False,169,1,unequal,ST2_low_5_a2,P != T2?,Same,2,2,low,96,1.24,154,0.72,154,0.84,No,quiteSure,cr,1.64536714553833,NA
185,!48c0za,False,170,1,unequal,ST1_low_1_a2,P != T1?,Same,1,2,low,82,1.31,132,0.98,82,1.43,No,unsure,cr,1.8498008251190186,NA
186,!48c0za,False,171,1,unequal,ST2_high_5_a1,P != T2?,Same,2,1,high,96,1.09,132,0.95,132,0.85,No,sure,cr,1.5584118366241455,NA
187,!48c0za,False,172,1,unequal,ST1_low_2_a2,P != T1?,Same,1,2,low,132,0.88,82,1.31,132,1.0,No,quiteSure,cr,2.1061689853668213,NA
188,!48c0za,False,173,1,unequal,ST1_high_6_a1,P != T2?,Same,1,1,high,132,0.91,96,1.18,132,0.88,Yes,quiteSure,hit,4.258249044418335,NA
189,!48c0za,False,174,1,unequal,ST1_high_5_a1,P != T2?,Same,1,1,high,96,1.1,132,0.81,96,1.33,Yes,quiteSure,hit,3.4184000492095947,NA
190,!48c0za,False,175,1,unequal,ST2_low_1_a1,P != T1?,Same,2,1,low,82,1.43,132,0.95,132,0.87,Yes,quiteSure,hit,2.4152791500091553,NA
191,!48c0za,False,176,1,unequal,ST1_high_1_a2,P != T2?,Same,1,2,high,82,1.47,112,1.16,82,1.61,Yes,quiteSure,hit,2.4531497955322266,NA
192,!48c0za,False,177,1,unequal,ST1_high_2_a2,P != T1?,Same,1,2,high,112,0.94,82,1.23,112,1.15,Yes,quiteSure,fa,3.4965720176696777,NA
193,!48c0za,False,178,1,unequal,ST1_low_6_a2,P != T1?,Same,1,2,low,154,0.86,96,1.26,154,0.87,No,unsure,cr,2.1695148944854736,NA
194,!48c0za,False,179,1,unequal,ST1_low_2_a2,P != T1?,Same,1,2,low,132,0.99,82,1.58,132,0.93,No,quiteSure,cr,2.183485984802246,NA
195,!48c0za,False,180,1,unequal,ST1_low_1_a1,P != T1?,Same,1,1,low,82,1.55,132,0.84,82,1.35,No,quiteSure,cr,1.8269078731536865,NA
196,!48c0za,False,181,1,unequal,DT2_high_1_a1,P != T2?,Different,2,1,high,82,1.57,112,1.09,132,0.84,No,quiteSure,cr,2.3285248279571533,NA
197,!48c0za,False,182,1,unequal,ST1_low_1_a1,P != T2?,Same,1,1,low,82,1.55,132,0.87,82,1.43,Yes,quiteSure,hit,2.54396390914917,NA
198,!48c0za,False,183,1,unequal,ST2_low_6_a2,P != T1?,Same,2,2,low,154,0.86,96,1.27,96,1.15,Yes,quiteSure,hit,4.05708909034729,NA
199,!48c0za,False,184,1,unequal,ST2_high_1_a1,P != T1?,Same,2,1,high,82,1.45,112,0.96,112,1.18,Yes,quiteSure,hit,2.436469078063965,NA
200,!48c0za,False,185,1,unequal,ST1_high_4_a1,P != T2?,Same,1,1,high,96,1.41,70,1.7,96,1.06,Yes,unsure,hit,2.5309970378875732,NA
201,!48c0za,False,186,1,unequal,ST2_low_1_a1,P != T1?,Same,2,1,low,82,1.28,132,0.79,132,0.98,Yes,unsure,hit,2.40938401222229,NA
202,!48c0za,False,187,1,unequal,ST1_low_3_a1,P != T1?,Same,1,1,low,70,1.82,112,1.21,70,1.73,No,unsure,cr,1.68576979637146,NA
203,!48c0za,False,188,1,unequal,STb_1_a2,P != T2?,Same,0,2,None,60,2.02,60,1.78,60,1.84,No,sure,cr,2.230571985244751,NA
204,!48c0za,False,189,1,unequal,ST2_low_6_a1,P != T1?,Same,2,1,low,154,0.76,96,1.38,96,1.33,No,unsure,miss,4.461477994918823,NA
205,!48c0za,False,190,1,unequal,ST2_high_1_a1,P != T1?,Same,2,1,high,82,1.52,112,0.98,112,1.09,Yes,unsure,hit,1.667665958404541,NA
206,!48c0za,False,191,1,unequal,ST2_low_4_a2,P != T1?,Same,2,2,low,112,1.05,70,1.49,70,1.49,Yes,sure,hit,1.8680429458618164,NA
207,!48c0za,False,192,1,unequal,DT1_high_1_a1,P != T1?,Different,1,1,high,82,1.55,112,1.04,70,1.49,No,unsure,cr,1.8010170459747314,NA
208,!48c0za,False,193,1,unequal,DT2_high_3_a2,P != T1?,Different,2,2,high,70,1.42,96,1.18,112,1.1,Yes,unsure,hit,1.984363079071045,NA
209,!48c0za,False,194,1,unequal,DT1_low_4_a2,P != T2?,Different,1,2,low,112,1.13,70,1.58,132,0.8,Yes,unsure,hit,2.141698122024536,NA
210,!48c0za,False,195,1,unequal,ST1_high_2_a1,P != T2?,Same,1,1,high,112,1.01,82,1.47,112,1.09,Yes,unsure,hit,3.0204968452453613,NA
211,!48c0za,False,196,1,unequal,ST2_high_2_a1,P != T2?,Same,2,1,high,112,1.12,82,1.42,82,1.6,No,quiteSure,cr,1.6942901611328125,NA
212,!48c0za,False,197,1,unequal,ST1_low_3_a1,P != T2?,Same,1,1,low,70,1.41,112,1.02,70,1.4,No,quiteSure,miss,3.0642170906066895,NA
213,!48c0za,False,198,1,unequal,ST2_high_6_a1,P != T2?,Same,2,1,high,132,0.8,96,0.95,96,1.22,No,quiteSure,cr,1.756762981414795,NA
214,!48c0za,False,199,1,unequal,ST2_low_6_a1,P != T1?,Same,2,1,low,154,0.91,96,1.09,96,1.38,Yes,quiteSure,hit,2.7680110931396484,NA
215,!48c0za,False,200,1,unequal,ST2_low_1_a1,P != T1?,Same,2,1,low,82,1.31,132,1.04,132,0.99,Yes,quiteSure,hit,1.919609785079956,NA
216,!48c0za,False,201,1,unequal,ST2_low_1_a1,P != T2?,Same,2,1,low,82,1.56,132,0.99,132,0.79,No,quiteSure,cr,3.2665438652038574,NA
217,!48c0za,False,202,1,unequal,ST1_low_2_a2,P != T2?,Same,1,2,low,132,0.82,82,1.52,132,0.87,Yes,unsure,hit,2.702986001968384,NA
218,!48c0za,False,203,1,unequal,ST1_low_1_a1,P != T2?,Same,1,1,low,82,1.52,132,0.81,82,1.28,Yes,quiteSure,hit,2.9899988174438477,NA
219,!48c0za,False,204,1,unequal,ST2_high_6_a1,P != T1?,Same,2,1,high,132,1.0,96,1.13,96,1.04,Yes,quiteSure,hit,2.6389551162719727,NA
220,!48c0za,False,205,1,unequal,ST2_high_3_a1,P != T2?,Same,2,1,high,70,1.66,96,1.33,96,1.33,No,quiteSure,cr,2.5212690830230713,NA
221,!48c0za,False,206,1,unequal,ST1_low_5_a2,P != T1?,Same,1,2,low,96,1.43,154,0.73,96,1.25,No,quiteSure,cr,1.718743085861206,NA
222,!48c0za,False,207,1,unequal,ST1_high_1_a1,P != T2?,Same,1,1,high,82,1.52,112,1.19,82,1.45,Yes,quiteSure,hit,3.0438449382781982,NA
223,!48c0za,False,208,1,unequal,ST1_low_3_a1,P != T2?,Same,1,1,low,70,1.61,112,1.05,70,1.52,Yes,quiteSure,hit,2.592827081680298,NA
224,!48c0za,False,209,1,unequal,ST2_low_5_a2,P != T2?,Same,2,2,low,96,1.06,154,0.9,154,0.92,No,quiteSure,cr,2.439586877822876,NA
225,!48c0za,False,210,1,unequal,ST2_high_1_a1,P != T1?,Same,2,1,high,82,1.6,112,0.93,112,1.14,Yes,quiteSure,hit,2.9532978534698486,NA
226,!48c0za,False,211,1,unequal,ST1_high_1_a1,P != T1?,Same,1,1,high,82,1.56,112,1.11,82,1.59,No,quiteSure,cr,1.3560378551483154,NA
227,!48c0za,False,212,1,unequal,ST2_low_5_a1,P != T2?,Same,2,1,low,96,1.34,154,0.88,154,0.83,No,quiteSure,cr,2.726929187774658,NA
228,!48c0za,False,213,1,unequal,ST1_low_5_a1,P != T1?,Same,1,1,low,96,1.39,154,0.72,96,1.34,No,quiteSure,cr,2.1417930126190186,NA
229,!48c0za,False,214,1,unequal,ST2_high_3_a2,P != T2?,Same,2,2,high,70,1.77,96,1.18,96,1.23,No,unsure,cr,1.490830898284912,NA
230,!48c0za,False,215,1,unequal,ST2_high_4_a1,P != T1?,Same,2,1,high,96,1.4,70,1.5,70,1.76,Yes,quiteSure,hit,2.2332558631896973,NA
231,!48c0za,False,216,1,unequal,ST1_low_6_a1,P != T1?,Same,1,1,low,154,0.82,96,1.09,154,0.88,No,quiteSure,cr,1.5138909816741943,NA
232,!48c0za,False,217,1,unequal,ST2_low_1_a2,P != T2?,Same,2,2,low,82,1.37,132,1.05,132,0.92,No,quiteSure,cr,1.9628169536590576,NA
233,!48c0za,False,218,1,unequal,ST1_high_3_a1,P != T1?,Same,1,1,high,70,1.73,96,1.09,70,1.77,No,unsure,cr,2.029313802719116,NA
234,!48c0za,False,219,1,unequal,ST1_low_1_a2,P != T2?,Same,1,2,low,82,1.63,132,0.86,82,1.28,Yes,unsure,hit,2.0945310592651367,NA
235,!48c0za,False,220,1,unequal,ST2_high_6_a1,P != T2?,Same,2,1,high,132,1.02,96,1.39,96,1.33,No,quiteSure,cr,1.3936676979064941,NA
236,!48c0za,False,221,1,unequal,ST2_low_6_a2,P != T1?,Same,2,2,low,154,0.75,96,1.13,96,1.18,Yes,quiteSure,hit,2.1643002033233643,NA
237,!48c0za,False,222,1,unequal,ST2_high_5_a1,P != T1?,Same,2,1,high,96,1.43,132,0.85,132,0.81,Yes,quiteSure,hit,2.5235180854797363,NA
238,!48c0za,False,223,1,unequal,ST2_low_3_a1,P != T1?,Same,2,1,low,70,1.42,112,1.22,112,0.97,Yes,unsure,hit,2.724663019180298,NA
239,!48c0za,False,224,1,unequal,ST1_low_4_a2,P != T2?,Same,1,2,low,112,1.07,70,1.64,112,1.23,Yes,quiteSure,hit,3.1751511096954346,NA
240,!48c0za,False,225,1,unequal,ST2_low_4_a1,P != T2?,Same,2,1,low,112,1.02,70,1.74,70,1.81,No,quiteSure,cr,1.8972630500793457,NA
241,!48c0za,False,226,1,unequal,ST1_high_4_a2,P != T2?,Same,1,2,high,96,1.32,70,1.5,96,1.34,Yes,unsure,hit,2.72418212890625,NA
242,!48c0za,False,227,1,unequal,STb_5_a1,P != T2?,Same,0,1,None,112,1.13,112,1.07,112,1.14,No,quiteSure,cr,1.6218223571777344,NA
243,!48c0za,False,228,1,unequal,ST2_low_2_a1,P != T1?,Same,2,1,low,132,1.04,82,1.22,82,1.48,Yes,quiteSure,hit,2.818718194961548,NA
244,!48c0za,False,229,1,unequal,ST1_high_6_a1,P != T2?,Same,1,1,high,132,0.94,96,1.43,132,0.96,Yes,unsure,hit,2.0269031524658203,NA
245,!48c0za,False,230,1,unequal,ST1_high_6_a2,P != T1?,Same,1,2,high,132,0.9,96,1.21,132,0.79,No,quiteSure,cr,2.2341461181640625,NA
246,!48c0za,False,231,1,unequal,ST2_low_3_a2,P != T2?,Same,2,2,low,70,1.38,112,0.93,112,1.03,No,quiteSure,cr,1.4859721660614014,NA
247,!48c0za,False,232,1,unequal,ST2_low_3_a2,P != T2?,Same,2,2,low,70,1.98,112,0.97,112,1.19,No,unsure,cr,2.1854240894317627,NA
248,!48c0za,False,233,1,unequal,ST2_high_4_a2,P != T2?,Same,2,2,high,96,1.27,70,1.83,70,1.68,No,quiteSure,cr,1.5132832527160645,NA
249,!48c0za,False,234,1,unequal,ST1_low_3_a1,P != T1?,Same,1,1,low,70,1.42,112,1.05,70,1.68,No,unsure,cr,3.690002918243408,NA
250,!48c0za,False,235,1,unequal,ST2_low_5_a2,P != T2?,Same,2,2,low,96,1.33,154,0.85,154,0.85,No,quiteSure,cr,1.6561858654022217,NA
251,!48c0za,False,236,1,unequal,ST1_low_2_a2,P != T1?,Same,1,2,low,132,0.85,82,1.54,132,0.95,No,quiteSure,cr,1.7139627933502197,NA
252,!48c0za,False,237,1,unequal,ST2_high_4_a1,P != T2?,Same,2,1,high,96,1.32,70,1.72,70,1.53,No,quiteSure,cr,1.4150519371032715,NA
253,!48c0za,False,238,1,unequal,ST1_high_4_a2,P != T2?,Same,1,2,high,96,1.21,70,1.47,96,1.18,Yes,unsure,hit,2.6386570930480957,NA
254,!48c0za,False,239,1,unequal,ST1_high_2_a1,P != T1?,Same,1,1,high,112,1.01,82,1.53,112,1.22,Yes,unsure,fa,4.319630146026611,NA
255,!48c0za,False,240,1,unequal,ST2_high_5_a2,P != T2?,Same,2,2,high,96,1.27,132,1.05,132,0.9,No,sure,cr,1.8777880668640137,NA
256,!48c0za,False,241,1,unequal,ST1_high_3_a2,P != T2?,Same,1,2,high,70,1.57,96,1.21,70,1.77,Yes,unsure,hit,2.306471109390259,NA
257,!48c0za,False,242,1,unequal,ST1_high_2_a1,P != T2?,Same,1,1,high,112,0.96,82,1.52,112,1.14,No,sure,miss,1.4950132369995117,NA
258,!48c0za,False,243,1,unequal,ST2_high_3_a2,P != T1?,Same,2,2,high,70,1.79,96,1.17,96,1.25,Yes,unsure,hit,2.2548580169677734,NA
259,!48c0za,False,244,1,unequal,ST1_low_1_a1,P != T1?,Same,1,1,low,82,1.34,132,1.04,82,1.22,No,quiteSure,cr,1.692427158355713,NA
260,!48c0za,False,245,1,unequal,ST2_high_2_a2,P != T1?,Same,2,2,high,112,0.98,82,1.23,82,1.38,Yes,unsure,hit,2.171332836151123,NA
261,!48c0za,False,246,1,unequal,ST2_low_1_a2,P != T1?,Same,2,2,low,82,1.47,132,0.95,132,1.05,Yes,unsure,hit,4.573507070541382,NA
262,!48c0za,False,247,1,unequal,ST1_high_6_a2,P != T2?,Same,1,2,high,132,0.94,96,1.31,132,1.04,Yes,quiteSure,hit,2.3546969890594482,NA
263,!48c0za,False,248,1,unequal,ST1_high_3_a2,P != T2?,Same,1,2,high,70,1.82,96,1.08,70,1.61,Yes,quiteSure,hit,1.9560070037841797,NA
264,!48c0za,False,249,1,unequal,ST1_low_3_a1,P != T2?,Same,1,1,low,70,1.6,112,1.17,70,1.75,Yes,sure,hit,5.516690015792847,NA
265,!48c0za,False,250,1,unequal,ST2_low_4_a1,P != T1?,Same,2,1,low,112,0.93,70,1.45,70,1.6,Yes,quiteSure,hit,4.907352685928345,NA
266,!48c0za,False,251,1,unequal,DT2_high_6_a1,P != T2?,Different,2,1,high,132,0.92,96,1.34,82,1.34,No,quiteSure,cr,3.739078998565674,NA
267,!48c0za,False,252,1,unequal,ST1_low_3_a2,P != T1?,Same,1,2,low,70,1.44,112,0.93,70,1.85,No,quiteSure,cr,2.5738747119903564,NA
268,!48c0za,False,253,1,unequal,DT2_high_5_a1,P != T2?,Different,2,1,high,96,1.35,132,0.88,154,0.9,Yes,unsure,fa,4.9104719161987305,NA
269,!48c0za,False,254,1,unequal,ST1_high_1_a2,P != T2?,Same,1,2,high,82,1.29,112,1.12,82,1.3,Yes,sure,hit,3.247896909713745,NA
270,!48c0za,False,255,1,unequal,ST1_low_3_a2,P != T2?,Same,1,2,low,70,1.4,112,0.92,70,1.63,Yes,quiteSure,hit,2.343414068222046,NA
271,!48c0za,False,256,1,unequal,ST2_low_2_a2,P != T2?,Same,2,2,low,132,0.94,82,1.24,82,1.35,No,quiteSure,cr,1.690744161605835,NA
272,!48c0za,False,257,1,unequal,ST1_low_4_a2,P != T1?,Same,1,2,low,112,0.96,70,1.58,112,0.93,No,quiteSure,cr,2.7492778301239014,NA
273,!48c0za,False,258,1,unequal,ST1_high_2_a2,P != T1?,Same,1,2,high,112,0.93,82,1.46,112,1.17,Yes,unsure,fa,2.7036309242248535,NA
274,!48c0za,False,259,1,unequal,ST2_high_4_a2,P != T1?,Same,2,2,high,96,1.25,70,1.69,70,1.37,Yes,quiteSure,hit,3.97177791595459,NA
275,!48c0za,False,260,1,unequal,ST1_low_6_a1,P != T2?,Same,1,1,low,154,0.88,96,1.29,154,0.95,No,unsure,miss,2.369371175765991,NA
276,!48c0za,False,261,1,unequal,ST1_low_2_a1,P != T1?,Same,1,1,low,132,0.79,82,1.33,132,0.92,No,quiteSure,cr,1.9348170757293701,NA
277,!48c0za,False,262,1,unequal,ST1_low_4_a1,P != T1?,Same,1,1,low,112,1.08,70,1.51,112,1.03,No,quiteSure,cr,2.3640787601470947,NA
278,!48c0za,False,263,1,unequal,ST2_high_3_a2,P != T1?,Same,2,2,high,70,1.66,96,1.37,96,1.3,Yes,unsure,hit,4.258389949798584,NA
279,!48c0za,False,264,1,unequal,STb_2_a1,P != T2?,Same,0,1,None,70,1.44,70,1.63,70,1.52,No,sure,cr,1.6973121166229248,NA
280,!48c0za,False,265,1,unequal,ST2_high_5_a2,P != T2?,Same,2,2,high,96,1.08,132,0.97,132,0.85,No,sure,cr,2.6627581119537354,NA
281,!48c0za,False,266,1,unequal,ST1_low_3_a2,P != T1?,Same,1,2,low,70,1.79,112,1.13,70,1.58,No,quiteSure,cr,5.134958028793335,NA
282,!48c0za,False,267,1,unequal,STb_3_a1,P != T2?,Same,0,1,None,82,1.31,82,1.32,82,1.62,No,quiteSure,cr,7.853049039840698,NA
283,!48c0za,False,268,1,unequal,ST2_high_1_a1,P != T2?,Same,2,1,high,82,1.47,112,1.11,112,1.0,No,sure,cr,1.2405917644500732,NA
284,!48c0za,False,269,1,unequal,ST2_low_5_a2,P != T1?,Same,2,2,low,96,1.12,154,0.74,154,0.91,No,quiteSure,miss,1.8037598133087158,NA
285,!48c0za,False,270,1,unequal,ST1_low_6_a1,P != T1?,Same,1,1,low,154,0.8,96,1.1,154,0.86,No,quiteSure,cr,1.5989551544189453,NA
286,!48c0za,False,271,1,unequal,ST2_low_5_a1,P != T1?,Same,2,1,low,96,1.18,154,0.81,154,0.82,Yes,unsure,hit,1.5325219631195068,NA
287,!48c0za,False,272,1,unequal,ST1_high_6_a1,P != T1?,Same,1,1,high,132,0.81,96,1.13,132,0.9,No,quiteSure,cr,1.2432150840759277,NA
288,!48c0za,False,273,1,unequal,ST2_high_4_a1,P != T1?,Same,2,1,high,96,1.2,70,1.82,70,1.41,Yes,unsure,hit,2.229504108428955,NA
289,!48c0za,False,274,1,unequal,STb_3_a1,P != T1?,Same,0,1,None,82,1.49,82,1.24,82,1.61,No,quiteSure,cr,1.424138069152832,NA
290,!48c0za,False,275,1,unequal,ST1_high_5_a2,P != T2?,Same,1,2,high,96,1.38,132,0.9,96,1.4,No,quiteSure,miss,4.639755010604858,NA
291,!48c0za,False,276,1,unequal,ST2_high_1_a2,P != T2?,Same,2,2,high,82,1.39,112,1.22,112,0.97,No,sure,cr,1.890712022781372,NA
292,!48c0za,False,277,1,unequal,ST2_low_3_a2,P != T1?,Same,2,2,low,70,1.76,112,1.03,112,1.14,Yes,quiteSure,hit,3.001708984375,NA
293,!48c0za,False,278,1,unequal,ST1_high_4_a1,P != T1?,Same,1,1,high,96,1.17,70,1.46,96,1.07,No,quiteSure,cr,1.2990162372589111,NA
294,!48c0za,False,279,1,unequal,ST2_low_4_a1,P != T1?,Same,2,1,low,112,1.24,70,1.61,70,1.37,Yes,quiteSure,hit,1.9906458854675293,NA
295,!48c0za,False,280,1,unequal,ST2_high_4_a2,P != T1?,Same,2,2,high,96,1.06,70,1.41,70,1.38,No,unsure,miss,5.82524299621582,NA
296,!48c0za,False,281,1,unequal,DT2_low_4_a1,P != T2?,Different,2,1,low,112,0.99,70,1.58,60,1.57,No,sure,cr,2.165686845779419,NA
297,!48c0za,False,282,1,unequal,ST1_high_5_a1,P != T1?,Same,1,1,high,96,1.31,132,0.89,96,1.08,Yes,unsure,fa,2.659214973449707,NA
298,!48c0za,False,283,1,unequal,ST2_high_1_a1,P != T2?,Same,2,1,high,82,1.6,112,1.18,112,1.01,No,sure,cr,1.715864896774292,NA
299,!48c0za,False,284,1,unequal,STb_1_a2,P != T1?,Same,0,2,None,60,1.91,60,1.61,60,1.99,No,sure,cr,1.3789057731628418,NA
300,!48c0za,False,285,1,unequal,ST2_low_5_a2,P != T1?,Same,2,2,low,96,1.33,154,0.82,154,0.95,Yes,unsure,hit,1.7118148803710938,NA
301,!48c0za,False,286,1,unequal,ST2_high_6_a2,P != T1?,Same,2,2,high,132,0.97,96,1.28,96,1.32,Yes,quiteSure,hit,6.036758184432983,NA
302,!48c0za,False,287,1,unequal,ST2_high_4_a2,P != T2?,Same,2,2,high,96,1.27,70,1.78,70,1.85,No,quiteSure,cr,1.6935069561004639,NA
303,!48c0za,False,288,1,unequal,ST2_high_2_a2,P != T2?,Same,2,2,high,112,1.07,82,1.34,82,1.22,No,quiteSure,cr,1.5177371501922607,NA
304,!48c0za,False,289,1,unequal,ST1_high_5_a2,P != T2?,Same,1,2,high,96,1.1,132,0.82,96,1.11,Yes,unsure,hit,2.012097120285034,NA
305,!48c0za,False,290,1,unequal,ST1_high_1_a1,P != T1?,Same,1,1,high,82,1.69,112,0.97,82,1.37,No,quiteSure,cr,1.7839298248291016,NA
306,!48c0za,False,291,1,unequal,ST2_high_6_a1,P != T1?,Same,2,1,high,132,0.84,96,1.07,96,1.37,No,quiteSure,miss,1.7326438426971436,NA
307,!48c0za,False,292,1,unequal,ST2_high_2_a1,P != T1?,Same,2,1,high,112,0.94,82,1.34,82,1.4,Yes,unsure,hit,1.6678102016448975,NA
308,!48c0za,False,293,1,unequal,ST1_low_5_a2,P != T2?,Same,1,2,low,96,1.38,154,0.76,96,1.41,Yes,sure,hit,2.454789876937866,NA
309,!48c0za,False,294,1,unequal,ST1_low_6_a2,P != T2?,Same,1,2,low,154,0.75,96,1.3,154,0.87,Yes,quiteSure,hit,1.8422589302062988,NA
310,!48c0za,False,295,1,unequal,ST2_high_3_a1,P != T1?,Same,2,1,high,70,1.73,96,1.37,96,1.34,Yes,unsure,hit,2.792388916015625,NA
311,!48c0za,False,296,1,unequal,ST2_low_2_a2,P != T1?,Same,2,2,low,132,0.82,82,1.59,82,1.42,Yes,quiteSure,hit,2.229222297668457,NA
312,!48c0za,False,297,1,unequal,ST2_high_5_a1,P != T2?,Same,2,1,high,96,1.2,132,0.95,132,0.92,No,sure,cr,1.3533310890197754,NA
313,!48c0za,False,298,1,unequal,DT1_low_5_a1,P != T2?,Different,1,1,low,96,1.2,154,0.74,82,1.26,Yes,sure,hit,2.410227060317993,NA
314,!48c0za,False,299,1,unequal,STb_8_a2,P != T1?,Same,0,2,None,180,0.71,180,0.84,180,0.75,No,sure,cr,1.3320178985595703,NA
315,!48c0za,False,300,1,unequal,ST2_high_2_a1,P != T2?,Same,2,1,high,112,1.11,82,1.6,82,1.44,No,sure,cr,1.3372139930725098,NA
316,!48c0za,False,301,1,unequal,ST2_low_5_a1,P != T1?,Same,2,1,low,96,1.36,154,0.81,154,0.88,Yes,sure,hit,2.365919828414917,NA
317,!48c0za,False,302,1,unequal,ST2_low_2_a1,P != T1?,Same,2,1,low,132,0.91,82,1.57,82,1.34,Yes,quiteSure,hit,2.7690510749816895,NA
318,!48c0za,False,303,1,unequal,DT2_low_3_a2,P != T1?,Different,2,2,low,70,1.56,112,1.08,132,0.89,Yes,unsure,hit,1.7589161396026611,NA
319,!48c0za,False,304,1,unequal,ST1_high_3_a1,P != T1?,Same,1,1,high,70,1.64,96,1.4,70,1.43,Yes,unsure,fa,1.8674659729003906,NA
320,!48c0za,False,305,1,unequal,ST2_high_5_a1,P != T2?,Same,2,1,high,96,1.27,132,0.97,132,0.82,No,quiteSure,cr,5.973427772521973,NA
321,!48c0za,False,306,1,unequal,ST2_high_6_a1,P != T1?,Same,2,1,high,132,1.03,96,1.25,96,1.16,No,unsure,miss,7.834072113037109,NA
322,!48c0za,False,307,1,unequal,ST1_low_1_a2,P != T1?,Same,1,2,low,82,1.23,132,0.81,82,1.6,No,unsure,cr,2.273085117340088,NA
323,!48c0za,False,308,1,unequal,ST1_low_6_a1,P != T1?,Same,1,1,low,154,0.95,96,1.14,154,0.92,No,quiteSure,cr,1.554387092590332,NA
324,!48c0za,False,309,1,unequal,ST2_low_4_a2,P != T1?,Same,2,2,low,112,0.95,70,1.56,70,1.38,Yes,quiteSure,hit,2.2519290447235107,NA
325,!48c0za,False,310,1,unequal,ST1_low_5_a1,P != T2?,Same,1,1,low,96,1.37,154,0.73,96,1.26,Yes,quiteSure,hit,2.291710138320923,NA
326,!48c0za,False,311,1,unequal,ST2_low_6_a2,P != T2?,Same,2,2,low,154,0.73,96,1.1,96,1.34,No,quiteSure,cr,1.8502042293548584,NA
327,!48c0za,False,312,1,unequal,ST1_high_4_a2,P != T1?,Same,1,2,high,96,1.11,70,1.58,96,1.31,No,unsure,cr,2.0676651000976562,NA
328,!48c0za,False,313,1,unequal,ST2_high_3_a2,P != T1?,Same,2,2,high,70,1.42,96,1.24,96,1.17,Yes,unsure,hit,2.3643639087677,NA
329,!48c0za,False,314,1,unequal,ST1_high_4_a1,P != T1?,Same,1,1,high,96,1.21,70,1.43,96,1.37,No,unsure,cr,1.4026987552642822,NA
330,!48c0za,False,315,1,unequal,ST1_low_4_a1,P != T1?,Same,1,1,low,112,1.03,70,1.58,112,1.13,No,quiteSure,cr,1.688797950744629,NA
331,!48c0za,False,316,1,unequal,ST2_low_6_a1,P != T2?,Same,2,1,low,154,0.78,96,1.22,96,1.4,No,sure,cr,1.5518531799316406,NA
332,!48c0za,False,317,1,unequal,ST2_high_4_a2,P != T2?,Same,2,2,high,96,1.17,70,1.42,70,1.69,No,sure,cr,1.4431397914886475,NA
333,!48c0za,False,318,1,unequal,ST2_low_6_a1,P != T2?,Same,2,1,low,154,0.72,96,1.17,96,1.08,No,sure,cr,2.3579342365264893,NA
334,!48c0za,False,319,1,unequal,ST2_low_4_a2,P != T2?,Same,2,2,low,112,0.99,70,1.46,70,1.44,No,quiteSure,cr,5.809261083602905,NA
335,!48c0za,False,320,1,unequal,ST2_high_6_a1,P != T2?,Same,2,1,high,132,0.8,96,1.2,96,1.11,No,sure,cr,1.3687732219696045,1.0
