,pcode,practice,trial,block,questionType,condition,question,PTS,TargetPosition,AccessoryPosition,TNS,T1_hz,T1_amp,T2_hz,T2_amp,P_hz,P_amp,response_dicho,response_rating,response_sdt,rt,P_correct
0,1sy20#t,True,1,1,unequal,STb_7_a2,P != T2?,Same,0,2,None,154,0.81,154,0.68,154,0.93,No,sure,cr,7.656624794006348,NA
1,1sy20#t,True,2,1,unequal,ST2_low_4_a1,P != T1?,Same,2,1,low,112,1.1,70,1.17,70,1.49,Yes,quiteSure,hit,5.11741828918457,NA
2,1sy20#t,True,3,1,unequal,ST2_low_5_a2,P != T2?,Same,2,2,low,96,1.27,154,0.66,154,0.86,No,quiteSure,cr,2.962162971496582,NA
3,1sy20#t,True,4,1,unequal,ST2_high_4_a1,P != T1?,Same,2,1,high,96,1.4,70,1.5,70,1.49,Yes,quiteSure,hit,2.960852861404419,NA
4,1sy20#t,True,5,1,unequal,DT1_low_1_a2,P != T1?,Different,1,2,low,82,1.66,132,0.93,70,1.38,Yes,unsure,fa,5.816526174545288,NA
5,1sy20#t,True,6,1,unequal,STb_7_a2,P != T1?,Same,0,2,None,154,0.65,154,0.9,154,0.74,Yes,quiteSure,fa,2.485280990600586,NA
6,1sy20#t,True,7,1,unequal,DT1_low_3_a1,P != T2?,Different,1,1,low,70,1.72,112,1.01,60,1.56,Yes,quiteSure,hit,2.8517918586730957,NA
7,1sy20#t,True,8,1,unequal,ST2_high_4_a1,P != T2?,Same,2,1,high,96,1.2,70,1.94,70,1.58,No,quiteSure,cr,1.8580269813537598,NA
8,1sy20#t,True,9,1,unequal,ST1_high_2_a1,P != T1?,Same,1,1,high,112,1.13,82,1.49,112,0.94,No,quiteSure,cr,2.6685948371887207,NA
9,1sy20#t,True,10,1,unequal,ST1_high_2_a2,P != T2?,Same,1,2,high,112,0.99,82,1.54,112,1.24,Yes,quiteSure,hit,1.8792791366577148,NA
10,1sy20#t,True,11,1,unequal,STb_2_a2,P != T1?,Same,0,2,None,70,1.66,70,1.97,70,1.73,No,unsure,cr,3.2540910243988037,NA
11,1sy20#t,True,12,1,unequal,DT1_high_5_a1,P != T1?,Different,1,1,high,96,1.18,132,0.97,82,1.47,No,quiteSure,cr,2.2651100158691406,NA
12,1sy20#t,True,13,1,unequal,ST1_high_5_a2,P != T1?,Same,1,2,high,96,1.17,132,0.74,96,1.44,No,quiteSure,cr,0.9878871440887451,NA
13,1sy20#t,True,14,1,unequal,DT1_low_2_a2,P != T2?,Different,1,2,low,132,1.06,82,1.32,154,0.84,Yes,quiteSure,hit,1.9962000846862793,NA
14,1sy20#t,True,15,1,unequal,STb_2_a2,P != T2?,Same,0,2,None,70,1.58,70,1.73,70,1.5,No,quiteSure,cr,1.4982919692993164,NA
15,1sy20#t,True,16,1,unequal,ST1_low_2_a1,P != T2?,Same,1,1,low,132,0.8,82,1.67,132,1.03,Yes,quiteSure,hit,1.7652640342712402,0.75
16,1sy20#t,False,1,1,unequal,ST2_high_4_a1,P != T1?,Same,2,1,high,96,1.4,70,1.5,70,1.49,No,unsure,miss,2.760897159576416,NA
17,1sy20#t,False,2,1,unequal,ST2_high_5_a1,P != T2?,Same,2,1,high,96,1.18,132,0.93,132,0.79,No,quiteSure,cr,1.5198090076446533,NA
18,1sy20#t,False,3,1,unequal,ST1_high_1_a1,P != T2?,Same,1,1,high,82,1.41,112,1.22,82,1.57,No,quiteSure,miss,1.9031760692596436,NA
19,1sy20#t,False,4,1,unequal,ST2_high_2_a1,P != T2?,Same,2,1,high,112,0.99,82,1.46,82,1.41,No,sure,cr,1.2982120513916016,NA
20,1sy20#t,False,5,1,unequal,DT2_low_3_a1,P != T2?,Different,2,1,low,70,1.56,112,1.03,132,0.84,No,sure,cr,1.472754716873169,NA
21,1sy20#t,False,6,1,unequal,ST2_low_5_a1,P != T1?,Same,2,1,low,96,1.17,154,0.94,154,0.76,Yes,sure,hit,2.3725099563598633,NA
22,1sy20#t,False,7,1,unequal,ST2_high_1_a1,P != T1?,Same,2,1,high,82,1.47,112,0.95,112,0.95,Yes,sure,hit,1.947749137878418,NA
23,1sy20#t,False,8,1,unequal,ST1_low_4_a2,P != T1?,Same,1,2,low,112,1.16,70,1.6,112,1.0,Yes,unsure,fa,3.8160881996154785,NA
24,1sy20#t,False,9,1,unequal,ST2_high_1_a2,P != T2?,Same,2,2,high,82,1.6,112,1.23,112,0.96,No,quiteSure,cr,3.636197090148926,NA
25,1sy20#t,False,10,1,unequal,ST2_low_1_a2,P != T2?,Same,2,2,low,82,1.5,132,0.82,132,0.8,No,quiteSure,cr,3.34279203414917,NA
26,1sy20#t,False,11,1,unequal,ST2_low_6_a2,P != T1?,Same,2,2,low,154,0.71,96,1.27,96,1.39,Yes,quiteSure,hit,2.623983860015869,NA
27,1sy20#t,False,12,1,unequal,ST1_high_4_a2,P != T2?,Same,1,2,high,96,1.15,70,1.65,96,1.31,No,sure,miss,2.7803430557250977,NA
28,1sy20#t,False,13,1,unequal,DT1_high_1_a2,P != T2?,Different,1,2,high,82,1.3,112,1.11,70,1.63,Yes,quiteSure,hit,2.3751111030578613,NA
29,1sy20#t,False,14,1,unequal,ST1_low_6_a1,P != T1?,Same,1,1,low,154,0.84,96,1.34,154,0.88,No,quiteSure,cr,1.7683570384979248,NA
30,1sy20#t,False,15,1,unequal,DT1_low_2_a2,P != T1?,Different,1,2,low,132,1.02,82,1.3,154,0.94,No,unsure,cr,1.3615522384643555,NA
31,1sy20#t,False,16,1,unequal,ST2_high_1_a2,P != T2?,Same,2,2,high,82,1.26,112,0.98,112,0.96,Yes,quiteSure,fa,1.2989699840545654,NA
32,1sy20#t,False,17,1,unequal,ST2_high_5_a2,P != T2?,Same,2,2,high,96,1.18,132,0.89,132,1.0,Yes,quiteSure,fa,2.329169273376465,NA
33,1sy20#t,False,18,1,unequal,ST1_low_2_a1,P != T2?,Same,1,1,low,132,0.8,82,1.67,132,1.03,Yes,quiteSure,hit,1.3871610164642334,NA
34,1sy20#t,False,19,1,unequal,ST1_low_5_a2,P != T2?,Same,1,2,low,96,1.42,154,0.88,96,1.24,Yes,sure,hit,2.033381938934326,NA
35,1sy20#t,False,20,1,unequal,ST1_low_2_a1,P != T1?,Same,1,1,low,132,0.91,82,1.37,132,0.99,No,quiteSure,cr,4.173703908920288,NA
36,1sy20#t,False,21,1,unequal,ST2_low_2_a1,P != T2?,Same,2,1,low,132,0.8,82,1.56,82,1.48,No,sure,cr,1.4697861671447754,NA
37,1sy20#t,False,22,1,unequal,ST1_low_5_a2,P != T1?,Same,1,2,low,96,1.24,154,0.81,96,1.06,No,unsure,cr,2.8336050510406494,NA
38,1sy20#t,False,23,1,unequal,ST2_high_5_a1,P != T2?,Same,2,1,high,96,1.4,132,0.86,132,0.96,No,sure,cr,4.849059104919434,NA
39,1sy20#t,False,24,1,unequal,DT1_high_5_a2,P != T2?,Different,1,2,high,96,1.3,132,0.98,82,1.6,No,quiteSure,miss,2.1000819206237793,NA
40,1sy20#t,False,25,1,unequal,ST2_low_6_a2,P != T1?,Same,2,2,low,154,0.86,96,1.16,96,1.37,No,quiteSure,miss,9.034789800643921,NA
41,1sy20#t,False,26,1,unequal,STb_4_a2,P != T1?,Same,0,2,None,96,1.28,96,1.31,96,1.09,No,sure,cr,1.0722391605377197,NA
42,1sy20#t,False,27,1,unequal,ST1_low_1_a1,P != T1?,Same,1,1,low,82,1.59,132,0.81,82,1.23,No,quiteSure,cr,4.445438861846924,NA
43,1sy20#t,False,28,1,unequal,ST1_high_4_a1,P != T1?,Same,1,1,high,96,1.34,70,1.63,96,1.36,No,unsure,cr,4.780806064605713,NA
44,1sy20#t,False,29,1,unequal,STb_4_a1,P != T2?,Same,0,1,None,96,1.22,96,1.07,96,1.35,No,quiteSure,cr,3.090437173843384,NA
45,1sy20#t,False,30,1,unequal,ST2_low_4_a1,P != T1?,Same,2,1,low,112,0.94,70,1.66,70,1.56,Yes,unsure,hit,3.681999921798706,NA
46,1sy20#t,False,31,1,unequal,ST2_low_4_a1,P != T1?,Same,2,1,low,112,1.1,70,1.17,70,1.49,Yes,unsure,hit,3.134511947631836,NA
47,1sy20#t,False,32,1,unequal,ST1_low_3_a2,P != T2?,Same,1,2,low,70,1.56,112,1.03,70,1.74,Yes,sure,hit,2.6684327125549316,NA
48,1sy20#t,False,33,1,unequal,ST2_low_2_a2,P != T2?,Same,2,2,low,132,0.79,82,1.24,82,1.43,No,quiteSure,cr,1.523618221282959,NA
49,1sy20#t,False,34,1,unequal,ST2_low_2_a1,P != T2?,Same,2,1,low,132,0.79,82,1.35,82,1.64,No,sure,cr,3.3875620365142822,NA
50,1sy20#t,False,35,1,unequal,ST2_low_3_a2,P != T2?,Same,2,2,low,70,1.44,112,0.95,112,1.16,No,quiteSure,cr,2.0822091102600098,NA
51,1sy20#t,False,36,1,unequal,ST2_high_4_a2,P != T2?,Same,2,2,high,96,1.22,70,1.54,70,1.82,No,sure,cr,1.5200409889221191,NA
52,1sy20#t,False,37,1,unequal,ST1_high_2_a2,P != T2?,Same,1,2,high,112,1.11,82,1.26,112,0.93,Yes,sure,hit,2.417728900909424,NA
53,1sy20#t,False,38,1,unequal,ST2_high_2_a1,P != T1?,Same,2,1,high,112,1.12,82,1.54,82,1.62,Yes,quiteSure,hit,1.8565027713775635,NA
54,1sy20#t,False,39,1,unequal,ST1_high_6_a2,P != T1?,Same,1,2,high,132,1.0,96,1.06,132,0.88,No,quiteSure,cr,2.4599838256835938,NA
55,1sy20#t,False,40,1,unequal,ST2_low_3_a2,P != T2?,Same,2,2,low,70,1.39,112,1.15,112,1.14,No,sure,cr,1.5226519107818604,NA
56,1sy20#t,False,41,1,unequal,ST1_low_6_a2,P != T2?,Same,1,2,low,154,0.94,96,1.26,154,0.85,Yes,sure,hit,1.2493031024932861,NA
57,1sy20#t,False,42,1,unequal,ST2_low_1_a1,P != T2?,Same,2,1,low,82,1.33,132,1.0,132,0.82,No,quiteSure,cr,3.2512402534484863,NA
58,1sy20#t,False,43,1,unequal,ST1_high_5_a1,P != T1?,Same,1,1,high,96,1.32,132,0.92,96,1.33,No,quiteSure,cr,5.364634990692139,NA
59,1sy20#t,False,44,1,unequal,ST1_high_3_a2,P != T1?,Same,1,2,high,70,1.8,96,1.18,70,1.63,No,quiteSure,cr,1.4088449478149414,NA
60,1sy20#t,False,45,1,unequal,ST2_low_5_a1,P != T2?,Same,2,1,low,96,1.4,154,0.81,154,0.92,No,sure,cr,2.096308946609497,NA
61,1sy20#t,False,46,1,unequal,STb_6_a2,P != T1?,Same,0,2,None,132,1.04,132,0.86,132,1.01,No,sure,cr,1.7888519763946533,NA
62,1sy20#t,False,47,1,unequal,ST2_high_2_a2,P != T1?,Same,2,2,high,112,1.18,82,1.45,82,1.59,No,quiteSure,miss,2.062295913696289,NA
63,1sy20#t,False,48,1,unequal,ST2_low_6_a2,P != T2?,Same,2,2,low,154,0.73,96,1.15,96,1.27,No,quiteSure,cr,1.8778936862945557,NA
64,1sy20#t,False,49,1,unequal,STb_5_a2,P != T2?,Same,0,2,None,112,1.19,112,1.13,112,1.11,No,sure,cr,2.528761863708496,NA
65,1sy20#t,False,50,1,unequal,ST2_high_3_a2,P != T1?,Same,2,2,high,70,1.76,96,1.07,96,1.4,No,sure,miss,1.4323348999023438,NA
66,1sy20#t,False,51,1,unequal,ST1_low_2_a2,P != T1?,Same,1,2,low,132,1.02,82,1.26,132,0.95,No,sure,cr,1.4969508647918701,NA
67,1sy20#t,False,52,1,unequal,ST2_high_1_a1,P != T2?,Same,2,1,high,82,1.26,112,0.94,112,1.07,Yes,unsure,fa,11.284637928009033,NA
68,1sy20#t,False,53,1,unequal,ST1_high_1_a2,P != T2?,Same,1,2,high,82,1.58,112,1.1,82,1.59,No,quiteSure,miss,3.9248549938201904,NA
69,1sy20#t,False,54,1,unequal,ST2_low_2_a2,P != T1?,Same,2,2,low,132,0.9,82,1.61,82,1.21,Yes,quiteSure,hit,2.1935629844665527,NA
70,1sy20#t,False,55,1,unequal,ST2_low_5_a2,P != T1?,Same,2,2,low,96,1.31,154,0.8,154,0.75,Yes,quiteSure,hit,1.045151948928833,NA
71,1sy20#t,False,56,1,unequal,ST1_low_2_a1,P != T2?,Same,1,1,low,132,0.86,82,1.45,132,0.94,Yes,quiteSure,hit,1.9233460426330566,NA
72,1sy20#t,False,57,1,unequal,ST2_low_6_a1,P != T2?,Same,2,1,low,154,0.74,96,1.25,96,1.4,No,sure,cr,2.331873893737793,NA
73,1sy20#t,False,58,1,unequal,ST2_low_3_a2,P != T1?,Same,2,2,low,70,1.54,112,1.11,112,0.93,Yes,quiteSure,hit,2.2239527702331543,NA
74,1sy20#t,False,59,1,unequal,ST2_low_6_a1,P != T1?,Same,2,1,low,154,0.77,96,1.26,96,1.32,Yes,quiteSure,hit,2.124384880065918,NA
75,1sy20#t,False,60,1,unequal,ST2_high_6_a1,P != T1?,Same,2,1,high,132,0.82,96,1.06,96,1.18,Yes,quiteSure,hit,3.436972141265869,NA
76,1sy20#t,False,61,1,unequal,ST2_low_3_a2,P != T1?,Same,2,2,low,70,1.62,112,1.05,112,1.19,Yes,quiteSure,hit,1.4984490871429443,NA
77,1sy20#t,False,62,1,unequal,ST2_high_2_a1,P != T1?,Same,2,1,high,112,1.0,82,1.34,82,1.46,No,quiteSure,miss,3.073946714401245,NA
78,1sy20#t,False,63,1,unequal,DT2_high_6_a1,P != T2?,Different,2,1,high,132,0.91,96,1.09,82,1.58,No,sure,cr,3.0269057750701904,NA
79,1sy20#t,False,64,1,unequal,ST2_high_2_a1,P != T1?,Same,2,1,high,112,0.97,82,1.48,82,1.38,Yes,quiteSure,hit,1.632059097290039,NA
80,1sy20#t,False,65,1,unequal,ST2_low_2_a1,P != T2?,Same,2,1,low,132,0.84,82,1.35,82,1.59,No,sure,cr,1.6346399784088135,NA
81,1sy20#t,False,66,1,unequal,ST1_low_4_a1,P != T1?,Same,1,1,low,112,1.04,70,1.8,112,0.97,No,unsure,cr,5.008197069168091,NA
82,1sy20#t,False,67,1,unequal,STb_5_a1,P != T2?,Same,0,1,None,112,0.92,112,1.16,112,1.1,No,sure,cr,1.7676458358764648,NA
83,1sy20#t,False,68,1,unequal,ST1_high_6_a1,P != T1?,Same,1,1,high,132,0.83,96,1.35,132,0.93,No,quiteSure,cr,2.7554500102996826,NA
84,1sy20#t,False,69,1,unequal,ST2_high_4_a2,P != T1?,Same,2,2,high,96,1.21,70,1.64,70,1.77,Yes,sure,hit,3.1375367641448975,NA
85,1sy20#t,False,70,1,unequal,ST1_low_6_a1,P != T1?,Same,1,1,low,154,0.84,96,1.18,154,0.72,No,unsure,cr,4.759724855422974,NA
86,1sy20#t,False,71,1,unequal,ST1_low_3_a2,P != T1?,Same,1,2,low,70,1.59,112,1.05,70,1.67,Yes,unsure,fa,1.8324480056762695,NA
87,1sy20#t,False,72,1,unequal,ST1_high_5_a2,P != T2?,Same,1,2,high,96,1.25,132,0.92,96,1.39,Yes,unsure,hit,6.266057014465332,NA
88,1sy20#t,False,73,1,unequal,ST1_low_4_a2,P != T1?,Same,1,2,low,112,1.16,70,1.57,112,0.92,Yes,unsure,fa,3.505568027496338,NA
89,1sy20#t,False,74,1,unequal,ST2_high_3_a2,P != T2?,Same,2,2,high,70,1.73,96,1.23,96,1.31,No,sure,cr,1.4072778224945068,NA
90,1sy20#t,False,75,1,unequal,ST2_high_2_a1,P != T2?,Same,2,1,high,112,0.92,82,1.61,82,1.3,No,sure,cr,1.3847846984863281,NA
91,1sy20#t,False,76,1,unequal,ST1_high_4_a1,P != T1?,Same,1,1,high,96,1.4,70,1.39,96,1.07,No,quiteSure,cr,1.6516926288604736,NA
92,1sy20#t,False,77,1,unequal,ST1_low_1_a1,P != T1?,Same,1,1,low,82,1.33,132,0.81,82,1.21,No,unsure,cr,3.5898921489715576,NA
93,1sy20#t,False,78,1,unequal,ST2_high_2_a2,P != T2?,Same,2,2,high,112,1.16,82,1.42,82,1.28,No,sure,cr,2.2875630855560303,NA
94,1sy20#t,False,79,1,unequal,ST1_low_2_a2,P != T1?,Same,1,2,low,132,0.89,82,1.37,132,0.86,No,quiteSure,cr,2.012772798538208,NA
95,1sy20#t,False,80,1,unequal,ST1_low_6_a2,P != T2?,Same,1,2,low,154,0.73,96,1.08,154,0.87,Yes,sure,hit,4.826551914215088,NA
96,1sy20#t,False,81,1,unequal,ST1_low_6_a2,P != T1?,Same,1,2,low,154,0.79,96,1.38,154,0.89,Yes,quiteSure,fa,3.0770418643951416,NA
97,1sy20#t,False,82,1,unequal,ST1_low_1_a2,P != T1?,Same,1,2,low,82,1.27,132,0.96,82,1.6,No,quiteSure,cr,2.7820518016815186,NA
98,1sy20#t,False,83,1,unequal,ST1_low_3_a2,P != T1?,Same,1,2,low,70,1.38,112,1.24,70,1.4,No,unsure,cr,1.634498119354248,NA
99,1sy20#t,False,84,1,unequal,ST1_low_1_a1,P != T2?,Same,1,1,low,82,1.62,132,0.98,82,1.26,Yes,sure,hit,2.5967628955841064,NA
100,1sy20#t,False,85,1,unequal,ST2_high_6_a2,P != T1?,Same,2,2,high,132,1.03,96,1.15,96,1.19,Yes,unsure,hit,4.800556182861328,NA
101,1sy20#t,False,86,1,unequal,ST2_low_2_a2,P != T2?,Same,2,2,low,132,0.8,82,1.24,82,1.23,No,quiteSure,cr,1.83479905128479,NA
102,1sy20#t,False,87,1,unequal,ST1_low_3_a1,P != T2?,Same,1,1,low,70,1.62,112,1.19,70,1.42,Yes,sure,hit,1.2023828029632568,NA
103,1sy20#t,False,88,1,unequal,ST2_high_3_a2,P != T2?,Same,2,2,high,70,1.51,96,1.12,96,1.3,No,sure,cr,0.9794318675994873,NA
104,1sy20#t,False,89,1,unequal,ST2_high_5_a2,P != T2?,Same,2,2,high,96,1.17,132,1.02,132,1.0,No,sure,cr,1.164341926574707,NA
105,1sy20#t,False,90,1,unequal,ST2_high_4_a2,P != T1?,Same,2,2,high,96,1.37,70,1.46,70,1.47,Yes,sure,hit,1.3407011032104492,NA
106,1sy20#t,False,91,1,unequal,ST2_high_3_a2,P != T1?,Same,2,2,high,70,1.67,96,1.4,96,1.08,Yes,sure,hit,3.025725841522217,NA
107,1sy20#t,False,92,1,unequal,ST1_low_1_a1,P != T1?,Same,1,1,low,82,1.29,132,0.97,82,1.25,No,unsure,cr,7.773215055465698,NA
108,1sy20#t,False,93,1,unequal,DT2_high_4_a2,P != T1?,Different,2,2,high,96,1.06,70,1.53,60,1.94,No,quiteSure,miss,4.328393936157227,NA
109,1sy20#t,False,94,1,unequal,ST1_high_2_a2,P != T1?,Same,1,2,high,112,1.21,82,1.59,112,1.03,No,quiteSure,cr,1.6067960262298584,NA
110,1sy20#t,False,95,1,unequal,ST1_high_3_a1,P != T2?,Same,1,1,high,70,1.51,96,1.19,70,1.76,No,unsure,miss,4.536158084869385,NA
111,1sy20#t,False,96,1,unequal,ST1_low_3_a2,P != T2?,Same,1,2,low,70,1.38,112,0.98,70,1.46,Yes,quiteSure,hit,2.4416658878326416,NA
112,1sy20#t,False,97,1,unequal,ST1_high_1_a1,P != T1?,Same,1,1,high,82,1.34,112,1.1,82,1.31,No,unsure,cr,7.034060001373291,NA
113,1sy20#t,False,98,1,unequal,ST2_low_5_a1,P != T2?,Same,2,1,low,96,1.21,154,0.88,154,0.78,No,sure,cr,5.977313041687012,NA
114,1sy20#t,False,99,1,unequal,ST1_high_6_a2,P != T2?,Same,1,2,high,132,0.87,96,1.39,132,0.91,Yes,quiteSure,hit,4.32768702507019,NA
115,1sy20#t,False,100,1,unequal,ST1_low_3_a2,P != T2?,Same,1,2,low,70,1.62,112,0.95,70,1.57,Yes,quiteSure,hit,1.5380852222442627,NA
116,1sy20#t,False,101,1,unequal,ST1_high_2_a1,P != T1?,Same,1,1,high,112,1.23,82,1.23,112,1.09,Yes,unsure,fa,2.984139919281006,NA
117,1sy20#t,False,102,1,unequal,ST2_high_3_a1,P != T1?,Same,2,1,high,70,1.7,96,1.14,96,1.28,No,unsure,miss,4.938270807266235,NA
118,1sy20#t,False,103,1,unequal,ST2_high_3_a1,P != T2?,Same,2,1,high,70,1.5,96,1.11,96,1.39,No,sure,cr,1.4101970195770264,NA
119,1sy20#t,False,104,1,unequal,ST1_high_5_a2,P != T1?,Same,1,2,high,96,1.17,132,0.74,96,1.44,No,unsure,cr,4.576966047286987,NA
120,1sy20#t,False,105,1,unequal,ST1_high_1_a1,P != T2?,Same,1,1,high,82,1.26,112,0.95,82,1.36,No,sure,miss,1.5883090496063232,NA
121,1sy20#t,False,106,1,unequal,STb_7_a2,P != T1?,Same,0,2,None,154,0.65,154,0.9,154,0.74,Yes,unsure,fa,1.6317062377929688,NA
122,1sy20#t,False,107,1,unequal,ST2_high_6_a2,P != T1?,Same,2,2,high,132,1.04,96,1.32,96,1.33,No,quiteSure,miss,3.3881888389587402,NA
123,1sy20#t,False,108,1,unequal,ST1_low_5_a1,P != T1?,Same,1,1,low,96,1.17,154,0.88,96,1.25,No,unsure,cr,6.379064083099365,NA
124,1sy20#t,False,109,1,unequal,STb_3_a2,P != T1?,Same,0,2,None,82,1.57,82,1.37,82,1.6,No,sure,cr,2.441960096359253,NA
125,1sy20#t,False,110,1,unequal,ST1_low_3_a1,P != T2?,Same,1,1,low,70,1.41,112,1.06,70,1.83,Yes,unsure,hit,2.936206817626953,NA
126,1sy20#t,False,111,1,unequal,ST1_high_5_a1,P != T1?,Same,1,1,high,96,1.28,132,0.88,96,1.38,No,quiteSure,cr,1.6761341094970703,NA
127,1sy20#t,False,112,1,unequal,ST1_high_3_a2,P != T2?,Same,1,2,high,70,1.76,96,1.08,70,1.44,Yes,sure,hit,1.7636570930480957,NA
128,1sy20#t,False,113,1,unequal,ST2_low_3_a1,P != T1?,Same,2,1,low,70,1.45,112,1.03,112,1.1,Yes,unsure,hit,1.0274717807769775,NA
129,1sy20#t,False,114,1,unequal,ST2_low_6_a2,P != T1?,Same,2,2,low,154,0.74,96,1.31,96,1.41,Yes,quiteSure,hit,1.3851361274719238,NA
130,1sy20#t,False,115,1,unequal,ST1_high_4_a1,P != T2?,Same,1,1,high,96,1.06,70,1.43,96,1.33,No,quiteSure,miss,4.894790172576904,NA
131,1sy20#t,False,116,1,unequal,ST2_low_4_a1,P != T2?,Same,2,1,low,112,1.1,70,1.75,70,1.59,No,quiteSure,cr,3.3013710975646973,NA
132,1sy20#t,False,117,1,unequal,ST1_high_3_a2,P != T2?,Same,1,2,high,70,1.57,96,1.22,70,1.8,No,quiteSure,miss,1.1145410537719727,NA
133,1sy20#t,False,118,1,unequal,DT1_low_2_a1,P != T2?,Different,1,1,low,132,0.83,82,1.47,154,0.84,Yes,sure,hit,2.0580830574035645,NA
134,1sy20#t,False,119,1,unequal,ST2_high_3_a1,P != T2?,Same,2,1,high,70,1.39,96,1.39,96,1.07,No,quiteSure,cr,2.822484016418457,NA
135,1sy20#t,False,120,1,unequal,ST1_low_2_a1,P != T1?,Same,1,1,low,132,1.03,82,1.28,132,1.0,No,unsure,cr,7.480065107345581,NA
136,1sy20#t,False,121,1,unequal,ST1_high_4_a2,P != T2?,Same,1,2,high,96,1.37,70,1.6,96,1.24,No,sure,miss,1.2473931312561035,NA
137,1sy20#t,False,122,1,unequal,ST2_low_3_a2,P != T2?,Same,2,2,low,70,1.75,112,1.16,112,1.07,No,sure,cr,3.098978042602539,NA
138,1sy20#t,False,123,1,unequal,ST1_low_5_a1,P != T2?,Same,1,1,low,96,1.24,154,0.93,96,1.41,Yes,quiteSure,hit,4.33101487159729,NA
139,1sy20#t,False,124,1,unequal,DT2_high_6_a2,P != T2?,Different,2,2,high,132,1.03,96,1.27,82,1.35,Yes,sure,fa,1.0916402339935303,NA
140,1sy20#t,False,125,1,unequal,ST2_high_5_a1,P != T1?,Same,2,1,high,96,1.16,132,0.87,132,0.97,Yes,sure,hit,2.3058459758758545,NA
141,1sy20#t,False,126,1,unequal,ST2_high_6_a1,P != T1?,Same,2,1,high,132,0.81,96,1.27,96,1.39,No,unsure,miss,6.0414416790008545,NA
142,1sy20#t,False,127,1,unequal,STb_6_a1,P != T2?,Same,0,1,None,132,1.04,132,0.84,132,0.81,No,sure,cr,1.5610620975494385,NA
143,1sy20#t,False,128,1,unequal,ST1_high_4_a1,P != T1?,Same,1,1,high,96,1.07,70,1.77,96,1.28,No,quiteSure,cr,2.5937039852142334,NA
144,1sy20#t,False,129,1,unequal,ST1_low_6_a2,P != T1?,Same,1,2,low,154,0.82,96,1.08,154,0.94,No,quiteSure,cr,3.116083860397339,NA
145,1sy20#t,False,130,1,unequal,ST1_low_6_a1,P != T2?,Same,1,1,low,154,0.79,96,1.22,154,0.8,Yes,sure,hit,1.9685890674591064,NA
146,1sy20#t,False,131,1,unequal,ST2_high_5_a2,P != T1?,Same,2,2,high,96,1.25,132,1.03,132,0.79,Yes,unsure,hit,10.163525819778442,NA
147,1sy20#t,False,132,1,unequal,STb_8_a2,P != T1?,Same,0,2,None,180,0.72,180,0.89,180,0.76,No,sure,cr,2.063476800918579,NA
148,1sy20#t,False,133,1,unequal,ST2_high_4_a1,P != T1?,Same,2,1,high,96,1.25,70,1.77,70,1.7,No,quiteSure,miss,2.7371370792388916,NA
149,1sy20#t,False,134,1,unequal,ST2_low_3_a1,P != T1?,Same,2,1,low,70,1.81,112,1.1,112,1.04,No,unsure,miss,2.7094297409057617,NA
150,1sy20#t,False,135,1,unequal,ST2_high_5_a2,P != T2?,Same,2,2,high,96,1.25,132,0.92,132,0.96,No,sure,cr,3.0927939414978027,NA
151,1sy20#t,False,136,1,unequal,ST1_high_1_a1,P != T1?,Same,1,1,high,82,1.57,112,0.92,82,1.62,No,quiteSure,cr,2.757079839706421,NA
152,1sy20#t,False,137,1,unequal,ST2_low_5_a2,P != T2?,Same,2,2,low,96,1.27,154,0.66,154,0.86,No,sure,cr,1.656397819519043,NA
153,1sy20#t,False,138,1,unequal,ST1_high_6_a2,P != T2?,Same,1,2,high,132,1.04,96,1.16,132,0.87,Yes,sure,hit,3.0488219261169434,NA
154,1sy20#t,False,139,1,unequal,ST1_high_1_a2,P != T1?,Same,1,2,high,82,1.59,112,1.18,82,1.34,No,quiteSure,cr,4.916507005691528,NA
155,1sy20#t,False,140,1,unequal,ST1_high_3_a2,P != T2?,Same,1,2,high,70,1.82,96,1.18,70,1.38,No,unsure,miss,6.489853858947754,NA
156,1sy20#t,False,141,1,unequal,ST2_low_1_a2,P != T1?,Same,2,2,low,82,1.58,132,1.0,132,0.88,Yes,quiteSure,hit,3.4104700088500977,NA
157,1sy20#t,False,142,1,unequal,DT1_low_4_a2,P != T1?,Different,1,2,low,112,1.04,70,1.8,132,0.96,No,quiteSure,cr,2.149841785430908,NA
158,1sy20#t,False,143,1,unequal,ST2_high_2_a2,P != T2?,Same,2,2,high,112,0.98,82,1.4,82,1.55,No,sure,cr,2.985813856124878,NA
159,1sy20#t,False,144,1,unequal,DT2_low_5_a2,P != T1?,Different,2,2,low,96,1.29,154,0.73,180,0.85,Yes,sure,hit,2.73058819770813,NA
160,1sy20#t,False,145,1,unequal,ST1_low_5_a1,P != T2?,Same,1,1,low,96,1.24,154,0.75,96,1.41,Yes,sure,hit,1.2493281364440918,NA
161,1sy20#t,False,146,1,unequal,ST2_high_3_a1,P != T2?,Same,2,1,high,70,1.49,96,1.24,96,1.16,No,sure,cr,2.938598155975342,NA
162,1sy20#t,False,147,1,unequal,ST2_low_6_a2,P != T2?,Same,2,2,low,154,0.75,96,1.27,96,1.25,No,unsure,cr,2.6887710094451904,NA
163,1sy20#t,False,148,1,unequal,STb_8_a1,P != T1?,Same,0,1,None,180,0.71,180,0.9,180,0.79,No,sure,cr,2.0858590602874756,NA
164,1sy20#t,False,149,1,unequal,ST2_low_5_a1,P != T1?,Same,2,1,low,96,1.11,154,0.83,154,0.92,Yes,sure,hit,2.465590000152588,NA
165,1sy20#t,False,150,1,unequal,ST2_low_5_a1,P != T1?,Same,2,1,low,96,1.29,154,0.85,154,0.8,Yes,sure,hit,1.5831642150878906,NA
166,1sy20#t,False,151,1,unequal,ST2_low_1_a1,P != T2?,Same,2,1,low,82,1.28,132,1.02,132,0.93,No,sure,cr,2.8676631450653076,NA
167,1sy20#t,False,152,1,unequal,ST1_low_1_a2,P != T2?,Same,1,2,low,82,1.34,132,0.87,82,1.45,Yes,quiteSure,hit,1.5179920196533203,NA
168,1sy20#t,False,153,1,unequal,ST2_low_3_a1,P != T2?,Same,2,1,low,70,1.44,112,0.94,112,1.23,No,sure,cr,2.621513843536377,NA
169,1sy20#t,False,154,1,unequal,STb_7_a2,P != T2?,Same,0,2,None,154,0.81,154,0.68,154,0.93,No,sure,cr,2.330939292907715,NA
170,1sy20#t,False,155,1,unequal,ST1_low_3_a1,P != T1?,Same,1,1,low,70,1.39,112,1.2,70,1.62,No,unsure,cr,8.502142190933228,NA
171,1sy20#t,False,156,1,unequal,ST1_high_1_a2,P != T1?,Same,1,2,high,82,1.57,112,1.19,82,1.23,Yes,unsure,fa,4.222941160202026,NA
172,1sy20#t,False,157,1,unequal,ST1_low_4_a1,P != T1?,Same,1,1,low,112,1.2,70,1.53,112,0.93,No,quiteSure,cr,3.863614797592163,NA
173,1sy20#t,False,158,1,unequal,ST1_high_5_a1,P != T2?,Same,1,1,high,96,1.34,132,0.89,96,1.42,Yes,sure,hit,5.907954931259155,NA
174,1sy20#t,False,159,1,unequal,ST2_low_3_a2,P != T1?,Same,2,2,low,70,1.82,112,1.04,112,1.17,Yes,quiteSure,hit,2.799075126647949,NA
175,1sy20#t,False,160,1,unequal,ST2_high_1_a1,P != T1?,Same,2,1,high,82,1.43,112,1.23,112,1.01,Yes,quiteSure,hit,1.9244928359985352,NA
176,1sy20#t,False,161,1,unequal,ST1_high_5_a1,P != T2?,Same,1,1,high,96,1.25,132,0.86,96,1.4,Yes,sure,hit,1.1642417907714844,NA
177,1sy20#t,False,162,1,unequal,DT1_low_1_a2,P != T1?,Different,1,2,low,82,1.66,132,0.93,70,1.38,Yes,quiteSure,fa,3.117555856704712,NA
178,1sy20#t,False,163,1,unequal,ST1_low_2_a1,P != T2?,Same,1,1,low,132,0.97,82,1.64,132,0.98,Yes,sure,hit,1.1135718822479248,NA
179,1sy20#t,False,164,1,unequal,ST1_high_2_a2,P != T2?,Same,1,2,high,112,0.99,82,1.54,112,1.24,Yes,sure,hit,7.592356204986572,NA
180,1sy20#t,False,165,1,unequal,STb_1_a2,P != T2?,Same,0,2,None,60,1.54,60,1.55,60,1.73,No,sure,cr,2.3275840282440186,NA
181,1sy20#t,False,166,1,unequal,ST2_high_2_a1,P != T2?,Same,2,1,high,112,1.14,82,1.3,82,1.35,No,sure,cr,1.294037103652954,NA
182,1sy20#t,False,167,1,unequal,ST2_high_6_a1,P != T2?,Same,2,1,high,132,1.0,96,1.22,96,1.12,No,sure,cr,3.207882881164551,NA
183,1sy20#t,False,168,1,unequal,ST1_high_5_a2,P != T1?,Same,1,2,high,96,1.27,132,0.99,96,1.37,No,unsure,cr,3.8076651096343994,NA
184,1sy20#t,False,169,1,unequal,ST1_high_4_a2,P != T1?,Same,1,2,high,96,1.23,70,1.55,96,1.42,No,sure,cr,1.6554789543151855,NA
185,1sy20#t,False,170,1,unequal,ST1_low_4_a1,P != T2?,Same,1,1,low,112,1.23,70,1.81,112,1.0,Yes,quiteSure,hit,8.608665943145752,NA
186,1sy20#t,False,171,1,unequal,ST2_high_5_a2,P != T1?,Same,2,2,high,96,1.21,132,0.8,132,0.96,Yes,unsure,hit,4.695334196090698,NA
187,1sy20#t,False,172,1,unequal,ST2_low_1_a2,P != T2?,Same,2,2,low,82,1.39,132,0.82,132,0.9,No,sure,cr,1.2485361099243164,NA
188,1sy20#t,False,173,1,unequal,ST1_low_6_a1,P != T1?,Same,1,1,low,154,0.75,96,1.19,154,0.75,Yes,quiteSure,fa,4.126407861709595,NA
189,1sy20#t,False,174,1,unequal,ST1_low_4_a1,P != T2?,Same,1,1,low,112,1.16,70,1.8,112,1.17,Yes,sure,hit,1.3609628677368164,NA
190,1sy20#t,False,175,1,unequal,ST1_low_2_a2,P != T2?,Same,1,2,low,132,0.83,82,1.36,132,0.81,Yes,sure,hit,2.214468002319336,NA
191,1sy20#t,False,176,1,unequal,ST2_high_4_a1,P != T2?,Same,2,1,high,96,1.28,70,1.81,70,1.48,No,sure,cr,2.2614550590515137,NA
192,1sy20#t,False,177,1,unequal,ST2_low_6_a1,P != T1?,Same,2,1,low,154,0.9,96,1.19,96,1.21,Yes,sure,hit,1.6798388957977295,NA
193,1sy20#t,False,178,1,unequal,ST1_high_5_a2,P != T2?,Same,1,2,high,96,1.19,132,0.96,96,1.19,Yes,sure,hit,2.937096118927002,NA
194,1sy20#t,False,179,1,unequal,ST1_high_2_a2,P != T1?,Same,1,2,high,112,1.14,82,1.58,112,1.08,No,quiteSure,cr,1.5413329601287842,NA
195,1sy20#t,False,180,1,unequal,ST1_high_4_a1,P != T2?,Same,1,1,high,96,1.41,70,1.82,96,1.24,Yes,sure,hit,1.339026927947998,NA
196,1sy20#t,False,181,1,unequal,ST1_low_4_a1,P != T2?,Same,1,1,low,112,1.12,70,1.48,112,1.21,Yes,quiteSure,hit,1.9899919033050537,NA
197,1sy20#t,False,182,1,unequal,STb_6_a2,P != T2?,Same,0,2,None,132,1.05,132,0.81,132,0.95,No,sure,cr,2.6237990856170654,NA
198,1sy20#t,False,183,1,unequal,ST2_low_1_a2,P != T1?,Same,2,2,low,82,1.62,132,0.85,132,0.92,Yes,quiteSure,hit,3.9277150630950928,NA
199,1sy20#t,False,184,1,unequal,ST1_high_1_a2,P != T2?,Same,1,2,high,82,1.31,112,0.93,82,1.22,No,quiteSure,miss,4.892734050750732,NA
200,1sy20#t,False,185,1,unequal,ST2_high_4_a1,P != T2?,Same,2,1,high,96,1.2,70,1.94,70,1.58,No,sure,cr,1.9706621170043945,NA
201,1sy20#t,False,186,1,unequal,ST2_high_6_a2,P != T2?,Same,2,2,high,132,0.94,96,1.24,96,1.07,No,quiteSure,cr,3.1176061630249023,NA
202,1sy20#t,False,187,1,unequal,ST1_low_1_a2,P != T2?,Same,1,2,low,82,1.4,132,0.92,82,1.36,Yes,sure,hit,1.7657628059387207,NA
203,1sy20#t,False,188,1,unequal,ST1_low_5_a1,P != T1?,Same,1,1,low,96,1.41,154,0.86,96,1.22,No,sure,cr,6.647707939147949,NA
204,1sy20#t,False,189,1,unequal,ST1_low_5_a2,P != T2?,Same,1,2,low,96,1.07,154,0.89,96,1.15,Yes,sure,hit,15.242907047271729,NA
205,1sy20#t,False,190,1,unequal,ST1_high_2_a1,P != T2?,Same,1,1,high,112,1.13,82,1.6,112,0.93,Yes,sure,hit,7.8402931690216064,NA
206,1sy20#t,False,191,1,unequal,ST2_high_4_a2,P != T2?,Same,2,2,high,96,1.16,70,1.5,70,1.46,No,sure,cr,3.723581075668335,NA
207,1sy20#t,False,192,1,unequal,ST1_low_3_a1,P != T1?,Same,1,1,low,70,1.67,112,1.13,70,1.49,No,sure,cr,6.809144735336304,NA
208,1sy20#t,False,193,1,unequal,ST1_high_2_a1,P != T1?,Same,1,1,high,112,1.13,82,1.49,112,0.94,Yes,quiteSure,fa,7.142729997634888,NA
209,1sy20#t,False,194,1,unequal,ST1_high_4_a1,P != T2?,Same,1,1,high,96,1.16,70,1.43,96,1.23,No,sure,miss,1.0675320625305176,NA
210,1sy20#t,False,195,1,unequal,ST1_low_2_a2,P != T1?,Same,1,2,low,132,1.03,82,1.56,132,0.8,No,sure,cr,1.270772933959961,NA
211,1sy20#t,False,196,1,unequal,ST1_high_3_a1,P != T1?,Same,1,1,high,70,1.54,96,1.23,70,1.58,No,sure,cr,2.5118720531463623,NA
212,1sy20#t,False,197,1,unequal,ST2_low_6_a1,P != T2?,Same,2,1,low,154,0.78,96,1.08,96,1.17,No,sure,cr,5.61644721031189,NA
213,1sy20#t,False,198,1,unequal,DT2_high_2_a1,P != T1?,Different,2,1,high,112,1.08,82,1.24,70,1.5,No,quiteSure,miss,4.0153491497039795,NA
214,1sy20#t,False,199,1,unequal,ST2_high_6_a1,P != T2?,Same,2,1,high,132,0.83,96,1.43,96,1.18,No,sure,cr,1.0456109046936035,NA
215,1sy20#t,False,200,1,unequal,DT2_high_2_a1,P != T2?,Different,2,1,high,112,1.19,82,1.39,70,1.44,Yes,quiteSure,fa,2.213035821914673,NA
216,1sy20#t,False,201,1,unequal,ST1_high_5_a1,P != T1?,Same,1,1,high,96,1.08,132,0.92,96,1.21,No,quiteSure,cr,2.6902029514312744,NA
217,1sy20#t,False,202,1,unequal,ST2_low_5_a2,P != T2?,Same,2,2,low,96,1.27,154,0.9,154,0.75,No,sure,cr,4.9173431396484375,NA
218,1sy20#t,False,203,1,unequal,ST1_low_4_a2,P != T1?,Same,1,2,low,112,0.92,70,1.74,112,1.18,No,unsure,cr,3.8579750061035156,NA
219,1sy20#t,False,204,1,unequal,ST1_high_6_a1,P != T2?,Same,1,1,high,132,0.88,96,1.3,132,0.92,Yes,sure,hit,2.2137279510498047,NA
220,1sy20#t,False,205,1,unequal,ST1_high_3_a2,P != T1?,Same,1,2,high,70,1.61,96,1.4,70,1.51,Yes,sure,fa,2.116264820098877,NA
221,1sy20#t,False,206,1,unequal,ST2_high_1_a2,P != T1?,Same,2,2,high,82,1.57,112,1.18,112,1.16,Yes,sure,hit,2.6462631225585938,NA
222,1sy20#t,False,207,1,unequal,ST2_low_5_a2,P != T2?,Same,2,2,low,96,1.22,154,0.72,154,0.77,No,sure,cr,4.105391979217529,NA
223,1sy20#t,False,208,1,unequal,ST2_low_1_a2,P != T2?,Same,2,2,low,82,1.25,132,0.83,132,0.99,No,sure,cr,3.4507272243499756,NA
224,1sy20#t,False,209,1,unequal,ST1_low_4_a2,P != T2?,Same,1,2,low,112,1.03,70,1.75,112,1.03,Yes,sure,hit,1.5003931522369385,NA
225,1sy20#t,False,210,1,unequal,ST1_low_2_a2,P != T2?,Same,1,2,low,132,0.98,82,1.57,132,0.79,Yes,sure,hit,2.084195852279663,NA
226,1sy20#t,False,211,1,unequal,ST2_high_2_a2,P != T1?,Same,2,2,high,112,1.18,82,1.53,82,1.53,Yes,sure,hit,2.0825769901275635,NA
227,1sy20#t,False,212,1,unequal,DT1_high_5_a2,P != T1?,Different,1,2,high,96,1.14,132,0.97,82,1.61,Yes,sure,fa,7.235100030899048,NA
228,1sy20#t,False,213,1,unequal,ST2_low_5_a1,P != T2?,Same,2,1,low,96,1.06,154,0.8,154,0.79,Yes,sure,fa,3.0691630840301514,NA
229,1sy20#t,False,214,1,unequal,ST2_low_2_a2,P != T2?,Same,2,2,low,132,0.81,82,1.26,82,1.49,No,sure,cr,5.302304983139038,NA
230,1sy20#t,False,215,1,unequal,ST2_low_2_a1,P != T1?,Same,2,1,low,132,0.91,82,1.37,82,1.6,Yes,sure,hit,2.3071610927581787,NA
231,1sy20#t,False,216,1,unequal,ST1_high_1_a1,P != T2?,Same,1,1,high,82,1.4,112,0.96,82,1.35,No,sure,miss,6.2576799392700195,NA
232,1sy20#t,False,217,1,unequal,ST1_high_6_a1,P != T2?,Same,1,1,high,132,1.0,96,1.37,132,0.86,Yes,sure,hit,1.0049879550933838,NA
233,1sy20#t,False,218,1,unequal,ST1_high_2_a1,P != T2?,Same,1,1,high,112,0.92,82,1.31,112,0.95,Yes,unsure,hit,4.634856224060059,NA
234,1sy20#t,False,219,1,unequal,ST2_low_4_a2,P != T2?,Same,2,2,low,112,1.09,70,1.75,70,1.65,No,sure,cr,5.394115209579468,NA
235,1sy20#t,False,220,1,unequal,ST2_high_3_a2,P != T1?,Same,2,2,high,70,1.62,96,1.08,96,1.34,Yes,quiteSure,hit,1.3383259773254395,NA
236,1sy20#t,False,221,1,unequal,ST2_low_6_a2,P != T2?,Same,2,2,low,154,0.78,96,1.17,96,1.19,No,sure,cr,2.0126819610595703,NA
237,1sy20#t,False,222,1,unequal,ST1_high_5_a2,P != T1?,Same,1,2,high,96,1.12,132,0.82,96,1.36,No,quiteSure,cr,1.4524011611938477,NA
238,1sy20#t,False,223,1,unequal,ST2_high_1_a2,P != T2?,Same,2,2,high,82,1.3,112,0.92,112,1.15,No,sure,cr,1.5839049816131592,NA
239,1sy20#t,False,224,1,unequal,ST1_high_3_a2,P != T1?,Same,1,2,high,70,1.37,96,1.13,70,1.56,Yes,quiteSure,fa,3.653797149658203,NA
240,1sy20#t,False,225,1,unequal,ST2_low_4_a1,P != T2?,Same,2,1,low,112,1.15,70,1.64,70,1.66,No,sure,cr,1.3862059116363525,NA
241,1sy20#t,False,226,1,unequal,ST2_low_6_a1,P != T1?,Same,2,1,low,154,0.79,96,1.32,96,1.26,Yes,sure,hit,2.847156047821045,NA
242,1sy20#t,False,227,1,unequal,ST2_high_6_a1,P != T1?,Same,2,1,high,132,1.04,96,1.26,96,1.28,Yes,quiteSure,hit,2.5083470344543457,NA
243,1sy20#t,False,228,1,unequal,ST2_high_3_a2,P != T2?,Same,2,2,high,70,1.51,96,1.16,96,1.22,No,sure,cr,1.606112003326416,NA
244,1sy20#t,False,229,1,unequal,ST1_high_1_a1,P != T1?,Same,1,1,high,82,1.33,112,1.15,82,1.37,Yes,quiteSure,fa,2.2616031169891357,NA
245,1sy20#t,False,230,1,unequal,ST1_high_6_a1,P != T1?,Same,1,1,high,132,0.99,96,1.18,132,1.06,No,quiteSure,cr,4.06125807762146,NA
246,1sy20#t,False,231,1,unequal,ST2_low_2_a2,P != T1?,Same,2,2,low,132,0.93,82,1.52,82,1.25,Yes,sure,hit,1.9245729446411133,NA
247,1sy20#t,False,232,1,unequal,ST1_low_4_a2,P != T2?,Same,1,2,low,112,1.21,70,1.77,112,0.96,Yes,quiteSure,hit,3.181575059890747,NA
248,1sy20#t,False,233,1,unequal,ST1_low_1_a2,P != T1?,Same,1,2,low,82,1.31,132,0.88,82,1.63,No,sure,cr,1.074354887008667,NA
249,1sy20#t,False,234,1,unequal,ST1_low_1_a2,P != T1?,Same,1,2,low,82,1.4,132,1.01,82,1.42,No,unsure,cr,3.4315948486328125,NA
250,1sy20#t,False,235,1,unequal,ST2_high_4_a2,P != T2?,Same,2,2,high,96,1.35,70,1.63,70,1.53,Yes,quiteSure,fa,5.077584981918335,NA
251,1sy20#t,False,236,1,unequal,ST1_low_1_a1,P != T2?,Same,1,1,low,82,1.45,132,1.03,82,1.24,Yes,quiteSure,hit,4.44386100769043,NA
252,1sy20#t,False,237,1,unequal,ST1_low_3_a1,P != T2?,Same,1,1,low,70,1.48,112,1.05,70,1.76,Yes,sure,hit,1.7876269817352295,NA
253,1sy20#t,False,238,1,unequal,ST1_high_4_a2,P != T2?,Same,1,2,high,96,1.06,70,1.77,96,1.32,Yes,sure,hit,1.0031983852386475,NA
254,1sy20#t,False,239,1,unequal,ST2_low_2_a1,P != T1?,Same,2,1,low,132,0.83,82,1.52,82,1.31,Yes,quiteSure,hit,3.59037184715271,NA
255,1sy20#t,False,240,1,unequal,ST2_low_4_a2,P != T1?,Same,2,2,low,112,1.21,70,1.57,70,1.84,Yes,quiteSure,hit,2.5517759323120117,NA
256,1sy20#t,False,241,1,unequal,ST1_low_3_a2,P != T1?,Same,1,2,low,70,1.39,112,1.07,70,1.39,No,quiteSure,cr,2.0609660148620605,NA
257,1sy20#t,False,242,1,unequal,ST2_high_1_a1,P != T1?,Same,2,1,high,82,1.54,112,0.97,112,1.04,Yes,quiteSure,hit,2.9822471141815186,NA
258,1sy20#t,False,243,1,unequal,ST1_high_2_a1,P != T2?,Same,1,1,high,112,0.92,82,1.21,112,1.13,No,sure,miss,2.2637548446655273,NA
259,1sy20#t,False,244,1,unequal,ST2_high_3_a1,P != T1?,Same,2,1,high,70,1.59,96,1.31,96,1.31,Yes,sure,hit,2.965203046798706,NA
260,1sy20#t,False,245,1,unequal,ST1_low_4_a2,P != T2?,Same,1,2,low,112,1.09,70,1.4,112,1.2,Yes,sure,hit,2.1242451667785645,NA
261,1sy20#t,False,246,1,unequal,ST2_low_4_a1,P != T1?,Same,2,1,low,112,1.22,70,1.43,70,1.52,Yes,sure,hit,1.5851080417633057,NA
262,1sy20#t,False,247,1,unequal,ST1_low_1_a1,P != T2?,Same,1,1,low,82,1.61,132,0.93,82,1.63,Yes,sure,hit,4.424835920333862,NA
263,1sy20#t,False,248,1,unequal,ST1_high_5_a2,P != T2?,Same,1,2,high,96,1.4,132,0.93,96,1.33,Yes,sure,hit,0.9556982517242432,NA
264,1sy20#t,False,249,1,unequal,ST2_low_2_a1,P != T1?,Same,2,1,low,132,0.83,82,1.41,82,1.61,Yes,unsure,hit,3.046674966812134,NA
265,1sy20#t,False,250,1,unequal,ST2_high_1_a1,P != T2?,Same,2,1,high,82,1.27,112,0.99,112,1.17,No,sure,cr,2.3750159740448,NA
266,1sy20#t,False,251,1,unequal,ST2_low_6_a1,P != T2?,Same,2,1,low,154,0.81,96,1.21,96,1.39,No,sure,cr,1.8364431858062744,NA
267,1sy20#t,False,252,1,unequal,ST2_high_3_a1,P != T1?,Same,2,1,high,70,1.55,96,1.22,96,1.09,Yes,quiteSure,hit,0.9158661365509033,NA
268,1sy20#t,False,253,1,unequal,ST1_high_3_a1,P != T2?,Same,1,1,high,70,1.73,96,1.12,70,1.43,No,sure,miss,2.108170986175537,NA
269,1sy20#t,False,254,1,unequal,ST1_high_2_a1,P != T1?,Same,1,1,high,112,1.09,82,1.47,112,1.04,No,sure,cr,1.8132479190826416,NA
270,1sy20#t,False,255,1,unequal,ST2_high_5_a2,P != T1?,Same,2,2,high,96,1.19,132,0.82,132,0.81,No,sure,miss,2.6858482360839844,NA
271,1sy20#t,False,256,1,unequal,ST1_low_5_a2,P != T2?,Same,1,2,low,96,1.31,154,0.74,96,1.43,No,sure,miss,1.3599040508270264,NA
272,1sy20#t,False,257,1,unequal,ST1_high_6_a2,P != T1?,Same,1,2,high,132,0.88,96,1.16,132,0.96,No,sure,cr,1.2952160835266113,NA
273,1sy20#t,False,258,1,unequal,ST1_high_2_a2,P != T1?,Same,1,2,high,112,1.03,82,1.57,112,1.21,No,sure,cr,2.0365288257598877,NA
274,1sy20#t,False,259,1,unequal,ST2_high_6_a1,P != T2?,Same,2,1,high,132,0.88,96,1.24,96,1.25,No,sure,cr,1.83847975730896,NA
275,1sy20#t,False,260,1,unequal,ST2_low_5_a2,P != T1?,Same,2,2,low,96,1.23,154,0.82,154,0.8,Yes,sure,hit,1.538379192352295,NA
276,1sy20#t,False,261,1,unequal,ST2_high_1_a2,P != T1?,Same,2,2,high,82,1.26,112,1.14,112,0.95,Yes,sure,hit,1.5401709079742432,NA
277,1sy20#t,False,262,1,unequal,ST2_low_4_a2,P != T2?,Same,2,2,low,112,1.07,70,1.61,70,1.67,No,quiteSure,cr,3.140078067779541,NA
278,1sy20#t,False,263,1,unequal,ST2_high_5_a1,P != T2?,Same,2,1,high,96,1.21,132,0.87,132,0.87,No,sure,cr,2.32892107963562,NA
279,1sy20#t,False,264,1,unequal,ST1_high_4_a2,P != T1?,Same,1,2,high,96,1.41,70,1.83,96,1.32,No,quiteSure,cr,3.3209242820739746,NA
280,1sy20#t,False,265,1,unequal,STb_2_a2,P != T1?,Same,0,2,None,70,1.66,70,1.97,70,1.73,No,sure,cr,1.4067237377166748,NA
281,1sy20#t,False,266,1,unequal,ST2_low_1_a2,P != T1?,Same,2,2,low,82,1.46,132,1.06,132,0.86,Yes,quiteSure,hit,1.9695658683776855,NA
282,1sy20#t,False,267,1,unequal,ST2_high_4_a1,P != T2?,Same,2,1,high,96,1.42,70,1.53,70,1.8,No,unsure,cr,5.02609395980835,NA
283,1sy20#t,False,268,1,unequal,ST2_low_4_a1,P != T2?,Same,2,1,low,112,1.09,70,1.74,70,1.81,No,sure,cr,2.648888111114502,NA
284,1sy20#t,False,269,1,unequal,ST2_low_1_a1,P != T1?,Same,2,1,low,82,1.35,132,0.81,132,0.96,Yes,quiteSure,hit,3.8331429958343506,NA
285,1sy20#t,False,270,1,unequal,STb_1_a2,P != T1?,Same,0,2,None,60,1.58,60,1.9,60,1.81,No,sure,cr,4.691361904144287,NA
286,1sy20#t,False,271,1,unequal,ST1_low_5_a2,P != T1?,Same,1,2,low,96,1.1,154,0.74,96,1.36,No,quiteSure,cr,4.84656023979187,NA
287,1sy20#t,False,272,1,unequal,ST1_high_5_a1,P != T2?,Same,1,1,high,96,1.33,132,0.96,96,1.41,Yes,sure,hit,5.252741098403931,NA
288,1sy20#t,False,273,1,unequal,ST1_low_5_a1,P != T1?,Same,1,1,low,96,1.24,154,0.77,96,1.34,No,sure,cr,1.7010447978973389,NA
289,1sy20#t,False,274,1,unequal,ST1_low_3_a1,P != T1?,Same,1,1,low,70,1.49,112,1.03,70,1.71,No,sure,cr,1.8990769386291504,NA
290,1sy20#t,False,275,1,unequal,ST1_high_2_a2,P != T2?,Same,1,2,high,112,1.18,82,1.32,112,1.03,Yes,sure,hit,2.2854068279266357,NA
291,1sy20#t,False,276,1,unequal,ST1_high_4_a2,P != T1?,Same,1,2,high,96,1.36,70,1.38,96,1.39,No,quiteSure,cr,2.576331853866577,NA
292,1sy20#t,False,277,1,unequal,STb_1_a1,P != T2?,Same,0,1,None,60,1.7,60,1.64,60,1.98,No,sure,cr,1.2023370265960693,NA
293,1sy20#t,False,278,1,unequal,ST2_high_6_a2,P != T2?,Same,2,2,high,132,0.8,96,1.31,96,1.41,No,sure,cr,2.464107036590576,NA
294,1sy20#t,False,279,1,unequal,ST1_high_3_a1,P != T1?,Same,1,1,high,70,1.76,96,1.11,70,1.59,No,quiteSure,cr,2.0367019176483154,NA
295,1sy20#t,False,280,1,unequal,ST2_low_1_a1,P != T2?,Same,2,1,low,82,1.62,132,0.98,132,1.04,No,sure,cr,1.7876648902893066,NA
296,1sy20#t,False,281,1,unequal,ST2_high_5_a1,P != T1?,Same,2,1,high,96,1.09,132,0.99,132,0.96,Yes,sure,hit,1.5441668033599854,NA
297,1sy20#t,False,282,1,unequal,ST1_low_6_a1,P != T2?,Same,1,1,low,154,0.85,96,1.14,154,0.74,Yes,sure,hit,2.1555230617523193,NA
298,1sy20#t,False,283,1,unequal,ST2_high_4_a2,P != T1?,Same,2,2,high,96,1.14,70,1.81,70,1.42,Yes,sure,hit,1.2731549739837646,NA
299,1sy20#t,False,284,1,unequal,ST2_low_3_a1,P != T2?,Same,2,1,low,70,1.76,112,1.22,112,0.93,No,quiteSure,cr,2.19313907623291,NA
300,1sy20#t,False,285,1,unequal,ST2_high_5_a1,P != T1?,Same,2,1,high,96,1.23,132,0.93,132,1.02,Yes,sure,hit,1.7024240493774414,NA
301,1sy20#t,False,286,1,unequal,ST1_low_6_a2,P != T2?,Same,1,2,low,154,0.81,96,1.33,154,0.83,Yes,sure,hit,1.1835510730743408,NA
302,1sy20#t,False,287,1,unequal,ST1_high_1_a2,P != T2?,Same,1,2,high,82,1.28,112,1.18,82,1.39,Yes,sure,hit,1.20131516456604,NA
303,1sy20#t,False,288,1,unequal,ST2_low_1_a1,P != T1?,Same,2,1,low,82,1.52,132,0.96,132,0.82,Yes,sure,hit,1.0911259651184082,NA
304,1sy20#t,False,289,1,unequal,ST2_low_5_a2,P != T1?,Same,2,2,low,96,1.24,154,0.93,154,0.82,Yes,sure,hit,0.9354898929595947,NA
305,1sy20#t,False,290,1,unequal,ST1_low_6_a1,P != T2?,Same,1,1,low,154,0.78,96,1.15,154,0.95,Yes,sure,hit,1.2288930416107178,NA
306,1sy20#t,False,291,1,unequal,ST1_high_6_a2,P != T2?,Same,1,2,high,132,0.89,96,1.42,132,0.86,Yes,sure,hit,1.2519276142120361,NA
307,1sy20#t,False,292,1,unequal,ST2_high_6_a2,P != T2?,Same,2,2,high,132,1.04,96,1.3,96,1.14,Yes,sure,fa,1.272688865661621,NA
308,1sy20#t,False,293,1,unequal,ST1_high_1_a2,P != T1?,Same,1,2,high,82,1.47,112,1.14,82,1.49,Yes,sure,fa,1.1809048652648926,NA
309,1sy20#t,False,294,1,unequal,ST2_low_3_a1,P != T2?,Same,2,1,low,70,1.55,112,0.99,112,0.93,No,sure,cr,1.538316011428833,NA
310,1sy20#t,False,295,1,unequal,ST2_low_1_a1,P != T1?,Same,2,1,low,82,1.33,132,1.02,132,0.9,No,quiteSure,miss,2.327662944793701,NA
311,1sy20#t,False,296,1,unequal,ST1_low_6_a2,P != T1?,Same,1,2,low,154,0.73,96,1.41,154,0.82,No,sure,cr,2.443207025527954,NA
312,1sy20#t,False,297,1,unequal,ST1_low_2_a1,P != T1?,Same,1,1,low,132,1.0,82,1.3,132,0.83,No,sure,cr,1.901432991027832,NA
313,1sy20#t,False,298,1,unequal,ST1_high_6_a2,P != T1?,Same,1,2,high,132,0.96,96,1.43,132,0.91,No,sure,cr,3.2511396408081055,NA
314,1sy20#t,False,299,1,unequal,ST1_low_2_a2,P != T2?,Same,1,2,low,132,0.94,82,1.54,132,1.05,Yes,sure,hit,2.687609910964966,NA
315,1sy20#t,False,300,1,unequal,ST1_high_6_a1,P != T1?,Same,1,1,high,132,0.85,96,1.07,132,0.9,No,quiteSure,cr,3.922882080078125,NA
316,1sy20#t,False,301,1,unequal,ST2_high_2_a2,P != T1?,Same,2,2,high,112,0.95,82,1.38,82,1.57,Yes,sure,hit,1.7650389671325684,NA
317,1sy20#t,False,302,1,unequal,ST2_low_4_a2,P != T1?,Same,2,2,low,112,1.2,70,1.47,70,1.63,Yes,sure,hit,2.5958902835845947,NA
318,1sy20#t,False,303,1,unequal,ST1_low_5_a1,P != T2?,Same,1,1,low,96,1.14,154,0.8,96,1.38,Yes,sure,hit,1.065873146057129,NA
319,1sy20#t,False,304,1,unequal,ST2_low_2_a2,P != T1?,Same,2,2,low,132,0.91,82,1.33,82,1.24,Yes,sure,hit,1.5218429565429688,NA
320,1sy20#t,False,305,1,unequal,ST2_low_4_a2,P != T1?,Same,2,2,low,112,1.01,70,1.8,70,1.73,Yes,sure,hit,2.3560357093811035,NA
321,1sy20#t,False,306,1,unequal,ST2_high_1_a1,P != T2?,Same,2,1,high,82,1.34,112,1.0,112,1.07,No,sure,cr,11.913738012313843,NA
322,1sy20#t,False,307,1,unequal,ST1_low_1_a2,P != T2?,Same,1,2,low,82,1.49,132,0.92,82,1.49,Yes,sure,hit,5.681581974029541,NA
323,1sy20#t,False,308,1,unequal,ST2_high_4_a1,P != T1?,Same,2,1,high,96,1.21,70,1.79,70,1.58,No,unsure,miss,5.41124701499939,NA
324,1sy20#t,False,309,1,unequal,ST2_low_3_a1,P != T1?,Same,2,1,low,70,1.79,112,1.09,112,1.14,Yes,sure,hit,1.2251529693603516,NA
325,1sy20#t,False,310,1,unequal,ST2_low_4_a2,P != T2?,Same,2,2,low,112,1.14,70,1.66,70,1.6,Yes,unsure,fa,2.172909736633301,NA
326,1sy20#t,False,311,1,unequal,ST2_high_2_a2,P != T2?,Same,2,2,high,112,0.98,82,1.51,82,1.6,No,sure,cr,3.205350875854492,NA
327,1sy20#t,False,312,1,unequal,ST2_high_1_a2,P != T1?,Same,2,2,high,82,1.53,112,0.94,112,0.92,Yes,sure,hit,2.8928630352020264,NA
328,1sy20#t,False,313,1,unequal,ST1_low_4_a1,P != T1?,Same,1,1,low,112,1.07,70,1.42,112,1.23,No,quiteSure,cr,4.287142992019653,NA
329,1sy20#t,False,314,1,unequal,ST2_high_6_a2,P != T1?,Same,2,2,high,132,0.93,96,1.11,96,1.13,Yes,sure,hit,1.2689111232757568,NA
330,1sy20#t,False,315,1,unequal,ST1_high_3_a1,P != T1?,Same,1,1,high,70,1.8,96,1.23,70,1.78,Yes,quiteSure,fa,2.5349631309509277,NA
331,1sy20#t,False,316,1,unequal,ST1_high_3_a1,P != T2?,Same,1,1,high,70,1.44,96,1.35,70,1.84,Yes,sure,hit,1.1795761585235596,NA
332,1sy20#t,False,317,1,unequal,ST1_high_6_a1,P != T2?,Same,1,1,high,132,0.9,96,1.12,132,0.8,Yes,sure,hit,2.7526941299438477,NA
333,1sy20#t,False,318,1,unequal,ST1_low_5_a2,P != T1?,Same,1,2,low,96,1.26,154,0.91,96,1.35,No,quiteSure,cr,5.041157007217407,NA
334,1sy20#t,False,319,1,unequal,DT1_low_1_a2,P != T2?,Different,1,2,low,82,1.28,132,0.88,70,1.51,Yes,sure,hit,1.1574249267578125,NA
335,1sy20#t,False,320,1,unequal,DT2_high_4_a1,P != T1?,Different,2,1,high,96,1.26,70,1.5,60,1.74,Yes,unsure,hit,3.1399269104003906,0.75
