,pcode,practice,trial,block,questionType,condition,question,PTS,TargetPosition,AccessoryPosition,TNS,T1_hz,T1_amp,T2_hz,T2_amp,P_hz,P_amp,response_dicho,response_rating,response_sdt,rt,P_correct
0,vus64!8,True,1,2,equal,STb_8_a2,P = T2?,Same,0,2,None,180,0.82,180,0.93,180,0.82,Yes,quiteSure,hit,1.8635671138763428,NA
1,vus64!8,True,2,2,equal,ST1_low_2_a2,P = T1?,Same,1,2,low,132,0.93,82,1.18,132,0.9,Yes,quiteSure,hit,2.1630990505218506,NA
2,vus64!8,True,3,2,equal,ST1_low_2_a1,P = T2?,Same,1,1,low,132,0.96,82,1.64,132,0.94,No,quiteSure,cr,1.7344026565551758,NA
3,vus64!8,True,4,2,equal,ST2_low_6_a1,P = T1?,Same,2,1,low,154,0.83,96,1.17,96,1.41,No,quiteSure,cr,1.8667898178100586,NA
4,vus64!8,True,5,2,equal,STb_1_a2,P = T2?,Same,0,2,None,60,1.91,60,1.63,60,1.75,Yes,quiteSure,hit,1.4645543098449707,NA
5,vus64!8,True,6,2,equal,DT2_low_1_a2,P = T2?,Different,2,2,low,82,1.62,132,1.03,154,0.92,Yes,quiteSure,hit,1.5348231792449951,NA
6,vus64!8,True,7,2,equal,STb_1_a1,P = T1?,Same,0,1,None,60,1.68,60,1.71,60,1.58,Yes,quiteSure,hit,1.1696889400482178,NA
7,vus64!8,True,8,2,equal,DT2_high_6_a1,P = T1?,Different,2,1,high,132,0.97,96,1.25,82,1.28,No,quiteSure,cr,1.4188868999481201,NA
8,vus64!8,True,9,2,equal,ST1_high_3_a2,P = T1?,Same,1,2,high,70,1.79,96,0.99,70,1.94,No,sure,miss,2.0052640438079834,NA
9,vus64!8,True,10,2,equal,ST1_low_1_a2,P = T2?,Same,1,2,low,82,1.39,132,1.1,82,1.44,No,sure,cr,1.5980420112609863,NA
10,vus64!8,True,11,2,equal,STb_5_a1,P = T1?,Same,0,1,None,112,0.96,112,1.07,112,1.11,Yes,sure,hit,1.6460988521575928,NA
11,vus64!8,True,12,2,equal,ST2_high_3_a2,P = T2?,Same,2,2,high,70,1.61,96,1.27,96,1.34,Yes,quiteSure,hit,1.4900181293487549,NA
12,vus64!8,True,13,2,equal,DT2_high_2_a2,P = T2?,Different,2,2,high,112,1.1,82,1.55,70,1.84,No,sure,miss,1.7373969554901123,NA
13,vus64!8,True,14,2,equal,DT1_high_5_a1,P = T1?,Different,1,1,high,96,1.24,132,0.8,82,1.57,Yes,sure,hit,1.1270170211791992,NA
14,vus64!8,True,15,2,equal,ST2_low_4_a2,P = T1?,Same,2,2,low,112,1.0,70,1.52,70,1.34,No,unsure,cr,1.6440441608428955,NA
15,vus64!8,True,16,2,equal,ST2_high_5_a1,P = T2?,Same,2,1,high,96,1.06,132,1.01,132,0.82,Yes,quiteSure,hit,1.126729965209961,0.75
16,vus64!8,False,1,2,equal,ST2_high_1_a1,P = T2?,Same,2,1,high,82,1.47,112,1.14,112,1.03,Yes,unsure,hit,1.076211929321289,NA
17,vus64!8,False,2,2,equal,ST1_low_2_a2,P = T1?,Same,1,2,low,132,0.93,82,1.18,132,0.9,Yes,quiteSure,hit,1.2837419509887695,NA
18,vus64!8,False,3,2,equal,ST1_low_5_a2,P = T1?,Same,1,2,low,96,1.39,154,0.93,96,1.09,No,quiteSure,miss,0.5603897571563721,NA
19,vus64!8,False,4,2,equal,ST2_low_2_a1,P = T2?,Same,2,1,low,132,0.81,82,1.49,82,1.55,Yes,quiteSure,hit,1.4098622798919678,NA
20,vus64!8,False,5,2,equal,ST2_high_1_a2,P = T2?,Same,2,2,high,82,1.46,112,0.97,112,1.05,Yes,quiteSure,hit,1.3515310287475586,NA
21,vus64!8,False,6,2,equal,ST1_high_3_a2,P = T1?,Same,1,2,high,70,1.79,96,0.99,70,1.94,Yes,quiteSure,hit,2.18526291847229,NA
22,vus64!8,False,7,2,equal,ST1_high_5_a1,P = T2?,Same,1,1,high,96,1.27,132,0.94,96,1.4,Yes,quiteSure,fa,1.3498859405517578,NA
23,vus64!8,False,8,2,equal,ST2_low_1_a1,P = T1?,Same,2,1,low,82,1.27,132,0.81,132,0.85,No,sure,cr,1.640984058380127,NA
24,vus64!8,False,9,2,equal,DT1_low_4_a1,P = T1?,Different,1,1,low,112,1.05,70,1.4,132,1.02,No,sure,miss,1.775453805923462,NA
25,vus64!8,False,10,2,equal,ST2_high_2_a1,P = T1?,Same,2,1,high,112,0.97,82,1.42,82,1.44,No,unsure,cr,2.0033769607543945,NA
26,vus64!8,False,11,2,equal,ST2_low_1_a1,P = T2?,Same,2,1,low,82,1.31,132,0.91,132,0.96,Yes,quiteSure,hit,1.146209955215454,NA
27,vus64!8,False,12,2,equal,ST1_low_6_a2,P = T1?,Same,1,2,low,154,0.82,96,1.38,154,0.89,Yes,quiteSure,hit,0.5195820331573486,NA
28,vus64!8,False,13,2,equal,ST1_high_6_a2,P = T2?,Same,1,2,high,132,1.03,96,1.09,132,0.88,Yes,quiteSure,fa,0.5865790843963623,NA
29,vus64!8,False,14,2,equal,ST2_low_5_a1,P = T2?,Same,2,1,low,96,1.16,154,0.79,154,0.92,Yes,quiteSure,hit,0.9912919998168945,NA
30,vus64!8,False,15,2,equal,ST1_low_6_a2,P = T1?,Same,1,2,low,154,0.83,96,1.13,154,0.9,Yes,quiteSure,hit,1.1069960594177246,NA
31,vus64!8,False,16,2,equal,ST1_low_4_a1,P = T1?,Same,1,1,low,112,1.0,70,1.39,112,0.93,Yes,quiteSure,hit,2.8931431770324707,NA
32,vus64!8,False,17,2,equal,ST2_high_5_a1,P = T1?,Same,2,1,high,96,1.42,132,0.88,132,0.93,Yes,quiteSure,fa,1.3253066539764404,NA
33,vus64!8,False,18,2,equal,ST1_high_6_a2,P = T1?,Same,1,2,high,132,0.9,96,1.17,132,1.04,Yes,quiteSure,hit,0.9890279769897461,NA
34,vus64!8,False,19,2,equal,ST1_low_1_a1,P = T2?,Same,1,1,low,82,1.46,132,0.8,82,1.28,No,unsure,cr,1.3265390396118164,NA
35,vus64!8,False,20,2,equal,STb_2_a1,P = T1?,Same,0,1,None,70,1.61,70,1.61,70,1.75,Yes,quiteSure,hit,1.2825062274932861,NA
36,vus64!8,False,21,2,equal,ST2_high_2_a2,P = T2?,Same,2,2,high,112,1.15,82,1.36,82,1.23,Yes,sure,hit,3.964833974838257,NA
37,vus64!8,False,22,2,equal,ST1_high_5_a2,P = T2?,Same,1,2,high,96,1.41,132,0.99,96,1.27,Yes,quiteSure,fa,1.161562204360962,NA
38,vus64!8,False,23,2,equal,ST2_low_1_a2,P = T2?,Same,2,2,low,82,1.42,132,1.05,132,1.0,Yes,quiteSure,hit,0.9465398788452148,NA
39,vus64!8,False,24,2,equal,ST2_low_5_a2,P = T1?,Same,2,2,low,96,1.1,154,0.81,154,0.77,No,quiteSure,cr,1.3493270874023438,NA
40,vus64!8,False,25,2,equal,ST1_high_4_a2,P = T1?,Same,1,2,high,96,1.4,70,1.77,96,1.15,Yes,quiteSure,hit,1.0799200534820557,NA
41,vus64!8,False,26,2,equal,ST1_high_2_a1,P = T1?,Same,1,1,high,112,1.16,82,1.23,112,0.94,No,quiteSure,miss,3.285284996032715,NA
42,vus64!8,False,27,2,equal,ST2_low_5_a2,P = T1?,Same,2,2,low,96,1.26,154,0.76,154,0.87,No,sure,cr,1.259509801864624,NA
43,vus64!8,False,28,2,equal,STb_7_a2,P = T1?,Same,0,2,None,154,0.77,154,0.71,154,0.87,Yes,quiteSure,hit,0.3137519359588623,NA
44,vus64!8,False,29,2,equal,ST1_high_1_a1,P = T2?,Same,1,1,high,82,1.55,112,1.12,82,1.41,No,quiteSure,cr,1.2588231563568115,NA
45,vus64!8,False,30,2,equal,DT2_low_1_a1,P = T1?,Different,2,1,low,82,1.44,132,1.03,154,0.94,No,quiteSure,cr,1.5079097747802734,NA
46,vus64!8,False,31,2,equal,ST2_low_1_a1,P = T1?,Same,2,1,low,82,1.46,132,0.95,132,0.96,No,quiteSure,cr,1.4622948169708252,NA
47,vus64!8,False,32,2,equal,ST2_high_5_a1,P = T1?,Same,2,1,high,96,1.17,132,0.82,132,1.03,Yes,quiteSure,fa,0.4488227367401123,NA
48,vus64!8,False,33,2,equal,ST1_high_1_a2,P = T1?,Same,1,2,high,82,1.39,112,0.95,82,1.57,Yes,quiteSure,hit,2.8580868244171143,NA
49,vus64!8,False,34,2,equal,STb_7_a1,P = T1?,Same,0,1,None,154,0.73,154,0.92,154,0.73,No,sure,miss,1.4360661506652832,NA
50,vus64!8,False,35,2,equal,ST1_high_3_a1,P = T1?,Same,1,1,high,70,1.41,96,1.13,70,1.56,Yes,sure,hit,1.5495491027832031,NA
51,vus64!8,False,36,2,equal,ST1_high_5_a1,P = T1?,Same,1,1,high,96,1.4,132,1.04,96,1.25,Yes,quiteSure,hit,0.4785170555114746,NA
52,vus64!8,False,37,2,equal,ST2_low_3_a2,P = T1?,Same,2,2,low,70,1.69,112,1.12,112,1.21,No,sure,cr,1.3254249095916748,NA
53,vus64!8,False,38,2,equal,ST2_low_3_a2,P = T2?,Same,2,2,low,70,1.6,112,1.22,112,1.23,Yes,quiteSure,hit,0.4543619155883789,NA
54,vus64!8,False,39,2,equal,ST2_low_4_a2,P = T1?,Same,2,2,low,112,1.0,70,1.52,70,1.34,No,quiteSure,cr,1.4276442527770996,NA
55,vus64!8,False,40,2,equal,ST2_low_2_a2,P = T2?,Same,2,2,low,132,0.98,82,1.38,82,1.29,Yes,quiteSure,hit,1.3502178192138672,NA
56,vus64!8,False,41,2,equal,DT1_low_2_a2,P = T1?,Different,1,2,low,132,0.95,82,1.27,154,0.89,Yes,sure,hit,1.6882190704345703,NA
57,vus64!8,False,42,2,equal,STb_4_a2,P = T1?,Same,0,2,None,96,1.13,96,1.2,96,1.24,Yes,quiteSure,hit,0.4506847858428955,NA
58,vus64!8,False,43,2,equal,ST1_high_5_a2,P = T1?,Same,1,2,high,96,1.2,132,0.94,96,1.13,Yes,unsure,hit,1.2351469993591309,NA
59,vus64!8,False,44,2,equal,ST1_low_6_a2,P = T2?,Same,1,2,low,154,0.85,96,1.25,154,0.88,No,sure,cr,1.9603080749511719,NA
60,vus64!8,False,45,2,equal,ST1_high_5_a1,P = T1?,Same,1,1,high,96,1.17,132,0.91,96,1.1,Yes,quiteSure,hit,1.1745967864990234,NA
61,vus64!8,False,46,2,equal,ST1_low_2_a1,P = T2?,Same,1,1,low,132,0.96,82,1.43,132,1.04,No,unsure,cr,1.284363031387329,NA
62,vus64!8,False,47,2,equal,ST1_high_5_a1,P = T1?,Same,1,1,high,96,1.43,132,1.0,96,1.18,Yes,quiteSure,hit,0.4811561107635498,NA
63,vus64!8,False,48,2,equal,ST1_high_6_a2,P = T1?,Same,1,2,high,132,0.89,96,1.24,132,0.84,Yes,quiteSure,hit,0.541499137878418,NA
64,vus64!8,False,49,2,equal,ST1_low_3_a1,P = T2?,Same,1,1,low,70,1.74,112,1.1,70,1.64,No,unsure,cr,1.3511569499969482,NA
65,vus64!8,False,50,2,equal,ST2_low_2_a1,P = T2?,Same,2,1,low,132,0.81,82,1.48,82,1.36,Yes,quiteSure,hit,1.4640090465545654,NA
66,vus64!8,False,51,2,equal,ST2_high_2_a2,P = T1?,Same,2,2,high,112,1.07,82,1.25,82,1.28,Yes,quiteSure,fa,0.3393409252166748,NA
67,vus64!8,False,52,2,equal,STb_3_a2,P = T2?,Same,0,2,None,82,1.39,82,1.51,82,1.3,No,sure,miss,1.564687728881836,NA
68,vus64!8,False,53,2,equal,ST1_low_5_a2,P = T1?,Same,1,2,low,96,1.1,154,0.72,96,1.08,Yes,sure,hit,1.822857141494751,NA
69,vus64!8,False,54,2,equal,STb_8_a1,P = T2?,Same,0,1,None,180,0.82,180,0.76,180,0.91,Yes,quiteSure,hit,0.41555285453796387,NA
70,vus64!8,False,55,2,equal,DT2_low_4_a2,P = T2?,Different,2,2,low,112,1.05,70,1.72,60,1.65,Yes,quiteSure,hit,1.2608211040496826,NA
71,vus64!8,False,56,2,equal,ST1_high_1_a2,P = T2?,Same,1,2,high,82,1.27,112,1.07,82,1.32,No,sure,cr,1.7100160121917725,NA
72,vus64!8,False,57,2,equal,ST2_low_3_a1,P = T1?,Same,2,1,low,70,1.79,112,1.22,112,0.98,No,sure,cr,2.6304070949554443,NA
73,vus64!8,False,58,2,equal,ST2_high_3_a2,P = T1?,Same,2,2,high,70,1.61,96,1.14,96,1.42,Yes,sure,fa,1.888991117477417,NA
74,vus64!8,False,59,2,equal,ST1_low_5_a2,P = T2?,Same,1,2,low,96,1.12,154,0.91,96,1.12,No,quiteSure,cr,1.3743398189544678,NA
75,vus64!8,False,60,2,equal,ST2_high_3_a2,P = T1?,Same,2,2,high,70,1.73,96,1.38,96,1.21,Yes,quiteSure,fa,1.2939949035644531,NA
76,vus64!8,False,61,2,equal,ST1_high_6_a2,P = T2?,Same,1,2,high,132,1.06,96,1.07,132,0.95,Yes,unsure,fa,0.40544700622558594,NA
77,vus64!8,False,62,2,equal,ST1_low_1_a1,P = T1?,Same,1,1,low,82,1.28,132,1.01,82,1.49,No,sure,miss,1.3052940368652344,NA
78,vus64!8,False,63,2,equal,ST2_high_6_a1,P = T2?,Same,2,1,high,132,0.99,96,1.12,96,1.39,Yes,quiteSure,hit,1.1231310367584229,NA
79,vus64!8,False,64,2,equal,ST2_low_3_a1,P = T2?,Same,2,1,low,70,1.72,112,1.08,112,1.13,Yes,quiteSure,hit,1.4615211486816406,NA
80,vus64!8,False,65,2,equal,ST2_high_6_a1,P = T1?,Same,2,1,high,132,0.86,96,1.07,96,1.4,No,sure,cr,1.1729159355163574,NA
81,vus64!8,False,66,2,equal,ST2_high_4_a1,P = T2?,Same,2,1,high,96,1.36,70,1.5,70,1.45,Yes,unsure,hit,0.9912559986114502,NA
82,vus64!8,False,67,2,equal,STb_5_a1,P = T2?,Same,0,1,None,112,1.1,112,1.07,112,1.22,Yes,quiteSure,hit,3.602532148361206,NA
83,vus64!8,False,68,2,equal,ST2_high_1_a1,P = T2?,Same,2,1,high,82,1.4,112,1.2,112,1.08,Yes,sure,hit,1.9542410373687744,NA
84,vus64!8,False,69,2,equal,ST1_low_2_a2,P = T2?,Same,1,2,low,132,0.87,82,1.55,132,0.87,No,quiteSure,cr,2.1167120933532715,NA
85,vus64!8,False,70,2,equal,ST1_low_4_a1,P = T2?,Same,1,1,low,112,0.97,70,1.74,112,1.15,No,sure,cr,2.1190788745880127,NA
86,vus64!8,False,71,2,equal,ST2_low_2_a1,P = T1?,Same,2,1,low,132,0.98,82,1.61,82,1.38,No,sure,cr,2.2038071155548096,NA
87,vus64!8,False,72,2,equal,ST1_high_1_a1,P = T2?,Same,1,1,high,82,1.57,112,1.15,82,1.53,Yes,quiteSure,fa,3.165872812271118,NA
88,vus64!8,False,73,2,equal,ST1_high_4_a1,P = T2?,Same,1,1,high,96,1.21,70,1.82,96,1.27,Yes,quiteSure,fa,2.8361008167266846,NA
89,vus64!8,False,74,2,equal,ST2_high_2_a2,P = T2?,Same,2,2,high,112,0.94,82,1.22,82,1.27,Yes,quiteSure,hit,1.6200580596923828,NA
90,vus64!8,False,75,2,equal,ST2_low_3_a1,P = T1?,Same,2,1,low,70,1.51,112,0.93,112,0.95,No,unsure,cr,1.6431729793548584,NA
91,vus64!8,False,76,2,equal,ST2_low_4_a2,P = T2?,Same,2,2,low,112,0.96,70,1.5,70,1.65,Yes,sure,hit,1.754892110824585,NA
92,vus64!8,False,77,2,equal,ST1_low_1_a2,P = T1?,Same,1,2,low,82,1.24,132,0.96,82,1.3,Yes,quiteSure,hit,1.6163227558135986,NA
93,vus64!8,False,78,2,equal,ST2_low_3_a1,P = T2?,Same,2,1,low,70,1.64,112,0.93,112,1.09,Yes,quiteSure,hit,3.3280210494995117,NA
94,vus64!8,False,79,2,equal,ST2_low_2_a2,P = T2?,Same,2,2,low,132,0.92,82,1.43,82,1.26,Yes,quiteSure,hit,1.1238839626312256,NA
95,vus64!8,False,80,2,equal,ST2_low_6_a1,P = T1?,Same,2,1,low,154,0.83,96,1.12,96,1.19,No,sure,cr,1.508302927017212,NA
96,vus64!8,False,81,2,equal,ST1_high_4_a2,P = T2?,Same,1,2,high,96,1.28,70,1.81,96,1.38,Yes,quiteSure,fa,0.5637290477752686,NA
97,vus64!8,False,82,2,equal,ST2_high_1_a2,P = T1?,Same,2,2,high,82,1.48,112,1.04,112,1.0,No,unsure,cr,2.049386978149414,NA
98,vus64!8,False,83,2,equal,ST2_low_6_a1,P = T1?,Same,2,1,low,154,0.83,96,1.17,96,1.41,No,quiteSure,cr,1.4851090908050537,NA
99,vus64!8,False,84,2,equal,ST2_low_3_a1,P = T2?,Same,2,1,low,70,1.67,112,1.04,112,0.95,Yes,quiteSure,hit,1.0328421592712402,NA
100,vus64!8,False,85,2,equal,ST1_high_3_a1,P = T2?,Same,1,1,high,70,1.48,96,1.15,70,1.62,Yes,quiteSure,fa,0.47520995140075684,NA
101,vus64!8,False,86,2,equal,ST1_high_6_a1,P = T2?,Same,1,1,high,132,0.94,96,1.41,132,1.03,Yes,quiteSure,fa,0.36213231086730957,NA
102,vus64!8,False,87,2,equal,DT2_high_4_a2,P = T2?,Different,2,2,high,96,1.23,70,1.61,60,1.71,Yes,quiteSure,hit,1.0609188079833984,NA
103,vus64!8,False,88,2,equal,ST2_low_6_a2,P = T2?,Same,2,2,low,154,0.72,96,1.39,96,1.33,Yes,quiteSure,hit,0.8770740032196045,NA
104,vus64!8,False,89,2,equal,ST1_high_3_a1,P = T2?,Same,1,1,high,70,1.58,96,1.39,70,1.45,Yes,quiteSure,fa,1.3280458450317383,NA
105,vus64!8,False,90,2,equal,ST1_low_5_a2,P = T2?,Same,1,2,low,96,1.24,154,0.76,96,1.19,Yes,quiteSure,fa,1.083395004272461,NA
106,vus64!8,False,91,2,equal,ST1_high_2_a1,P = T2?,Same,1,1,high,112,1.18,82,1.49,112,0.95,No,unsure,cr,1.4660301208496094,NA
107,vus64!8,False,92,2,equal,ST2_low_4_a1,P = T1?,Same,2,1,low,112,1.13,70,1.73,70,1.51,No,sure,cr,1.3253509998321533,NA
108,vus64!8,False,93,2,equal,ST1_low_5_a1,P = T2?,Same,1,1,low,96,1.27,154,0.81,96,1.23,Yes,sure,fa,1.171600103378296,NA
109,vus64!8,False,94,2,equal,DT1_low_3_a2,P = T2?,Different,1,2,low,70,1.84,112,0.92,60,1.57,No,sure,cr,2.7197470664978027,NA
110,vus64!8,False,95,2,equal,ST1_high_5_a2,P = T2?,Same,1,2,high,96,1.3,132,1.06,96,1.16,Yes,quiteSure,fa,2.5906739234924316,NA
111,vus64!8,False,96,2,equal,STb_6_a1,P = T2?,Same,0,1,None,132,0.89,132,1.02,132,0.85,Yes,quiteSure,hit,2.141469955444336,NA
112,vus64!8,False,97,2,equal,ST2_high_4_a2,P = T1?,Same,2,2,high,96,1.1,70,1.44,70,1.79,Yes,quiteSure,fa,0.4286620616912842,NA
113,vus64!8,False,98,2,equal,ST1_low_3_a1,P = T2?,Same,1,1,low,70,1.44,112,1.14,70,1.68,Yes,quiteSure,fa,0.8353061676025391,NA
114,vus64!8,False,99,2,equal,ST1_low_2_a1,P = T1?,Same,1,1,low,132,1.03,82,1.4,132,0.89,Yes,quiteSure,hit,0.3340110778808594,NA
115,vus64!8,False,100,2,equal,ST2_low_6_a1,P = T2?,Same,2,1,low,154,0.89,96,1.14,96,1.23,Yes,quiteSure,hit,0.9454748630523682,NA
116,vus64!8,False,101,2,equal,ST2_high_1_a1,P = T1?,Same,2,1,high,82,1.58,112,1.06,112,1.03,Yes,quiteSure,fa,0.4260871410369873,NA
117,vus64!8,False,102,2,equal,ST1_high_3_a1,P = T2?,Same,1,1,high,70,1.47,96,1.37,70,1.67,Yes,quiteSure,fa,0.3377377986907959,NA
118,vus64!8,False,103,2,equal,ST1_low_3_a2,P = T1?,Same,1,2,low,70,1.39,112,1.15,70,1.59,Yes,quiteSure,hit,0.34234094619750977,NA
119,vus64!8,False,104,2,equal,ST1_high_3_a2,P = T2?,Same,1,2,high,70,1.59,96,1.32,70,1.69,Yes,quiteSure,fa,0.835853099822998,NA
120,vus64!8,False,105,2,equal,ST1_high_4_a1,P = T2?,Same,1,1,high,96,1.28,70,1.82,96,1.09,Yes,unsure,fa,1.5560219287872314,NA
121,vus64!8,False,106,2,equal,ST2_high_6_a2,P = T2?,Same,2,2,high,132,0.93,96,1.4,96,1.11,No,sure,miss,0.7655088901519775,NA
122,vus64!8,False,107,2,equal,ST2_high_6_a1,P = T1?,Same,2,1,high,132,0.83,96,1.16,96,1.4,Yes,quiteSure,fa,0.22644615173339844,NA
123,vus64!8,False,108,2,equal,ST2_high_3_a2,P = T2?,Same,2,2,high,70,1.62,96,1.32,96,1.41,No,quiteSure,miss,1.4863359928131104,NA
124,vus64!8,False,109,2,equal,ST1_high_6_a1,P = T1?,Same,1,1,high,132,0.96,96,1.18,132,0.84,No,quiteSure,miss,2.0510220527648926,NA
125,vus64!8,False,110,2,equal,ST2_high_3_a1,P = T1?,Same,2,1,high,70,1.69,96,1.41,96,1.25,Yes,quiteSure,fa,0.3382530212402344,NA
126,vus64!8,False,111,2,equal,ST1_high_5_a2,P = T1?,Same,1,2,high,96,1.14,132,1.04,96,1.28,No,unsure,miss,0.8155250549316406,NA
127,vus64!8,False,112,2,equal,ST1_low_6_a1,P = T1?,Same,1,1,low,154,0.71,96,1.12,154,0.82,No,quiteSure,miss,1.350754976272583,NA
128,vus64!8,False,113,2,equal,ST2_high_1_a1,P = T1?,Same,2,1,high,82,1.24,112,0.92,112,1.06,Yes,quiteSure,fa,0.29677367210388184,NA
129,vus64!8,False,114,2,equal,ST2_high_4_a2,P = T2?,Same,2,2,high,96,1.1,70,1.66,70,1.52,Yes,quiteSure,hit,1.7356641292572021,NA
130,vus64!8,False,115,2,equal,ST2_low_3_a2,P = T1?,Same,2,2,low,70,1.78,112,0.91,112,1.13,No,quiteSure,cr,1.0878877639770508,NA
131,vus64!8,False,116,2,equal,ST1_high_4_a1,P = T1?,Same,1,1,high,96,1.33,70,1.52,96,1.33,No,sure,miss,1.1958742141723633,NA
132,vus64!8,False,117,2,equal,ST1_high_2_a2,P = T1?,Same,1,2,high,112,0.94,82,1.41,112,1.04,No,quiteSure,miss,1.1930906772613525,NA
133,vus64!8,False,118,2,equal,ST2_low_5_a2,P = T2?,Same,2,2,low,96,1.26,154,0.79,154,0.78,Yes,quiteSure,hit,1.3543188571929932,NA
134,vus64!8,False,119,2,equal,STb_5_a1,P = T1?,Same,0,1,None,112,0.96,112,1.07,112,1.11,Yes,quiteSure,hit,0.9675493240356445,NA
135,vus64!8,False,120,2,equal,ST2_low_4_a2,P = T2?,Same,2,2,low,112,0.93,70,1.63,70,1.59,Yes,quiteSure,hit,1.310870885848999,NA
136,vus64!8,False,121,2,equal,ST2_high_5_a1,P = T2?,Same,2,1,high,96,1.06,132,1.01,132,0.82,Yes,quiteSure,hit,1.3545598983764648,NA
137,vus64!8,False,122,2,equal,ST1_low_2_a1,P = T1?,Same,1,1,low,132,1.02,82,1.33,132,1.03,Yes,quiteSure,hit,0.24727773666381836,NA
138,vus64!8,False,123,2,equal,ST2_low_2_a1,P = T1?,Same,2,1,low,132,0.82,82,1.59,82,1.31,Yes,quiteSure,fa,1.6541149616241455,NA
139,vus64!8,False,124,2,equal,ST1_low_5_a2,P = T1?,Same,1,2,low,96,1.42,154,0.91,96,1.38,Yes,quiteSure,hit,1.4620728492736816,NA
140,vus64!8,False,125,2,equal,ST2_low_5_a2,P = T2?,Same,2,2,low,96,1.27,154,0.75,154,0.79,Yes,quiteSure,hit,0.3617260456085205,NA
141,vus64!8,False,126,2,equal,ST2_low_4_a1,P = T1?,Same,2,1,low,112,1.24,70,1.64,70,1.45,No,sure,cr,1.1952807903289795,NA
142,vus64!8,False,127,2,equal,DT2_high_5_a1,P = T1?,Different,2,1,high,96,1.25,132,0.82,154,0.81,Yes,quiteSure,fa,0.3264632225036621,NA
143,vus64!8,False,128,2,equal,ST1_high_6_a2,P = T2?,Same,1,2,high,132,0.97,96,1.09,132,0.89,Yes,quiteSure,fa,0.36489200592041016,NA
144,vus64!8,False,129,2,equal,ST1_low_1_a2,P = T2?,Same,1,2,low,82,1.39,132,1.1,82,1.44,No,quiteSure,cr,4.072142124176025,NA
145,vus64!8,False,130,2,equal,ST1_high_1_a1,P = T1?,Same,1,1,high,82,1.57,112,1.16,82,1.47,Yes,quiteSure,hit,0.7837131023406982,NA
146,vus64!8,False,131,2,equal,ST2_high_2_a2,P = T2?,Same,2,2,high,112,1.1,82,1.35,82,1.28,Yes,quiteSure,hit,0.7429170608520508,NA
147,vus64!8,False,132,2,equal,ST2_low_5_a1,P = T1?,Same,2,1,low,96,1.08,154,0.82,154,0.75,No,quiteSure,cr,1.397146224975586,NA
148,vus64!8,False,133,2,equal,ST1_high_2_a1,P = T2?,Same,1,1,high,112,1.07,82,1.44,112,1.11,Yes,quiteSure,fa,0.9037630558013916,NA
149,vus64!8,False,134,2,equal,ST1_high_1_a2,P = T2?,Same,1,2,high,82,1.6,112,1.06,82,1.4,No,unsure,cr,1.285426139831543,NA
150,vus64!8,False,135,2,equal,ST1_low_1_a2,P = T2?,Same,1,2,low,82,1.25,132,0.95,82,1.45,Yes,quiteSure,fa,1.5278120040893555,NA
151,vus64!8,False,136,2,equal,ST2_high_5_a1,P = T2?,Same,2,1,high,96,1.09,132,0.97,132,0.86,Yes,quiteSure,hit,1.1043310165405273,NA
152,vus64!8,False,137,2,equal,ST1_high_6_a1,P = T2?,Same,1,1,high,132,0.97,96,1.16,132,1.06,Yes,quiteSure,fa,0.2710871696472168,NA
153,vus64!8,False,138,2,equal,ST1_high_1_a1,P = T1?,Same,1,1,high,82,1.26,112,1.07,82,1.33,No,unsure,miss,0.5469310283660889,NA
154,vus64!8,False,139,2,equal,ST1_low_5_a1,P = T1?,Same,1,1,low,96,1.35,154,0.82,96,1.27,Yes,quiteSure,hit,0.38516807556152344,NA
155,vus64!8,False,140,2,equal,ST2_high_4_a1,P = T1?,Same,2,1,high,96,1.34,70,1.4,70,1.4,No,sure,cr,1.2669627666473389,NA
156,vus64!8,False,141,2,equal,ST2_low_3_a1,P = T1?,Same,2,1,low,70,1.84,112,0.93,112,1.22,No,sure,cr,0.9911818504333496,NA
157,vus64!8,False,142,2,equal,DT2_high_6_a1,P = T1?,Different,2,1,high,132,0.97,96,1.25,82,1.28,No,unsure,cr,1.328047752380371,NA
158,vus64!8,False,143,2,equal,ST1_low_3_a1,P = T1?,Same,1,1,low,70,1.73,112,1.06,70,1.4,Yes,quiteSure,hit,1.461885929107666,NA
159,vus64!8,False,144,2,equal,ST2_low_2_a2,P = T2?,Same,2,2,low,132,0.96,82,1.28,82,1.4,Yes,quiteSure,hit,0.8597688674926758,NA
160,vus64!8,False,145,2,equal,ST2_low_1_a2,P = T2?,Same,2,2,low,82,1.39,132,0.95,132,1.02,Yes,quiteSure,hit,1.3747401237487793,NA
161,vus64!8,False,146,2,equal,ST2_high_5_a2,P = T2?,Same,2,2,high,96,1.16,132,1.06,132,0.87,Yes,quiteSure,hit,1.9368760585784912,NA
162,vus64!8,False,147,2,equal,ST1_low_1_a1,P = T2?,Same,1,1,low,82,1.61,132,0.84,82,1.21,Yes,quiteSure,fa,0.38805222511291504,NA
163,vus64!8,False,148,2,equal,ST2_high_5_a1,P = T2?,Same,2,1,high,96,1.35,132,0.99,132,1.0,Yes,quiteSure,hit,0.9464800357818604,NA
164,vus64!8,False,149,2,equal,ST2_low_5_a1,P = T2?,Same,2,1,low,96,1.16,154,0.71,154,0.73,Yes,quiteSure,hit,0.7872657775878906,NA
165,vus64!8,False,150,2,equal,ST2_low_4_a1,P = T2?,Same,2,1,low,112,0.92,70,1.51,70,1.43,Yes,quiteSure,hit,0.8314492702484131,NA
166,vus64!8,False,151,2,equal,ST1_low_5_a2,P = T2?,Same,1,2,low,96,1.14,154,0.81,96,1.25,Yes,quiteSure,fa,0.8133499622344971,NA
167,vus64!8,False,152,2,equal,ST1_low_6_a1,P = T1?,Same,1,1,low,154,0.77,96,1.13,154,0.8,No,unsure,miss,1.5290400981903076,NA
168,vus64!8,False,153,2,equal,ST1_high_6_a2,P = T1?,Same,1,2,high,132,0.97,96,1.34,132,0.81,No,unsure,miss,1.1926860809326172,NA
169,vus64!8,False,154,2,equal,ST2_high_3_a1,P = T1?,Same,2,1,high,70,1.83,96,1.29,96,1.13,No,unsure,cr,1.025000810623169,NA
170,vus64!8,False,155,2,equal,ST1_low_3_a2,P = T2?,Same,1,2,low,70,1.83,112,1.04,70,1.49,No,unsure,cr,0.4990999698638916,NA
171,vus64!8,False,156,2,equal,ST2_low_4_a2,P = T2?,Same,2,2,low,112,1.14,70,1.68,70,1.41,Yes,sure,hit,1.036348819732666,NA
172,vus64!8,False,157,2,equal,ST1_high_6_a1,P = T1?,Same,1,1,high,132,0.8,96,1.3,132,0.9,Yes,quiteSure,hit,1.6929190158843994,NA
173,vus64!8,False,158,2,equal,ST2_high_4_a1,P = T1?,Same,2,1,high,96,1.25,70,1.78,70,1.61,No,sure,cr,1.530695915222168,NA
174,vus64!8,False,159,2,equal,ST1_low_3_a1,P = T1?,Same,1,1,low,70,1.81,112,1.19,70,1.39,Yes,quiteSure,hit,1.013145923614502,NA
175,vus64!8,False,160,2,equal,ST2_high_2_a1,P = T1?,Same,2,1,high,112,1.21,82,1.48,82,1.26,No,quiteSure,cr,1.4634580612182617,NA
176,vus64!8,False,161,2,equal,ST2_high_5_a2,P = T2?,Same,2,2,high,96,1.19,132,0.97,132,1.06,Yes,quiteSure,hit,0.8359477519989014,NA
177,vus64!8,False,162,2,equal,ST2_high_5_a2,P = T1?,Same,2,2,high,96,1.29,132,0.91,132,0.92,Yes,quiteSure,fa,0.226485013961792,NA
178,vus64!8,False,163,2,equal,ST1_high_4_a1,P = T2?,Same,1,1,high,96,1.17,70,1.65,96,1.14,Yes,quiteSure,fa,0.8145642280578613,NA
179,vus64!8,False,164,2,equal,ST2_high_4_a2,P = T1?,Same,2,2,high,96,1.37,70,1.64,70,1.61,No,unsure,cr,1.1711399555206299,NA
180,vus64!8,False,165,2,equal,ST1_high_3_a1,P = T1?,Same,1,1,high,70,1.8,96,1.36,70,1.62,No,unsure,miss,1.1466870307922363,NA
181,vus64!8,False,166,2,equal,ST1_low_2_a1,P = T2?,Same,1,1,low,132,0.96,82,1.64,132,0.94,Yes,quiteSure,fa,0.9428589344024658,NA
182,vus64!8,False,167,2,equal,ST2_high_3_a2,P = T2?,Same,2,2,high,70,1.61,96,1.27,96,1.34,Yes,quiteSure,hit,0.8990030288696289,NA
183,vus64!8,False,168,2,equal,ST2_high_6_a1,P = T2?,Same,2,1,high,132,1.05,96,1.14,96,1.13,Yes,quiteSure,hit,0.9000589847564697,NA
184,vus64!8,False,169,2,equal,ST1_low_4_a2,P = T1?,Same,1,2,low,112,1.24,70,1.49,112,1.09,Yes,quiteSure,hit,0.9223940372467041,NA
185,vus64!8,False,170,2,equal,ST1_high_1_a2,P = T2?,Same,1,2,high,82,1.4,112,1.01,82,1.6,Yes,quiteSure,fa,0.4730381965637207,NA
186,vus64!8,False,171,2,equal,ST1_high_2_a2,P = T1?,Same,1,2,high,112,1.13,82,1.6,112,1.22,No,quiteSure,miss,1.1473541259765625,NA
187,vus64!8,False,172,2,equal,ST2_high_6_a1,P = T2?,Same,2,1,high,132,0.92,96,1.26,96,1.4,Yes,quiteSure,hit,0.8288750648498535,NA
188,vus64!8,False,173,2,equal,DT2_high_1_a2,P = T2?,Different,2,2,high,82,1.55,112,1.07,132,0.79,Yes,quiteSure,hit,0.35923290252685547,NA
189,vus64!8,False,174,2,equal,ST1_low_4_a1,P = T2?,Same,1,1,low,112,1.18,70,1.73,112,1.01,Yes,quiteSure,fa,1.6677112579345703,NA
190,vus64!8,False,175,2,equal,ST2_high_3_a1,P = T2?,Same,2,1,high,70,1.83,96,1.14,96,1.11,Yes,quiteSure,hit,1.0568618774414062,NA
191,vus64!8,False,176,2,equal,ST2_high_6_a2,P = T1?,Same,2,2,high,132,0.9,96,1.34,96,1.09,Yes,quiteSure,fa,1.5991830825805664,NA
192,vus64!8,False,177,2,equal,ST2_high_5_a1,P = T1?,Same,2,1,high,96,1.14,132,0.96,132,0.87,No,sure,cr,1.7356557846069336,NA
193,vus64!8,False,178,2,equal,ST2_high_3_a1,P = T1?,Same,2,1,high,70,1.85,96,1.19,96,1.06,No,unsure,cr,1.3410918712615967,NA
194,vus64!8,False,179,2,equal,ST2_high_6_a2,P = T2?,Same,2,2,high,132,0.82,96,1.29,96,1.3,Yes,unsure,hit,1.9127287864685059,NA
195,vus64!8,False,180,2,equal,ST1_high_4_a2,P = T2?,Same,1,2,high,96,1.39,70,1.6,96,1.2,No,unsure,cr,1.1720402240753174,NA
196,vus64!8,False,181,2,equal,ST2_high_2_a1,P = T2?,Same,2,1,high,112,1.07,82,1.42,82,1.26,Yes,quiteSure,hit,1.1759586334228516,NA
197,vus64!8,False,182,2,equal,ST2_high_5_a2,P = T1?,Same,2,2,high,96,1.08,132,1.04,132,0.99,Yes,unsure,fa,1.57728910446167,NA
198,vus64!8,False,183,2,equal,ST2_low_4_a2,P = T1?,Same,2,2,low,112,1.04,70,1.6,70,1.5,Yes,unsure,fa,1.6397182941436768,NA
199,vus64!8,False,184,2,equal,ST1_low_5_a1,P = T1?,Same,1,1,low,96,1.26,154,0.8,96,1.31,Yes,quiteSure,hit,1.774073839187622,NA
200,vus64!8,False,185,2,equal,ST2_high_4_a2,P = T2?,Same,2,2,high,96,1.19,70,1.52,70,1.47,Yes,quiteSure,hit,1.1027891635894775,NA
201,vus64!8,False,186,2,equal,ST2_low_5_a2,P = T1?,Same,2,2,low,96,1.11,154,0.82,154,0.82,No,unsure,cr,1.4827139377593994,NA
202,vus64!8,False,187,2,equal,ST1_low_2_a2,P = T2?,Same,1,2,low,132,0.91,82,1.27,132,0.92,No,quiteSure,cr,1.704946756362915,NA
203,vus64!8,False,188,2,equal,ST2_low_2_a2,P = T1?,Same,2,2,low,132,0.9,82,1.36,82,1.39,No,quiteSure,cr,1.221297025680542,NA
204,vus64!8,False,189,2,equal,STb_2_a2,P = T2?,Same,0,2,None,70,1.77,70,1.8,70,1.38,Yes,quiteSure,hit,0.2290959358215332,NA
205,vus64!8,False,190,2,equal,ST2_low_2_a2,P = T1?,Same,2,2,low,132,0.81,82,1.39,82,1.3,Yes,quiteSure,fa,0.2697868347167969,NA
206,vus64!8,False,191,2,equal,ST1_low_1_a1,P = T1?,Same,1,1,low,82,1.37,132,0.84,82,1.41,Yes,quiteSure,hit,0.7461080551147461,NA
207,vus64!8,False,192,2,equal,ST1_low_4_a1,P = T1?,Same,1,1,low,112,1.16,70,1.47,112,0.94,Yes,unsure,hit,2.295051097869873,NA
208,vus64!8,False,193,2,equal,ST1_high_4_a1,P = T1?,Same,1,1,high,96,1.07,70,1.83,96,1.36,No,quiteSure,miss,1.5862536430358887,NA
209,vus64!8,False,194,2,equal,STb_6_a1,P = T1?,Same,0,1,None,132,0.93,132,0.95,132,0.96,No,unsure,miss,2.0035016536712646,NA
210,vus64!8,False,195,2,equal,ST1_high_5_a1,P = T2?,Same,1,1,high,96,1.21,132,0.79,96,1.39,Yes,quiteSure,fa,1.0477688312530518,NA
211,vus64!8,False,196,2,equal,ST1_low_6_a1,P = T2?,Same,1,1,low,154,0.77,96,1.28,154,0.77,Yes,quiteSure,fa,0.42797207832336426,NA
212,vus64!8,False,197,2,equal,ST2_high_1_a2,P = T2?,Same,2,2,high,82,1.5,112,1.06,112,1.02,Yes,quiteSure,hit,1.1019198894500732,NA
213,vus64!8,False,198,2,equal,ST1_high_5_a2,P = T2?,Same,1,2,high,96,1.42,132,0.97,96,1.21,Yes,unsure,fa,1.5944240093231201,NA
214,vus64!8,False,199,2,equal,ST2_high_2_a1,P = T2?,Same,2,1,high,112,1.06,82,1.35,82,1.59,Yes,quiteSure,hit,0.9448819160461426,NA
215,vus64!8,False,200,2,equal,ST2_low_1_a1,P = T2?,Same,2,1,low,82,1.55,132,0.81,132,0.94,Yes,quiteSure,hit,0.9239552021026611,NA
216,vus64!8,False,201,2,equal,ST1_low_4_a1,P = T2?,Same,1,1,low,112,1.08,70,1.66,112,1.03,No,quiteSure,cr,1.2388660907745361,NA
217,vus64!8,False,202,2,equal,ST2_high_6_a2,P = T1?,Same,2,2,high,132,0.8,96,1.17,96,1.31,No,unsure,cr,0.7213900089263916,NA
218,vus64!8,False,203,2,equal,ST1_low_1_a2,P = T1?,Same,1,2,low,82,1.51,132,0.79,82,1.41,No,unsure,miss,0.6099848747253418,NA
219,vus64!8,False,204,2,equal,ST2_high_4_a1,P = T2?,Same,2,1,high,96,1.27,70,1.69,70,1.6,Yes,quiteSure,hit,1.0561749935150146,NA
220,vus64!8,False,205,2,equal,ST2_low_4_a1,P = T1?,Same,2,1,low,112,1.05,70,1.65,70,1.66,No,sure,cr,1.5294451713562012,NA
221,vus64!8,False,206,2,equal,ST1_low_6_a2,P = T1?,Same,1,2,low,154,0.72,96,1.08,154,0.75,Yes,quiteSure,hit,0.38788414001464844,NA
222,vus64!8,False,207,2,equal,ST1_high_5_a2,P = T1?,Same,1,2,high,96,1.13,132,0.86,96,1.23,No,sure,miss,0.34119391441345215,NA
223,vus64!8,False,208,2,equal,ST2_high_6_a2,P = T2?,Same,2,2,high,132,1.01,96,1.13,96,1.13,Yes,quiteSure,hit,0.3137381076812744,NA
224,vus64!8,False,209,2,equal,ST1_high_4_a2,P = T2?,Same,1,2,high,96,1.34,70,1.41,96,1.08,Yes,quiteSure,fa,0.9459729194641113,NA
225,vus64!8,False,210,2,equal,ST2_high_1_a2,P = T2?,Same,2,2,high,82,1.3,112,1.14,112,1.19,Yes,quiteSure,hit,0.3405640125274658,NA
226,vus64!8,False,211,2,equal,ST2_high_2_a1,P = T2?,Same,2,1,high,112,1.18,82,1.55,82,1.31,Yes,quiteSure,hit,0.9460430145263672,NA
227,vus64!8,False,212,2,equal,ST1_high_6_a1,P = T2?,Same,1,1,high,132,0.92,96,1.16,132,0.86,Yes,quiteSure,fa,0.9009301662445068,NA
228,vus64!8,False,213,2,equal,ST1_high_4_a2,P = T1?,Same,1,2,high,96,1.16,70,1.57,96,1.4,No,sure,miss,1.0335848331451416,NA
229,vus64!8,False,214,2,equal,DT2_low_6_a1,P = T1?,Different,2,1,low,154,0.94,96,1.32,82,1.3,No,unsure,cr,1.1014790534973145,NA
230,vus64!8,False,215,2,equal,ST2_low_1_a1,P = T1?,Same,2,1,low,82,1.58,132,0.86,132,0.82,Yes,unsure,fa,1.6246089935302734,NA
231,vus64!8,False,216,2,equal,ST2_high_1_a2,P = T1?,Same,2,2,high,82,1.59,112,1.08,112,1.19,Yes,quiteSure,fa,1.324488878250122,NA
232,vus64!8,False,217,2,equal,ST1_low_3_a2,P = T1?,Same,1,2,low,70,1.78,112,1.02,70,1.78,Yes,quiteSure,hit,0.8578901290893555,NA
233,vus64!8,False,218,2,equal,ST1_low_1_a2,P = T1?,Same,1,2,low,82,1.42,132,1.06,82,1.53,Yes,quiteSure,hit,0.9885356426239014,NA
234,vus64!8,False,219,2,equal,ST1_low_2_a2,P = T2?,Same,1,2,low,132,0.89,82,1.49,132,0.92,No,unsure,cr,1.2185108661651611,NA
235,vus64!8,False,220,2,equal,ST2_low_4_a2,P = T1?,Same,2,2,low,112,1.09,70,1.45,70,1.78,No,sure,cr,1.2162048816680908,NA
236,vus64!8,False,221,2,equal,DT1_high_4_a1,P = T2?,Different,1,1,high,96,1.28,70,1.7,112,1.11,Yes,quiteSure,fa,1.9171221256256104,NA
237,vus64!8,False,222,2,equal,ST1_high_5_a1,P = T2?,Same,1,1,high,96,1.17,132,1.03,96,1.15,Yes,quiteSure,fa,0.8984878063201904,NA
238,vus64!8,False,223,2,equal,ST1_low_3_a1,P = T2?,Same,1,1,low,70,1.51,112,1.05,70,1.55,Yes,quiteSure,fa,0.6076657772064209,NA
239,vus64!8,False,224,2,equal,ST2_low_6_a2,P = T1?,Same,2,2,low,154,0.83,96,1.4,96,1.19,Yes,quiteSure,fa,0.407944917678833,NA
240,vus64!8,False,225,2,equal,ST2_low_3_a2,P = T1?,Same,2,2,low,70,1.38,112,1.14,112,1.02,No,unsure,cr,1.1290578842163086,NA
241,vus64!8,False,226,2,equal,ST2_low_1_a2,P = T2?,Same,2,2,low,82,1.3,132,0.95,132,0.94,Yes,unsure,hit,1.9105980396270752,NA
242,vus64!8,False,227,2,equal,ST2_low_6_a1,P = T2?,Same,2,1,low,154,0.85,96,1.17,96,1.13,Yes,quiteSure,hit,1.8249783515930176,NA
243,vus64!8,False,228,2,equal,ST1_high_4_a1,P = T1?,Same,1,1,high,96,1.31,70,1.76,96,1.13,No,quiteSure,miss,1.4220890998840332,NA
244,vus64!8,False,229,2,equal,ST1_low_4_a2,P = T1?,Same,1,2,low,112,1.12,70,1.73,112,1.07,Yes,quiteSure,hit,1.3747758865356445,NA
245,vus64!8,False,230,2,equal,DT1_high_6_a1,P = T2?,Different,1,1,high,132,0.82,96,1.25,154,0.77,No,unsure,cr,1.5544953346252441,NA
246,vus64!8,False,231,2,equal,ST1_low_5_a1,P = T2?,Same,1,1,low,96,1.16,154,0.91,96,1.24,No,unsure,cr,0.5661358833312988,NA
247,vus64!8,False,232,2,equal,DT2_low_6_a1,P = T2?,Different,2,1,low,154,0.78,96,1.41,82,1.35,Yes,quiteSure,hit,1.1908740997314453,NA
248,vus64!8,False,233,2,equal,ST1_high_6_a1,P = T1?,Same,1,1,high,132,0.93,96,1.15,132,0.98,No,quiteSure,miss,1.1971261501312256,NA
249,vus64!8,False,234,2,equal,ST1_low_6_a2,P = T2?,Same,1,2,low,154,0.82,96,1.23,154,0.82,No,unsure,cr,1.1464331150054932,NA
250,vus64!8,False,235,2,equal,ST2_low_1_a2,P = T1?,Same,2,2,low,82,1.29,132,0.92,132,0.96,Yes,quiteSure,fa,0.3404510021209717,NA
251,vus64!8,False,236,2,equal,ST1_low_4_a2,P = T2?,Same,1,2,low,112,0.98,70,1.64,112,1.23,No,unsure,cr,0.47430872917175293,NA
252,vus64!8,False,237,2,equal,ST2_low_2_a2,P = T1?,Same,2,2,low,132,0.89,82,1.24,82,1.46,No,sure,cr,1.1034810543060303,NA
253,vus64!8,False,238,2,equal,ST2_low_5_a1,P = T2?,Same,2,1,low,96,1.2,154,0.84,154,0.81,Yes,quiteSure,hit,0.92535400390625,NA
254,vus64!8,False,239,2,equal,ST1_low_3_a2,P = T2?,Same,1,2,low,70,1.55,112,1.22,70,1.64,Yes,unsure,fa,1.7166249752044678,NA
255,vus64!8,False,240,2,equal,ST1_low_6_a1,P = T2?,Same,1,1,low,154,0.92,96,1.11,154,0.79,Yes,quiteSure,fa,1.0100128650665283,NA
256,vus64!8,False,241,2,equal,ST1_low_6_a1,P = T2?,Same,1,1,low,154,0.81,96,1.28,154,0.71,Yes,quiteSure,fa,0.8746256828308105,NA
257,vus64!8,False,242,2,equal,ST1_high_3_a2,P = T2?,Same,1,2,high,70,1.41,96,1.2,70,1.63,Yes,quiteSure,fa,0.38806915283203125,NA
258,vus64!8,False,243,2,equal,ST2_high_3_a2,P = T1?,Same,2,2,high,70,1.8,96,1.43,96,1.4,Yes,quiteSure,fa,0.15091729164123535,NA
259,vus64!8,False,244,2,equal,DT2_high_6_a2,P = T1?,Different,2,2,high,132,0.98,96,1.2,82,1.27,No,unsure,cr,1.6481399536132812,NA
260,vus64!8,False,245,2,equal,ST1_low_3_a1,P = T1?,Same,1,1,low,70,1.65,112,0.96,70,1.71,Yes,quiteSure,hit,0.9663329124450684,NA
261,vus64!8,False,246,2,equal,DT2_low_2_a1,P = T1?,Different,2,1,low,132,0.87,82,1.33,70,1.62,Yes,unsure,fa,1.41994309425354,NA
262,vus64!8,False,247,2,equal,DT2_high_6_a1,P = T2?,Different,2,1,high,132,1.03,96,1.34,82,1.44,Yes,quiteSure,hit,0.9250493049621582,NA
263,vus64!8,False,248,2,equal,ST1_low_4_a2,P = T1?,Same,1,2,low,112,1.03,70,1.72,112,1.21,No,quiteSure,miss,1.3473427295684814,NA
264,vus64!8,False,249,2,equal,ST1_low_5_a1,P = T2?,Same,1,1,low,96,1.24,154,0.74,96,1.35,No,quiteSure,cr,0.47496867179870605,NA
265,vus64!8,False,250,2,equal,ST2_high_6_a1,P = T1?,Same,2,1,high,132,0.83,96,1.24,96,1.12,No,quiteSure,cr,1.0605192184448242,NA
266,vus64!8,False,251,2,equal,ST2_high_3_a1,P = T2?,Same,2,1,high,70,1.68,96,1.3,96,1.42,Yes,quiteSure,hit,0.17698884010314941,NA
267,vus64!8,False,252,2,equal,ST1_high_1_a2,P = T1?,Same,1,2,high,82,1.38,112,0.97,82,1.48,No,quiteSure,miss,0.20688676834106445,NA
268,vus64!8,False,253,2,equal,ST1_low_2_a1,P = T2?,Same,1,1,low,132,0.98,82,1.29,132,0.79,Yes,quiteSure,fa,1.1783411502838135,NA
269,vus64!8,False,254,2,equal,ST2_high_3_a1,P = T2?,Same,2,1,high,70,1.41,96,1.32,96,1.31,Yes,quiteSure,hit,1.3732726573944092,NA
270,vus64!8,False,255,2,equal,ST2_low_2_a1,P = T1?,Same,2,1,low,132,0.91,82,1.37,82,1.22,Yes,unsure,fa,1.8481478691101074,NA
271,vus64!8,False,256,2,equal,ST2_high_4_a2,P = T2?,Same,2,2,high,96,1.14,70,1.51,70,1.83,No,sure,miss,0.24817705154418945,NA
272,vus64!8,False,257,2,equal,ST2_low_1_a2,P = T1?,Same,2,2,low,82,1.31,132,1.0,132,0.95,Yes,quiteSure,fa,0.36122703552246094,NA
273,vus64!8,False,258,2,equal,ST1_low_3_a2,P = T1?,Same,1,2,low,70,1.83,112,1.23,70,1.52,No,unsure,miss,0.3624587059020996,NA
274,vus64!8,False,259,2,equal,ST2_high_1_a1,P = T2?,Same,2,1,high,82,1.55,112,0.96,112,1.16,No,unsure,miss,1.163585901260376,NA
275,vus64!8,False,260,2,equal,ST1_low_4_a2,P = T2?,Same,1,2,low,112,1.03,70,1.59,112,1.06,No,unsure,cr,1.73502779006958,NA
276,vus64!8,False,261,2,equal,STb_1_a2,P = T2?,Same,0,2,None,60,1.91,60,1.63,60,1.75,Yes,quiteSure,hit,0.45416879653930664,NA
277,vus64!8,False,262,2,equal,ST1_low_4_a2,P = T2?,Same,1,2,low,112,0.93,70,1.62,112,1.08,Yes,unsure,fa,1.7821779251098633,NA
278,vus64!8,False,263,2,equal,ST1_high_2_a2,P = T2?,Same,1,2,high,112,1.0,82,1.31,112,1.13,Yes,quiteSure,fa,1.0390992164611816,NA
279,vus64!8,False,264,2,equal,ST2_high_1_a1,P = T1?,Same,2,1,high,82,1.45,112,1.19,112,1.07,Yes,quiteSure,fa,0.26862215995788574,NA
280,vus64!8,False,265,2,equal,ST2_low_6_a2,P = T1?,Same,2,2,low,154,0.81,96,1.26,96,1.23,Yes,quiteSure,fa,0.26953887939453125,NA
281,vus64!8,False,266,2,equal,ST2_high_2_a2,P = T1?,Same,2,2,high,112,0.95,82,1.25,82,1.56,No,quiteSure,cr,1.2638399600982666,NA
282,vus64!8,False,267,2,equal,ST1_high_3_a2,P = T2?,Same,1,2,high,70,1.82,96,1.23,70,1.81,No,unsure,cr,1.6221339702606201,NA
283,vus64!8,False,268,2,equal,ST2_high_3_a2,P = T2?,Same,2,2,high,70,1.4,96,1.36,96,1.27,Yes,quiteSure,hit,1.2532811164855957,NA
284,vus64!8,False,269,2,equal,ST1_high_2_a1,P = T1?,Same,1,1,high,112,0.97,82,1.45,112,1.19,Yes,quiteSure,hit,1.1496827602386475,NA
285,vus64!8,False,270,2,equal,ST2_low_4_a1,P = T2?,Same,2,1,low,112,0.94,70,1.41,70,1.71,Yes,quiteSure,hit,1.1953599452972412,NA
286,vus64!8,False,271,2,equal,ST2_low_5_a1,P = T1?,Same,2,1,low,96,1.14,154,0.87,154,0.75,No,quiteSure,cr,1.870203971862793,NA
287,vus64!8,False,272,2,equal,ST2_low_6_a1,P = T1?,Same,2,1,low,154,0.93,96,1.14,96,1.43,No,quiteSure,cr,1.0799651145935059,NA
288,vus64!8,False,273,2,equal,ST2_high_4_a1,P = T1?,Same,2,1,high,96,1.32,70,1.64,70,1.54,No,quiteSure,cr,1.0558829307556152,NA
289,vus64!8,False,274,2,equal,ST1_high_1_a1,P = T1?,Same,1,1,high,82,1.64,112,1.06,82,1.43,Yes,quiteSure,hit,0.6940770149230957,NA
290,vus64!8,False,275,2,equal,ST1_low_1_a1,P = T1?,Same,1,1,low,82,1.55,132,1.04,82,1.3,Yes,unsure,hit,2.6363492012023926,NA
291,vus64!8,False,276,2,equal,ST2_low_1_a2,P = T1?,Same,2,2,low,82,1.36,132,0.83,132,0.93,Yes,quiteSure,fa,0.4418759346008301,NA
292,vus64!8,False,277,2,equal,ST2_low_6_a2,P = T1?,Same,2,2,low,154,0.88,96,1.14,96,1.31,No,unsure,cr,2.156049966812134,NA
293,vus64!8,False,278,2,equal,ST1_high_2_a1,P = T1?,Same,1,1,high,112,1.03,82,1.42,112,0.94,No,quiteSure,miss,1.7196388244628906,NA
294,vus64!8,False,279,2,equal,ST1_low_6_a1,P = T1?,Same,1,1,low,154,0.95,96,1.1,154,0.81,Yes,quiteSure,hit,0.21910715103149414,NA
295,vus64!8,False,280,2,equal,ST2_low_4_a1,P = T2?,Same,2,1,low,112,0.98,70,1.66,70,1.43,Yes,quiteSure,hit,1.1012139320373535,NA
296,vus64!8,False,281,2,equal,ST1_high_2_a1,P = T2?,Same,1,1,high,112,0.94,82,1.31,112,1.06,Yes,quiteSure,fa,0.13641881942749023,NA
297,vus64!8,False,282,2,equal,ST2_low_3_a2,P = T2?,Same,2,2,low,70,1.39,112,0.99,112,1.15,Yes,quiteSure,hit,0.7887210845947266,NA
298,vus64!8,False,283,2,equal,STb_4_a1,P = T2?,Same,0,1,None,96,1.18,96,1.17,96,1.36,Yes,unsure,hit,0.5392301082611084,NA
299,vus64!8,False,284,2,equal,ST2_low_2_a1,P = T2?,Same,2,1,low,132,0.82,82,1.47,82,1.22,No,unsure,miss,3.9768221378326416,NA
300,vus64!8,False,285,2,equal,ST1_low_2_a1,P = T1?,Same,1,1,low,132,1.02,82,1.35,132,0.99,No,quiteSure,miss,1.079010009765625,NA
301,vus64!8,False,286,2,equal,ST1_high_3_a2,P = T1?,Same,1,2,high,70,1.68,96,1.22,70,1.72,Yes,quiteSure,hit,0.4072530269622803,NA
302,vus64!8,False,287,2,equal,STb_4_a1,P = T1?,Same,0,1,None,96,1.13,96,1.37,96,1.34,No,quiteSure,miss,0.9834799766540527,NA
303,vus64!8,False,288,2,equal,ST1_low_3_a2,P = T2?,Same,1,2,low,70,1.47,112,1.14,70,1.4,Yes,quiteSure,fa,0.22371292114257812,NA
304,vus64!8,False,289,2,equal,ST2_low_1_a1,P = T2?,Same,2,1,low,82,1.55,132,0.83,132,1.04,Yes,quiteSure,hit,1.0379676818847656,NA
305,vus64!8,False,290,2,equal,ST1_high_4_a2,P = T1?,Same,1,2,high,96,1.12,70,1.69,96,1.26,Yes,quiteSure,hit,1.4646949768066406,NA
306,vus64!8,False,291,2,equal,ST2_high_5_a2,P = T2?,Same,2,2,high,96,1.22,132,1.05,132,0.81,No,quiteSure,miss,1.483269214630127,NA
307,vus64!8,False,292,2,equal,ST2_low_6_a1,P = T2?,Same,2,1,low,154,0.96,96,1.37,96,1.19,Yes,quiteSure,hit,0.8145139217376709,NA
308,vus64!8,False,293,2,equal,ST2_low_6_a2,P = T2?,Same,2,2,low,154,0.79,96,1.26,96,1.23,Yes,quiteSure,hit,1.0149950981140137,NA
309,vus64!8,False,294,2,equal,ST2_high_6_a2,P = T1?,Same,2,2,high,132,0.94,96,1.21,96,1.37,Yes,quiteSure,fa,0.20494294166564941,NA
310,vus64!8,False,295,2,equal,ST1_low_1_a2,P = T2?,Same,1,2,low,82,1.61,132,0.85,82,1.26,Yes,quiteSure,fa,0.8786089420318604,NA
311,vus64!8,False,296,2,equal,ST2_high_4_a1,P = T2?,Same,2,1,high,96,1.25,70,1.82,70,1.56,Yes,quiteSure,hit,0.9924318790435791,NA
312,vus64!8,False,297,2,equal,ST1_low_1_a1,P = T2?,Same,1,1,low,82,1.56,132,0.91,82,1.31,No,quiteSure,cr,1.1710867881774902,NA
313,vus64!8,False,298,2,equal,ST1_high_1_a2,P = T1?,Same,1,2,high,82,1.61,112,0.96,82,1.27,Yes,quiteSure,hit,0.9010639190673828,NA
314,vus64!8,False,299,2,equal,ST2_low_5_a1,P = T1?,Same,2,1,low,96,1.33,154,0.72,154,0.87,No,unsure,cr,1.3967840671539307,NA
315,vus64!8,False,300,2,equal,ST1_low_5_a1,P = T1?,Same,1,1,low,96,1.29,154,0.78,96,1.06,Yes,quiteSure,hit,0.9275350570678711,NA
316,vus64!8,False,301,2,equal,ST1_low_4_a1,P = T1?,Same,1,1,low,112,1.19,70,1.41,112,1.01,No,unsure,miss,1.256636142730713,NA
317,vus64!8,False,302,2,equal,ST2_high_1_a2,P = T1?,Same,2,2,high,82,1.37,112,1.18,112,1.07,Yes,quiteSure,fa,0.7266740798950195,NA
318,vus64!8,False,303,2,equal,ST1_high_3_a1,P = T1?,Same,1,1,high,70,1.44,96,1.12,70,1.5,Yes,unsure,hit,1.914776086807251,NA
319,vus64!8,False,304,2,equal,ST2_low_3_a2,P = T2?,Same,2,2,low,70,1.5,112,1.08,112,1.03,Yes,sure,hit,0.6106560230255127,NA
320,vus64!8,False,305,2,equal,ST2_low_5_a2,P = T2?,Same,2,2,low,96,1.15,154,0.92,154,0.94,Yes,sure,hit,0.31712794303894043,NA
321,vus64!8,False,306,2,equal,ST1_low_6_a2,P = T2?,Same,1,2,low,154,0.73,96,1.42,154,0.84,Yes,quiteSure,fa,0.923565149307251,NA
322,vus64!8,False,307,2,equal,ST2_low_6_a2,P = T2?,Same,2,2,low,154,0.8,96,1.18,96,1.29,Yes,quiteSure,hit,0.22799181938171387,NA
323,vus64!8,False,308,2,equal,ST1_high_2_a2,P = T1?,Same,1,2,high,112,0.93,82,1.29,112,1.0,Yes,quiteSure,hit,0.922382116317749,NA
324,vus64!8,False,309,2,equal,ST1_low_2_a2,P = T1?,Same,1,2,low,132,0.96,82,1.56,132,0.81,Yes,quiteSure,hit,3.515772819519043,NA
325,vus64!8,False,310,2,equal,ST1_high_2_a2,P = T2?,Same,1,2,high,112,0.93,82,1.44,112,0.96,No,sure,cr,1.5063259601593018,NA
326,vus64!8,False,311,2,equal,ST1_high_1_a1,P = T2?,Same,1,1,high,82,1.61,112,1.11,82,1.26,No,unsure,cr,1.7098469734191895,NA
327,vus64!8,False,312,2,equal,ST1_low_2_a2,P = T1?,Same,1,2,low,132,0.81,82,1.61,132,0.96,Yes,quiteSure,hit,1.3290491104125977,NA
328,vus64!8,False,313,2,equal,ST2_high_5_a2,P = T1?,Same,2,2,high,96,1.08,132,1.06,132,0.99,Yes,quiteSure,fa,1.2202990055084229,NA
329,vus64!8,False,314,2,equal,ST2_high_2_a1,P = T1?,Same,2,1,high,112,1.14,82,1.32,82,1.61,No,sure,cr,1.7721550464630127,NA
330,vus64!8,False,315,2,equal,ST2_high_2_a2,P = T1?,Same,2,2,high,112,0.96,82,1.6,82,1.33,Yes,unsure,fa,1.3495151996612549,NA
331,vus64!8,False,316,2,equal,STb_8_a1,P = T1?,Same,0,1,None,180,0.89,180,0.81,180,0.93,Yes,quiteSure,hit,0.8088531494140625,NA
332,vus64!8,False,317,2,equal,ST1_high_3_a2,P = T1?,Same,1,2,high,70,1.6,96,1.11,70,1.38,Yes,unsure,hit,2.2295889854431152,NA
333,vus64!8,False,318,2,equal,STb_1_a1,P = T2?,Same,0,1,None,60,1.66,60,1.99,60,1.79,No,unsure,miss,0.624981164932251,NA
334,vus64!8,False,319,2,equal,ST1_high_2_a2,P = T2?,Same,1,2,high,112,1.09,82,1.43,112,0.94,No,sure,cr,1.5105838775634766,NA
335,vus64!8,False,320,2,equal,ST2_high_4_a2,P = T1?,Same,2,2,high,96,1.35,70,1.58,70,1.48,Yes,quiteSure,fa,0.5180630683898926,0.0
