,pcode,practice,trial,block,questionType,condition,question,PTS,TargetPosition,AccessoryPosition,TNS,T1_hz,T1_amp,T2_hz,T2_amp,P_hz,P_amp,response_dicho,response_rating,response_sdt,rt,P_correct
0,v0sp6#5,True,1,1,equal,STb_4_a2,P = T2?,Same,0,2,None,96,1.32,96,1.09,96,1.37,Yes,quiteSure,hit,1.7526319026947021,NA
1,v0sp6#5,True,2,1,equal,ST1_low_6_a2,P = T2?,Same,1,2,low,154,0.66,96,1.29,154,0.81,No,sure,cr,1.7311532497406006,NA
2,v0sp6#5,True,3,1,equal,ST2_low_1_a2,P = T2?,Same,2,2,low,82,1.36,132,0.87,132,0.82,Yes,sure,hit,1.714812994003296,NA
3,v0sp6#5,True,4,1,equal,ST1_high_4_a2,P = T1?,Same,1,2,high,96,0.98,70,1.95,96,1.19,Yes,sure,hit,1.2584950923919678,NA
4,v0sp6#5,True,5,1,equal,STb_7_a2,P = T1?,Same,0,2,None,154,0.67,154,0.74,154,0.86,Yes,sure,hit,1.6684820652008057,NA
5,v0sp6#5,True,6,1,equal,ST2_low_1_a1,P = T2?,Same,2,1,low,82,1.66,132,1.01,132,0.88,Yes,sure,hit,1.3089489936828613,NA
6,v0sp6#5,True,7,1,equal,DT1_low_3_a2,P = T2?,Different,1,2,low,70,1.6,112,0.97,60,1.52,No,sure,cr,2.029561996459961,NA
7,v0sp6#5,True,8,1,equal,ST2_high_3_a2,P = T1?,Same,2,2,high,70,1.87,96,1.3,96,1.2,No,quiteSure,cr,1.347663164138794,NA
8,v0sp6#5,True,9,1,equal,ST2_high_3_a1,P = T1?,Same,2,1,high,70,1.7,96,1.33,96,1.02,Yes,quiteSure,fa,1.9799449443817139,NA
9,v0sp6#5,True,10,1,equal,ST1_high_1_a2,P = T1?,Same,1,2,high,82,1.19,112,1.08,82,1.35,Yes,quiteSure,hit,1.6204020977020264,NA
10,v0sp6#5,True,11,1,equal,DT1_high_5_a1,P = T1?,Different,1,1,high,96,1.33,132,0.8,82,1.56,No,sure,miss,1.599518060684204,NA
11,v0sp6#5,True,12,1,equal,STb_2_a1,P = T2?,Same,0,1,None,70,1.48,70,1.45,70,1.58,Yes,quiteSure,hit,1.374526023864746,NA
12,v0sp6#5,True,13,1,equal,STb_4_a2,P = T1?,Same,0,2,None,96,1.1,96,1.25,96,1.15,Yes,quiteSure,hit,2.3405749797821045,NA
13,v0sp6#5,True,14,1,equal,ST1_high_4_a1,P = T2?,Same,1,1,high,96,1.34,70,1.49,96,1.24,Yes,quiteSure,fa,1.2347590923309326,NA
14,v0sp6#5,True,15,1,equal,DT2_low_1_a1,P = T1?,Different,2,1,low,82,1.34,132,0.87,154,0.96,No,sure,cr,1.4888122081756592,NA
15,v0sp6#5,True,16,1,equal,DT1_low_4_a1,P = T2?,Different,1,1,low,112,1.17,70,1.39,132,1.03,No,sure,cr,1.9161741733551025,0.625
16,v0sp6#5,False,1,1,equal,ST2_high_1_a2,P = T2?,Same,2,2,high,82,1.55,112,1.2,112,0.94,No,quiteSure,miss,4.997559070587158,NA
17,v0sp6#5,False,2,1,equal,STb_6_a2,P = T1?,Same,0,2,None,132,0.84,132,1.05,132,0.84,Yes,quiteSure,hit,1.395340919494629,NA
18,v0sp6#5,False,3,1,equal,ST2_low_1_a1,P = T2?,Same,2,1,low,82,1.28,132,0.96,132,0.92,No,quiteSure,miss,1.3745348453521729,NA
19,v0sp6#5,False,4,1,equal,ST2_low_3_a2,P = T2?,Same,2,2,low,70,1.51,112,0.96,112,1.04,No,quiteSure,miss,6.186342000961304,NA
20,v0sp6#5,False,5,1,equal,ST2_high_4_a2,P = T2?,Same,2,2,high,96,1.31,70,1.69,70,1.7,Yes,unsure,hit,3.4602649211883545,NA
21,v0sp6#5,False,6,1,equal,ST1_high_4_a1,P = T1?,Same,1,1,high,96,1.3,70,1.57,96,1.14,Yes,unsure,hit,3.173632860183716,NA
22,v0sp6#5,False,7,1,equal,ST1_high_4_a2,P = T2?,Same,1,2,high,96,1.21,70,1.38,96,1.22,No,quiteSure,cr,2.862598180770874,NA
23,v0sp6#5,False,8,1,equal,STb_5_a2,P = T2?,Same,0,2,None,112,1.17,112,0.97,112,0.92,No,quiteSure,miss,1.444606065750122,NA
24,v0sp6#5,False,9,1,equal,ST2_low_4_a1,P = T2?,Same,2,1,low,112,1.0,70,1.74,70,1.83,Yes,sure,hit,1.2232460975646973,NA
25,v0sp6#5,False,10,1,equal,ST2_high_3_a2,P = T1?,Same,2,2,high,70,1.87,96,1.3,96,1.2,Yes,quiteSure,fa,3.7779541015625,NA
26,v0sp6#5,False,11,1,equal,ST2_low_5_a1,P = T2?,Same,2,1,low,96,1.23,154,0.9,154,0.86,Yes,sure,hit,1.1271929740905762,NA
27,v0sp6#5,False,12,1,equal,ST2_low_6_a2,P = T1?,Same,2,2,low,154,0.91,96,1.32,96,1.21,No,quiteSure,cr,2.001113176345825,NA
28,v0sp6#5,False,13,1,equal,ST2_low_4_a2,P = T2?,Same,2,2,low,112,1.19,70,1.76,70,1.58,Yes,sure,hit,1.7735071182250977,NA
29,v0sp6#5,False,14,1,equal,ST2_low_4_a2,P = T1?,Same,2,2,low,112,1.08,70,1.69,70,1.83,No,sure,cr,1.7123568058013916,NA
30,v0sp6#5,False,15,1,equal,ST2_low_4_a2,P = T2?,Same,2,2,low,112,1.22,70,1.41,70,1.67,Yes,unsure,hit,3.351119041442871,NA
31,v0sp6#5,False,16,1,equal,ST1_low_3_a2,P = T2?,Same,1,2,low,70,1.48,112,0.92,70,1.59,No,sure,cr,1.685225009918213,NA
32,v0sp6#5,False,17,1,equal,ST2_high_3_a1,P = T2?,Same,2,1,high,70,1.41,96,1.21,96,1.31,Yes,quiteSure,hit,1.1696012020111084,NA
33,v0sp6#5,False,18,1,equal,ST2_high_4_a1,P = T1?,Same,2,1,high,96,1.17,70,1.49,70,1.77,Yes,quiteSure,fa,1.305807113647461,NA
34,v0sp6#5,False,19,1,equal,ST1_low_5_a1,P = T1?,Same,1,1,low,96,1.28,154,0.78,96,1.1,Yes,quiteSure,hit,1.1912949085235596,NA
35,v0sp6#5,False,20,1,equal,STb_2_a1,P = T1?,Same,0,1,None,70,1.4,70,1.4,70,1.55,Yes,unsure,hit,3.105556011199951,NA
36,v0sp6#5,False,21,1,equal,ST1_low_1_a2,P = T2?,Same,1,2,low,82,1.47,132,1.0,82,1.48,No,sure,cr,2.597865104675293,NA
37,v0sp6#5,False,22,1,equal,ST2_low_6_a1,P = T1?,Same,2,1,low,154,0.89,96,1.36,96,1.43,No,sure,cr,2.521821975708008,NA
38,v0sp6#5,False,23,1,equal,ST2_low_5_a1,P = T1?,Same,2,1,low,96,1.09,154,0.73,154,0.71,No,sure,cr,1.48494291305542,NA
39,v0sp6#5,False,24,1,equal,ST2_high_4_a2,P = T2?,Same,2,2,high,96,1.07,70,1.44,70,1.42,Yes,quiteSure,hit,1.1914849281311035,NA
40,v0sp6#5,False,25,1,equal,ST2_high_2_a1,P = T2?,Same,2,1,high,112,1.01,82,1.4,82,1.49,Yes,sure,hit,1.1496589183807373,NA
41,v0sp6#5,False,26,1,equal,ST1_high_1_a2,P = T2?,Same,1,2,high,82,1.38,112,1.09,82,1.39,No,quiteSure,cr,1.4391710758209229,NA
42,v0sp6#5,False,27,1,equal,ST1_high_6_a1,P = T2?,Same,1,1,high,132,0.93,96,1.14,132,0.91,No,quiteSure,cr,1.488638162612915,NA
43,v0sp6#5,False,28,1,equal,ST2_high_1_a1,P = T1?,Same,2,1,high,82,1.61,112,1.17,112,1.2,Yes,quiteSure,fa,2.340770959854126,NA
44,v0sp6#5,False,29,1,equal,ST2_low_3_a1,P = T1?,Same,2,1,low,70,1.72,112,0.95,112,1.17,Yes,quiteSure,fa,1.7348248958587646,NA
45,v0sp6#5,False,30,1,equal,ST1_low_1_a1,P = T1?,Same,1,1,low,82,1.28,132,1.04,82,1.43,Yes,sure,hit,1.195464849472046,NA
46,v0sp6#5,False,31,1,equal,ST2_low_2_a1,P = T2?,Same,2,1,low,132,0.82,82,1.23,82,1.42,Yes,quiteSure,hit,6.925201892852783,NA
47,v0sp6#5,False,32,1,equal,ST2_high_2_a1,P = T2?,Same,2,1,high,112,1.13,82,1.37,82,1.6,Yes,sure,hit,1.234706163406372,NA
48,v0sp6#5,False,33,1,equal,ST1_low_6_a1,P = T2?,Same,1,1,low,154,0.88,96,1.27,154,0.93,No,sure,cr,1.2165048122406006,NA
49,v0sp6#5,False,34,1,equal,ST1_high_6_a2,P = T1?,Same,1,2,high,132,0.8,96,1.41,132,0.99,No,quiteSure,miss,1.5514569282531738,NA
50,v0sp6#5,False,35,1,equal,ST2_high_5_a2,P = T2?,Same,2,2,high,96,1.33,132,1.06,132,0.96,Yes,sure,hit,1.3268561363220215,NA
51,v0sp6#5,False,36,1,equal,ST1_low_6_a1,P = T1?,Same,1,1,low,154,0.71,96,1.31,154,0.8,Yes,quiteSure,hit,1.2413361072540283,NA
52,v0sp6#5,False,37,1,equal,ST1_low_5_a2,P = T1?,Same,1,2,low,96,1.12,154,0.93,96,1.18,Yes,quiteSure,hit,1.2400147914886475,NA
53,v0sp6#5,False,38,1,equal,ST1_low_2_a2,P = T1?,Same,1,2,low,132,1.01,82,1.49,132,1.03,Yes,quiteSure,hit,1.191824197769165,NA
54,v0sp6#5,False,39,1,equal,ST1_high_1_a1,P = T2?,Same,1,1,high,82,1.39,112,1.17,82,1.25,No,quiteSure,cr,2.833406925201416,NA
55,v0sp6#5,False,40,1,equal,ST2_low_1_a1,P = T2?,Same,2,1,low,82,1.66,132,1.01,132,0.88,Yes,sure,hit,1.1934990882873535,NA
56,v0sp6#5,False,41,1,equal,ST2_high_1_a1,P = T1?,Same,2,1,high,82,1.52,112,0.99,112,0.93,No,quiteSure,cr,1.399411916732788,NA
57,v0sp6#5,False,42,1,equal,ST1_low_5_a1,P = T2?,Same,1,1,low,96,1.15,154,0.74,96,1.3,No,sure,cr,2.6345129013061523,NA
58,v0sp6#5,False,43,1,equal,ST1_high_3_a2,P = T1?,Same,1,2,high,70,1.45,96,1.31,70,1.37,Yes,sure,hit,1.416569709777832,NA
59,v0sp6#5,False,44,1,equal,ST2_low_1_a1,P = T2?,Same,2,1,low,82,1.24,132,0.9,132,0.96,Yes,quiteSure,hit,1.1267452239990234,NA
60,v0sp6#5,False,45,1,equal,STb_6_a2,P = T2?,Same,0,2,None,132,0.8,132,0.81,132,0.95,Yes,sure,hit,1.149327278137207,NA
61,v0sp6#5,False,46,1,equal,ST2_low_1_a2,P = T2?,Same,2,2,low,82,1.54,132,0.94,132,0.96,Yes,sure,hit,1.1480622291564941,NA
62,v0sp6#5,False,47,1,equal,ST1_low_2_a1,P = T1?,Same,1,1,low,132,0.9,82,1.26,132,0.89,Yes,quiteSure,hit,1.0590462684631348,NA
63,v0sp6#5,False,48,1,equal,ST2_low_6_a2,P = T2?,Same,2,2,low,154,0.84,96,1.3,96,1.17,Yes,quiteSure,hit,0.9461698532104492,NA
64,v0sp6#5,False,49,1,equal,ST1_low_2_a1,P = T2?,Same,1,1,low,132,0.94,82,1.34,132,1.03,No,sure,cr,1.5103607177734375,NA
65,v0sp6#5,False,50,1,equal,ST2_low_4_a1,P = T2?,Same,2,1,low,112,1.08,70,1.44,70,1.77,Yes,sure,hit,1.0816330909729004,NA
66,v0sp6#5,False,51,1,equal,ST2_low_3_a1,P = T2?,Same,2,1,low,70,1.67,112,1.05,112,0.98,Yes,quiteSure,hit,1.2585439682006836,NA
67,v0sp6#5,False,52,1,equal,ST1_high_3_a1,P = T1?,Same,1,1,high,70,1.77,96,1.41,70,1.67,Yes,sure,hit,1.0825369358062744,NA
68,v0sp6#5,False,53,1,equal,ST1_high_4_a1,P = T2?,Same,1,1,high,96,1.34,70,1.49,96,1.24,Yes,sure,fa,1.1910881996154785,NA
69,v0sp6#5,False,54,1,equal,ST2_low_5_a2,P = T2?,Same,2,2,low,96,1.17,154,0.9,154,0.73,Yes,sure,hit,1.0540950298309326,NA
70,v0sp6#5,False,55,1,equal,ST2_low_1_a2,P = T1?,Same,2,2,low,82,1.59,132,0.91,132,1.05,Yes,quiteSure,fa,1.1961960792541504,NA
71,v0sp6#5,False,56,1,equal,ST1_low_5_a2,P = T2?,Same,1,2,low,96,1.38,154,0.9,96,1.1,No,sure,cr,1.5956480503082275,NA
72,v0sp6#5,False,57,1,equal,DT2_low_2_a2,P = T2?,Different,2,2,low,132,0.91,82,1.41,70,1.76,Yes,unsure,hit,2.4330971240997314,NA
73,v0sp6#5,False,58,1,equal,ST1_high_1_a2,P = T2?,Same,1,2,high,82,1.59,112,1.1,82,1.62,No,quiteSure,cr,1.527308702468872,NA
74,v0sp6#5,False,59,1,equal,ST1_high_5_a1,P = T2?,Same,1,1,high,96,1.13,132,1.04,96,1.35,No,sure,cr,1.529106855392456,NA
75,v0sp6#5,False,60,1,equal,ST2_high_5_a2,P = T1?,Same,2,2,high,96,1.11,132,0.92,132,0.8,Yes,quiteSure,fa,2.002330780029297,NA
76,v0sp6#5,False,61,1,equal,ST2_low_1_a2,P = T2?,Same,2,2,low,82,1.36,132,0.87,132,0.82,No,quiteSure,miss,1.5317668914794922,NA
77,v0sp6#5,False,62,1,equal,ST2_low_4_a1,P = T2?,Same,2,1,low,112,1.19,70,1.56,70,1.49,Yes,quiteSure,hit,1.7768609523773193,NA
78,v0sp6#5,False,63,1,equal,ST2_high_4_a1,P = T1?,Same,2,1,high,96,1.2,70,1.49,70,1.73,Yes,quiteSure,fa,3.378081798553467,NA
79,v0sp6#5,False,64,1,equal,ST1_high_1_a2,P = T1?,Same,1,2,high,82,1.62,112,0.92,82,1.63,Yes,sure,hit,1.325821876525879,NA
80,v0sp6#5,False,65,1,equal,ST1_high_2_a1,P = T1?,Same,1,1,high,112,1.06,82,1.45,112,0.96,Yes,quiteSure,hit,1.3778653144836426,NA
81,v0sp6#5,False,66,1,equal,ST2_high_6_a2,P = T1?,Same,2,2,high,132,0.91,96,1.32,96,1.15,No,quiteSure,cr,1.3009469509124756,NA
82,v0sp6#5,False,67,1,equal,ST2_low_6_a1,P = T2?,Same,2,1,low,154,0.83,96,1.36,96,1.35,Yes,quiteSure,hit,1.578117847442627,NA
83,v0sp6#5,False,68,1,equal,ST1_high_4_a1,P = T1?,Same,1,1,high,96,1.31,70,1.46,96,1.38,Yes,unsure,hit,2.2257158756256104,NA
84,v0sp6#5,False,69,1,equal,ST2_high_3_a2,P = T1?,Same,2,2,high,70,1.57,96,1.11,96,1.28,Yes,quiteSure,fa,1.4193809032440186,NA
85,v0sp6#5,False,70,1,equal,STb_7_a1,P = T2?,Same,0,1,None,154,0.84,154,0.77,154,0.77,Yes,sure,hit,1.0117440223693848,NA
86,v0sp6#5,False,71,1,equal,ST2_high_3_a1,P = T1?,Same,2,1,high,70,1.7,96,1.33,96,1.02,No,quiteSure,cr,1.5248992443084717,NA
87,v0sp6#5,False,72,1,equal,ST1_high_1_a2,P = T1?,Same,1,2,high,82,1.19,112,1.08,82,1.35,Yes,quiteSure,hit,1.3705151081085205,NA
88,v0sp6#5,False,73,1,equal,ST1_high_2_a2,P = T2?,Same,1,2,high,112,1.23,82,1.39,112,0.99,No,quiteSure,cr,1.262558937072754,NA
89,v0sp6#5,False,74,1,equal,ST1_low_3_a2,P = T1?,Same,1,2,low,70,1.83,112,0.96,70,1.58,Yes,quiteSure,hit,1.1884520053863525,NA
90,v0sp6#5,False,75,1,equal,ST1_high_3_a2,P = T1?,Same,1,2,high,70,1.54,96,1.39,70,1.78,Yes,unsure,hit,2.698125123977661,NA
91,v0sp6#5,False,76,1,equal,DT2_low_4_a2,P = T1?,Different,2,2,low,112,0.95,70,1.58,60,1.68,No,unsure,cr,1.4152672290802002,NA
92,v0sp6#5,False,77,1,equal,ST2_high_2_a2,P = T1?,Same,2,2,high,112,1.11,82,1.43,82,1.6,No,sure,cr,1.6186811923980713,NA
93,v0sp6#5,False,78,1,equal,ST2_high_4_a2,P = T1?,Same,2,2,high,96,1.38,70,1.63,70,1.84,Yes,unsure,fa,7.1814351081848145,NA
94,v0sp6#5,False,79,1,equal,ST1_low_6_a2,P = T2?,Same,1,2,low,154,0.66,96,1.29,154,0.81,No,sure,cr,1.6446073055267334,NA
95,v0sp6#5,False,80,1,equal,ST1_low_6_a1,P = T1?,Same,1,1,low,154,0.88,96,1.35,154,0.81,Yes,quiteSure,hit,1.6218271255493164,NA
96,v0sp6#5,False,81,1,equal,ST2_low_2_a2,P = T1?,Same,2,2,low,132,1.0,82,1.38,82,1.54,No,sure,cr,1.283341884613037,NA
97,v0sp6#5,False,82,1,equal,ST1_low_2_a2,P = T1?,Same,1,2,low,132,1.05,82,1.4,132,1.06,Yes,quiteSure,hit,1.4643278121948242,NA
98,v0sp6#5,False,83,1,equal,ST2_low_1_a2,P = T2?,Same,2,2,low,82,1.22,132,0.98,132,0.94,Yes,quiteSure,hit,1.5504629611968994,NA
99,v0sp6#5,False,84,1,equal,ST1_high_6_a2,P = T2?,Same,1,2,high,132,0.84,96,1.43,132,0.92,No,quiteSure,cr,1.397308111190796,NA
100,v0sp6#5,False,85,1,equal,ST2_high_6_a1,P = T2?,Same,2,1,high,132,0.93,96,1.33,96,1.24,No,quiteSure,miss,1.377351999282837,NA
101,v0sp6#5,False,86,1,equal,ST1_low_5_a1,P = T2?,Same,1,1,low,96,1.23,154,0.86,96,1.07,No,sure,cr,1.5271070003509521,NA
102,v0sp6#5,False,87,1,equal,ST2_high_5_a2,P = T2?,Same,2,2,high,96,1.43,132,0.99,132,0.83,No,quiteSure,miss,1.4597671031951904,NA
103,v0sp6#5,False,88,1,equal,ST1_low_3_a1,P = T2?,Same,1,1,low,70,1.45,112,1.09,70,1.44,No,unsure,cr,1.1699440479278564,NA
104,v0sp6#5,False,89,1,equal,ST1_low_4_a1,P = T2?,Same,1,1,low,112,1.15,70,1.8,112,1.1,No,quiteSure,cr,2.5230491161346436,NA
105,v0sp6#5,False,90,1,equal,ST2_low_2_a1,P = T2?,Same,2,1,low,132,0.78,82,1.34,82,1.29,Yes,sure,hit,1.168761968612671,NA
106,v0sp6#5,False,91,1,equal,ST1_high_3_a2,P = T2?,Same,1,2,high,70,1.75,96,1.18,70,1.39,No,quiteSure,cr,2.37298583984375,NA
107,v0sp6#5,False,92,1,equal,ST1_low_3_a1,P = T1?,Same,1,1,low,70,1.47,112,1.07,70,1.52,Yes,quiteSure,hit,1.3739140033721924,NA
108,v0sp6#5,False,93,1,equal,ST1_low_2_a1,P = T1?,Same,1,1,low,132,1.05,82,1.55,132,0.81,Yes,quiteSure,hit,1.076636791229248,NA
109,v0sp6#5,False,94,1,equal,ST1_low_3_a1,P = T2?,Same,1,1,low,70,1.41,112,1.15,70,1.65,No,quiteSure,cr,1.552243947982788,NA
110,v0sp6#5,False,95,1,equal,ST2_low_3_a1,P = T2?,Same,2,1,low,70,1.65,112,0.95,112,1.07,Yes,quiteSure,hit,1.0196499824523926,NA
111,v0sp6#5,False,96,1,equal,ST1_low_4_a2,P = T1?,Same,1,2,low,112,1.11,70,1.67,112,0.99,Yes,quiteSure,hit,1.0967371463775635,NA
112,v0sp6#5,False,97,1,equal,ST1_high_2_a2,P = T1?,Same,1,2,high,112,1.12,82,1.46,112,1.24,No,quiteSure,miss,3.0362601280212402,NA
113,v0sp6#5,False,98,1,equal,ST1_low_4_a1,P = T1?,Same,1,1,low,112,1.11,70,1.61,112,1.08,Yes,quiteSure,hit,1.2817010879516602,NA
114,v0sp6#5,False,99,1,equal,ST1_low_3_a1,P = T2?,Same,1,1,low,70,1.54,112,1.0,70,1.62,Yes,sure,fa,1.1657791137695312,NA
115,v0sp6#5,False,100,1,equal,ST1_high_5_a1,P = T2?,Same,1,1,high,96,1.34,132,0.92,96,1.11,No,quiteSure,cr,1.3518450260162354,NA
116,v0sp6#5,False,101,1,equal,ST1_low_1_a1,P = T1?,Same,1,1,low,82,1.39,132,0.91,82,1.24,Yes,quiteSure,hit,1.5841732025146484,NA
117,v0sp6#5,False,102,1,equal,ST2_low_6_a1,P = T2?,Same,2,1,low,154,0.84,96,1.29,96,1.18,Yes,quiteSure,hit,1.1949281692504883,NA
118,v0sp6#5,False,103,1,equal,ST2_low_5_a1,P = T1?,Same,2,1,low,96,1.39,154,0.75,154,0.93,No,sure,cr,1.2877020835876465,NA
119,v0sp6#5,False,104,1,equal,ST1_high_3_a2,P = T2?,Same,1,2,high,70,1.84,96,1.08,70,1.63,Yes,sure,fa,1.6220049858093262,NA
120,v0sp6#5,False,105,1,equal,ST1_high_2_a1,P = T2?,Same,1,1,high,112,0.92,82,1.55,112,0.93,No,sure,cr,1.3971900939941406,NA
121,v0sp6#5,False,106,1,equal,ST2_low_3_a2,P = T1?,Same,2,2,low,70,1.72,112,1.01,112,1.22,Yes,unsure,fa,2.9063589572906494,NA
122,v0sp6#5,False,107,1,equal,ST1_low_4_a2,P = T1?,Same,1,2,low,112,1.16,70,1.54,112,1.17,Yes,unsure,hit,2.0246498584747314,NA
123,v0sp6#5,False,108,1,equal,ST2_high_4_a1,P = T2?,Same,2,1,high,96,1.27,70,1.77,70,1.47,Yes,quiteSure,hit,1.1038200855255127,NA
124,v0sp6#5,False,109,1,equal,ST2_high_6_a1,P = T2?,Same,2,1,high,132,0.87,96,1.22,96,1.19,Yes,quiteSure,hit,1.1723761558532715,NA
125,v0sp6#5,False,110,1,equal,ST2_low_4_a1,P = T1?,Same,2,1,low,112,0.93,70,1.8,70,1.72,No,unsure,cr,3.0826950073242188,NA
126,v0sp6#5,False,111,1,equal,ST1_low_1_a2,P = T2?,Same,1,2,low,82,1.47,132,0.81,82,1.34,No,sure,cr,1.3975341320037842,NA
127,v0sp6#5,False,112,1,equal,ST2_high_1_a2,P = T1?,Same,2,2,high,82,1.39,112,1.22,112,1.14,Yes,quiteSure,fa,1.1255149841308594,NA
128,v0sp6#5,False,113,1,equal,ST2_low_3_a1,P = T1?,Same,2,1,low,70,1.43,112,1.08,112,1.11,No,sure,cr,1.1057569980621338,NA
129,v0sp6#5,False,114,1,equal,ST2_low_5_a2,P = T2?,Same,2,2,low,96,1.19,154,0.86,154,0.84,Yes,sure,hit,0.9913291931152344,NA
130,v0sp6#5,False,115,1,equal,DT1_low_2_a2,P = T1?,Different,1,2,low,132,0.88,82,1.31,154,0.77,Yes,quiteSure,hit,1.0919981002807617,NA
131,v0sp6#5,False,116,1,equal,ST1_high_3_a2,P = T1?,Same,1,2,high,70,1.65,96,1.3,70,1.54,Yes,quiteSure,hit,0.9937400817871094,NA
132,v0sp6#5,False,117,1,equal,ST2_low_3_a2,P = T1?,Same,2,2,low,70,1.85,112,1.12,112,1.11,Yes,quiteSure,fa,1.2424921989440918,NA
133,v0sp6#5,False,118,1,equal,ST1_high_4_a2,P = T2?,Same,1,2,high,96,1.31,70,1.74,96,1.22,No,quiteSure,cr,1.4150111675262451,NA
134,v0sp6#5,False,119,1,equal,ST2_high_5_a2,P = T1?,Same,2,2,high,96,1.34,132,0.88,132,1.03,No,quiteSure,cr,3.0366718769073486,NA
135,v0sp6#5,False,120,1,equal,ST2_low_2_a1,P = T2?,Same,2,1,low,132,0.94,82,1.34,82,1.64,Yes,quiteSure,hit,1.3010449409484863,NA
136,v0sp6#5,False,121,1,equal,ST2_low_4_a1,P = T1?,Same,2,1,low,112,0.97,70,1.74,70,1.81,No,quiteSure,cr,1.2825877666473389,NA
137,v0sp6#5,False,122,1,equal,STb_1_a2,P = T1?,Same,0,2,None,60,1.62,60,1.61,60,1.54,Yes,quiteSure,hit,1.4726738929748535,NA
138,v0sp6#5,False,123,1,equal,ST1_high_4_a2,P = T1?,Same,1,2,high,96,1.2,70,1.8,96,1.35,Yes,quiteSure,hit,1.461116075515747,NA
139,v0sp6#5,False,124,1,equal,ST2_low_6_a2,P = T2?,Same,2,2,low,154,0.79,96,1.2,96,1.36,Yes,unsure,hit,2.1349518299102783,NA
140,v0sp6#5,False,125,1,equal,ST1_high_1_a1,P = T2?,Same,1,1,high,82,1.36,112,1.05,82,1.29,No,sure,cr,1.3734610080718994,NA
141,v0sp6#5,False,126,1,equal,ST2_high_4_a1,P = T2?,Same,2,1,high,96,1.11,70,1.53,70,1.6,Yes,quiteSure,hit,1.105457067489624,NA
142,v0sp6#5,False,127,1,equal,ST1_high_5_a2,P = T2?,Same,1,2,high,96,1.18,132,0.98,96,1.17,Yes,quiteSure,fa,1.075958013534546,NA
143,v0sp6#5,False,128,1,equal,ST2_high_6_a1,P = T1?,Same,2,1,high,132,1.05,96,1.27,96,1.39,No,quiteSure,cr,1.259093999862671,NA
144,v0sp6#5,False,129,1,equal,ST2_high_4_a1,P = T1?,Same,2,1,high,96,1.13,70,1.7,70,1.76,Yes,quiteSure,fa,1.3064017295837402,NA
145,v0sp6#5,False,130,1,equal,ST1_low_4_a1,P = T1?,Same,1,1,low,112,1.22,70,1.68,112,1.21,Yes,quiteSure,hit,0.9613330364227295,NA
146,v0sp6#5,False,131,1,equal,DT2_low_4_a2,P = T2?,Different,2,2,low,112,1.2,70,1.75,60,1.86,Yes,quiteSure,hit,0.8399951457977295,NA
147,v0sp6#5,False,132,1,equal,ST2_low_2_a2,P = T1?,Same,2,2,low,132,1.01,82,1.6,82,1.59,No,sure,cr,1.42006516456604,NA
148,v0sp6#5,False,133,1,equal,ST1_low_1_a2,P = T1?,Same,1,2,low,82,1.37,132,1.02,82,1.3,Yes,quiteSure,hit,1.1805541515350342,NA
149,v0sp6#5,False,134,1,equal,ST1_low_2_a2,P = T2?,Same,1,2,low,132,0.99,82,1.31,132,0.97,No,sure,cr,1.43961501121521,NA
150,v0sp6#5,False,135,1,equal,DT2_high_6_a1,P = T2?,Different,2,1,high,132,0.89,96,1.32,82,1.57,Yes,unsure,hit,1.3035147190093994,NA
151,v0sp6#5,False,136,1,equal,ST2_low_5_a1,P = T2?,Same,2,1,low,96,1.23,154,0.77,154,0.95,Yes,quiteSure,hit,0.9636337757110596,NA
152,v0sp6#5,False,137,1,equal,ST2_high_3_a2,P = T1?,Same,2,2,high,70,1.74,96,1.26,96,1.1,No,quiteSure,cr,1.0949137210845947,NA
153,v0sp6#5,False,138,1,equal,ST2_high_2_a2,P = T1?,Same,2,2,high,112,1.09,82,1.32,82,1.27,No,quiteSure,cr,1.1198079586029053,NA
154,v0sp6#5,False,139,1,equal,ST2_high_3_a2,P = T2?,Same,2,2,high,70,1.61,96,1.11,96,1.09,Yes,quiteSure,hit,1.2106869220733643,NA
155,v0sp6#5,False,140,1,equal,ST1_low_1_a2,P = T1?,Same,1,2,low,82,1.63,132,1.04,82,1.27,Yes,quiteSure,hit,1.5974867343902588,NA
156,v0sp6#5,False,141,1,equal,ST2_low_5_a2,P = T2?,Same,2,2,low,96,1.08,154,0.78,154,0.78,Yes,quiteSure,hit,2.1803970336914062,NA
157,v0sp6#5,False,142,1,equal,STb_5_a1,P = T2?,Same,0,1,None,112,1.23,112,1.19,112,0.91,Yes,quiteSure,hit,1.0759727954864502,NA
158,v0sp6#5,False,143,1,equal,ST1_high_3_a1,P = T2?,Same,1,1,high,70,1.4,96,1.38,70,1.55,Yes,quiteSure,fa,1.0106580257415771,NA
159,v0sp6#5,False,144,1,equal,ST2_high_5_a1,P = T1?,Same,2,1,high,96,1.41,132,0.81,132,0.8,No,quiteSure,cr,1.3365910053253174,NA
160,v0sp6#5,False,145,1,equal,ST2_high_6_a1,P = T1?,Same,2,1,high,132,0.81,96,1.07,96,1.35,No,quiteSure,cr,1.1153249740600586,NA
161,v0sp6#5,False,146,1,equal,ST2_low_1_a2,P = T1?,Same,2,2,low,82,1.37,132,1.06,132,0.98,Yes,quiteSure,fa,1.5510430335998535,NA
162,v0sp6#5,False,147,1,equal,ST2_low_2_a2,P = T2?,Same,2,2,low,132,0.91,82,1.22,82,1.52,Yes,quiteSure,hit,1.0309040546417236,NA
163,v0sp6#5,False,148,1,equal,ST2_low_6_a1,P = T1?,Same,2,1,low,154,0.83,96,1.36,96,1.18,No,unsure,cr,1.556579828262329,NA
164,v0sp6#5,False,149,1,equal,ST2_high_1_a1,P = T2?,Same,2,1,high,82,1.29,112,1.12,112,1.13,No,quiteSure,miss,1.3050780296325684,NA
165,v0sp6#5,False,150,1,equal,ST1_low_4_a1,P = T2?,Same,1,1,low,112,1.05,70,1.62,112,0.97,Yes,quiteSure,fa,1.23475980758667,NA
166,v0sp6#5,False,151,1,equal,ST1_high_6_a1,P = T1?,Same,1,1,high,132,0.94,96,1.38,132,0.94,Yes,quiteSure,hit,1.0566301345825195,NA
167,v0sp6#5,False,152,1,equal,ST1_high_4_a2,P = T1?,Same,1,2,high,96,0.98,70,1.95,96,1.19,Yes,quiteSure,hit,1.1900408267974854,NA
168,v0sp6#5,False,153,1,equal,ST1_high_4_a2,P = T1?,Same,1,2,high,96,1.11,70,1.63,96,1.12,Yes,quiteSure,hit,1.1037790775299072,NA
169,v0sp6#5,False,154,1,equal,ST2_high_3_a1,P = T1?,Same,2,1,high,70,1.71,96,1.28,96,1.07,Yes,quiteSure,fa,1.0586872100830078,NA
170,v0sp6#5,False,155,1,equal,ST1_low_6_a1,P = T2?,Same,1,1,low,154,0.93,96,1.21,154,0.72,No,sure,cr,1.2831230163574219,NA
171,v0sp6#5,False,156,1,equal,ST2_low_5_a1,P = T1?,Same,2,1,low,96,1.07,154,0.79,154,0.92,No,quiteSure,cr,1.2813518047332764,NA
172,v0sp6#5,False,157,1,equal,ST2_high_4_a2,P = T2?,Same,2,2,high,96,1.16,70,1.81,70,1.44,Yes,quiteSure,hit,0.9686839580535889,NA
173,v0sp6#5,False,158,1,equal,ST2_high_3_a1,P = T2?,Same,2,1,high,70,1.38,96,1.13,96,1.19,Yes,quiteSure,hit,1.0307810306549072,NA
174,v0sp6#5,False,159,1,equal,DT2_high_1_a1,P = T2?,Different,2,1,high,82,1.24,112,1.0,132,0.82,Yes,quiteSure,hit,1.5114729404449463,NA
175,v0sp6#5,False,160,1,equal,ST1_high_2_a2,P = T1?,Same,1,2,high,112,1.19,82,1.53,112,0.93,Yes,quiteSure,hit,1.033686876296997,NA
176,v0sp6#5,False,161,1,equal,ST2_high_1_a2,P = T2?,Same,2,2,high,82,1.62,112,0.94,112,0.98,Yes,unsure,hit,3.286818027496338,NA
177,v0sp6#5,False,162,1,equal,ST1_low_4_a2,P = T2?,Same,1,2,low,112,1.02,70,1.65,112,1.15,No,quiteSure,cr,1.280282735824585,NA
178,v0sp6#5,False,163,1,equal,ST2_high_1_a2,P = T2?,Same,2,2,high,82,1.24,112,1.1,112,1.22,No,quiteSure,miss,1.167673110961914,NA
179,v0sp6#5,False,164,1,equal,ST2_high_3_a2,P = T2?,Same,2,2,high,70,1.66,96,1.07,96,1.3,No,unsure,miss,1.816377878189087,NA
180,v0sp6#5,False,165,1,equal,ST2_high_3_a1,P = T1?,Same,2,1,high,70,1.41,96,1.25,96,1.3,Yes,unsure,fa,4.639462947845459,NA
181,v0sp6#5,False,166,1,equal,ST1_low_1_a1,P = T2?,Same,1,1,low,82,1.49,132,0.94,82,1.51,No,sure,cr,1.210357904434204,NA
182,v0sp6#5,False,167,1,equal,ST1_low_2_a2,P = T2?,Same,1,2,low,132,1.02,82,1.58,132,0.82,No,sure,cr,1.5085840225219727,NA
183,v0sp6#5,False,168,1,equal,ST2_high_1_a2,P = T1?,Same,2,2,high,82,1.25,112,0.91,112,1.03,No,quiteSure,cr,2.1367862224578857,NA
184,v0sp6#5,False,169,1,equal,ST1_high_1_a2,P = T2?,Same,1,2,high,82,1.48,112,1.1,82,1.57,No,quiteSure,cr,1.102848768234253,NA
185,v0sp6#5,False,170,1,equal,ST1_high_1_a1,P = T1?,Same,1,1,high,82,1.54,112,1.17,82,1.37,Yes,quiteSure,hit,2.3407230377197266,NA
186,v0sp6#5,False,171,1,equal,ST2_high_5_a2,P = T2?,Same,2,2,high,96,1.42,132,0.97,132,0.89,Yes,quiteSure,hit,0.8996691703796387,NA
187,v0sp6#5,False,172,1,equal,ST2_high_1_a1,P = T1?,Same,2,1,high,82,1.52,112,1.06,112,1.23,No,unsure,cr,4.22752571105957,NA
188,v0sp6#5,False,173,1,equal,STb_7_a2,P = T1?,Same,0,2,None,154,0.67,154,0.74,154,0.86,Yes,quiteSure,hit,1.1465768814086914,NA
189,v0sp6#5,False,174,1,equal,ST2_high_5_a1,P = T2?,Same,2,1,high,96,1.09,132,0.98,132,0.94,No,quiteSure,miss,1.2157182693481445,NA
190,v0sp6#5,False,175,1,equal,ST1_low_4_a2,P = T1?,Same,1,2,low,112,1.11,70,1.81,112,1.14,Yes,quiteSure,hit,1.4172987937927246,NA
191,v0sp6#5,False,176,1,equal,ST2_low_2_a1,P = T1?,Same,2,1,low,132,0.89,82,1.54,82,1.56,No,quiteSure,cr,1.1720950603485107,NA
192,v0sp6#5,False,177,1,equal,STb_4_a1,P = T2?,Same,0,1,None,96,1.17,96,1.09,96,1.4,Yes,quiteSure,hit,0.9436020851135254,NA
193,v0sp6#5,False,178,1,equal,ST2_high_4_a1,P = T2?,Same,2,1,high,96,1.25,70,1.39,70,1.56,Yes,unsure,hit,2.0028457641601562,NA
194,v0sp6#5,False,179,1,equal,ST1_low_2_a2,P = T2?,Same,1,2,low,132,0.87,82,1.39,132,0.84,No,sure,cr,1.1690099239349365,NA
195,v0sp6#5,False,180,1,equal,ST2_high_4_a2,P = T1?,Same,2,2,high,96,1.36,70,1.57,70,1.6,No,quiteSure,cr,1.283128023147583,NA
196,v0sp6#5,False,181,1,equal,ST1_low_1_a1,P = T1?,Same,1,1,low,82,1.63,132,0.89,82,1.4,Yes,quiteSure,hit,1.0612730979919434,NA
197,v0sp6#5,False,182,1,equal,ST1_high_5_a2,P = T1?,Same,1,2,high,96,1.41,132,0.86,96,1.39,Yes,quiteSure,hit,0.9212799072265625,NA
198,v0sp6#5,False,183,1,equal,ST1_high_2_a1,P = T1?,Same,1,1,high,112,1.01,82,1.26,112,1.21,Yes,unsure,hit,1.5491149425506592,NA
199,v0sp6#5,False,184,1,equal,ST1_low_1_a1,P = T2?,Same,1,1,low,82,1.31,132,0.87,82,1.6,No,sure,cr,1.1944117546081543,NA
200,v0sp6#5,False,185,1,equal,ST1_high_6_a2,P = T2?,Same,1,2,high,132,0.91,96,1.06,132,1.02,No,quiteSure,cr,1.1464641094207764,NA
201,v0sp6#5,False,186,1,equal,ST1_high_6_a1,P = T2?,Same,1,1,high,132,0.87,96,1.27,132,0.84,Yes,quiteSure,fa,5.82461404800415,NA
202,v0sp6#5,False,187,1,equal,ST1_low_6_a1,P = T1?,Same,1,1,low,154,0.93,96,1.28,154,0.79,Yes,quiteSure,hit,0.965142011642456,NA
203,v0sp6#5,False,188,1,equal,ST1_high_5_a2,P = T2?,Same,1,2,high,96,1.21,132,0.81,96,1.07,No,quiteSure,cr,1.126452922821045,NA
204,v0sp6#5,False,189,1,equal,ST2_high_6_a1,P = T1?,Same,2,1,high,132,0.88,96,1.22,96,1.16,No,quiteSure,cr,2.4710988998413086,NA
205,v0sp6#5,False,190,1,equal,ST1_high_1_a1,P = T1?,Same,1,1,high,82,1.24,112,1.19,82,1.32,Yes,quiteSure,hit,1.056218147277832,NA
206,v0sp6#5,False,191,1,equal,ST2_high_4_a2,P = T1?,Same,2,2,high,96,1.25,70,1.65,70,1.59,No,quiteSure,cr,1.2813200950622559,NA
207,v0sp6#5,False,192,1,equal,ST1_low_5_a1,P = T2?,Same,1,1,low,96,1.06,154,0.8,96,1.12,No,sure,cr,1.0946941375732422,NA
208,v0sp6#5,False,193,1,equal,ST1_high_2_a1,P = T1?,Same,1,1,high,112,1.05,82,1.61,112,0.97,Yes,quiteSure,hit,1.174494981765747,NA
209,v0sp6#5,False,194,1,equal,ST1_high_6_a1,P = T1?,Same,1,1,high,132,0.9,96,1.19,132,0.85,Yes,quiteSure,hit,1.0579218864440918,NA
210,v0sp6#5,False,195,1,equal,ST1_high_4_a1,P = T2?,Same,1,1,high,96,1.2,70,1.67,96,1.33,No,quiteSure,cr,1.03214693069458,NA
211,v0sp6#5,False,196,1,equal,ST2_low_2_a1,P = T1?,Same,2,1,low,132,1.06,82,1.38,82,1.31,No,quiteSure,cr,1.2603449821472168,NA
212,v0sp6#5,False,197,1,equal,ST1_high_5_a2,P = T2?,Same,1,2,high,96,1.08,132,0.97,96,1.08,No,quiteSure,cr,1.0788381099700928,NA
213,v0sp6#5,False,198,1,equal,ST1_low_5_a2,P = T2?,Same,1,2,low,96,1.42,154,0.75,96,1.13,No,sure,cr,1.0782830715179443,NA
214,v0sp6#5,False,199,1,equal,STb_1_a2,P = T2?,Same,0,2,None,60,1.79,60,1.66,60,1.67,Yes,sure,hit,1.0339999198913574,NA
215,v0sp6#5,False,200,1,equal,ST1_low_1_a2,P = T2?,Same,1,2,low,82,1.41,132,1.04,82,1.41,No,sure,cr,2.137483835220337,NA
216,v0sp6#5,False,201,1,equal,ST1_high_3_a1,P = T2?,Same,1,1,high,70,1.82,96,1.24,70,1.63,Yes,quiteSure,fa,1.3069980144500732,NA
217,v0sp6#5,False,202,1,equal,ST2_low_5_a2,P = T1?,Same,2,2,low,96,1.08,154,0.75,154,0.9,Yes,quiteSure,fa,1.1463210582733154,NA
218,v0sp6#5,False,203,1,equal,ST2_high_6_a1,P = T2?,Same,2,1,high,132,0.92,96,1.19,96,1.39,Yes,quiteSure,hit,0.9040071964263916,NA
219,v0sp6#5,False,204,1,equal,ST1_high_2_a2,P = T1?,Same,1,2,high,112,0.93,82,1.43,112,1.13,Yes,quiteSure,hit,0.9459738731384277,NA
220,v0sp6#5,False,205,1,equal,ST2_low_1_a1,P = T1?,Same,2,1,low,82,1.6,132,0.83,132,1.0,No,sure,cr,4.048898935317993,NA
221,v0sp6#5,False,206,1,equal,ST2_high_1_a1,P = T2?,Same,2,1,high,82,1.38,112,1.21,112,1.07,Yes,quiteSure,hit,0.8295440673828125,NA
222,v0sp6#5,False,207,1,equal,ST2_low_3_a1,P = T1?,Same,2,1,low,70,1.6,112,1.0,112,1.03,Yes,unsure,fa,1.2165260314941406,NA
223,v0sp6#5,False,208,1,equal,STb_8_a1,P = T2?,Same,0,1,None,180,0.93,180,0.83,180,0.85,Yes,quiteSure,hit,1.0315792560577393,NA
224,v0sp6#5,False,209,1,equal,ST2_low_4_a2,P = T1?,Same,2,2,low,112,1.02,70,1.68,70,1.38,No,quiteSure,cr,1.1037070751190186,NA
225,v0sp6#5,False,210,1,equal,ST1_low_1_a1,P = T2?,Same,1,1,low,82,1.61,132,0.87,82,1.58,No,sure,cr,1.2797560691833496,NA
226,v0sp6#5,False,211,1,equal,ST2_high_2_a1,P = T2?,Same,2,1,high,112,1.04,82,1.51,82,1.62,Yes,sure,hit,0.9251959323883057,NA
227,v0sp6#5,False,212,1,equal,ST2_high_6_a2,P = T2?,Same,2,2,high,132,0.82,96,1.2,96,1.33,Yes,quiteSure,hit,0.987584114074707,NA
228,v0sp6#5,False,213,1,equal,ST1_low_5_a1,P = T1?,Same,1,1,low,96,1.15,154,0.94,96,1.29,Yes,quiteSure,hit,0.9824261665344238,NA
229,v0sp6#5,False,214,1,equal,STb_4_a2,P = T1?,Same,0,2,None,96,1.1,96,1.25,96,1.15,No,unsure,miss,1.5962169170379639,NA
230,v0sp6#5,False,215,1,equal,ST2_low_1_a1,P = T1?,Same,2,1,low,82,1.26,132,0.92,132,0.92,No,quiteSure,cr,1.078221082687378,NA
231,v0sp6#5,False,216,1,equal,ST2_low_4_a1,P = T1?,Same,2,1,low,112,1.02,70,1.53,70,1.69,No,quiteSure,cr,1.0779898166656494,NA
232,v0sp6#5,False,217,1,equal,ST1_high_2_a1,P = T2?,Same,1,1,high,112,1.1,82,1.28,112,0.98,No,quiteSure,cr,0.9937529563903809,NA
233,v0sp6#5,False,218,1,equal,ST2_low_6_a1,P = T1?,Same,2,1,low,154,0.71,96,1.33,96,1.29,No,sure,cr,1.1692299842834473,NA
234,v0sp6#5,False,219,1,equal,ST1_high_5_a1,P = T1?,Same,1,1,high,96,1.26,132,1.05,96,1.16,Yes,quiteSure,hit,0.9409651756286621,NA
235,v0sp6#5,False,220,1,equal,ST1_high_3_a1,P = T1?,Same,1,1,high,70,1.8,96,1.25,70,1.44,Yes,quiteSure,hit,0.971825122833252,NA
236,v0sp6#5,False,221,1,equal,ST1_high_6_a1,P = T2?,Same,1,1,high,132,1.0,96,1.15,132,0.96,No,sure,cr,1.19746994972229,NA
237,v0sp6#5,False,222,1,equal,DT2_low_5_a1,P = T2?,Different,2,1,low,96,1.35,154,0.96,180,0.93,Yes,sure,hit,0.9667069911956787,NA
238,v0sp6#5,False,223,1,equal,ST1_low_5_a1,P = T1?,Same,1,1,low,96,1.32,154,0.84,96,1.12,Yes,quiteSure,hit,0.9896318912506104,NA
239,v0sp6#5,False,224,1,equal,ST1_low_6_a2,P = T1?,Same,1,2,low,154,0.84,96,1.26,154,0.72,Yes,quiteSure,hit,1.253587245941162,NA
240,v0sp6#5,False,225,1,equal,ST1_high_1_a2,P = T1?,Same,1,2,high,82,1.56,112,1.14,82,1.42,Yes,quiteSure,hit,1.0093588829040527,NA
241,v0sp6#5,False,226,1,equal,ST2_high_2_a2,P = T1?,Same,2,2,high,112,1.05,82,1.24,82,1.34,No,quiteSure,cr,1.1013798713684082,NA
242,v0sp6#5,False,227,1,equal,STb_3_a2,P = T1?,Same,0,2,None,82,1.6,82,1.32,82,1.53,No,unsure,miss,1.3697290420532227,NA
243,v0sp6#5,False,228,1,equal,ST2_low_5_a2,P = T1?,Same,2,2,low,96,1.23,154,0.79,154,0.78,No,quiteSure,cr,1.3066201210021973,NA
244,v0sp6#5,False,229,1,equal,ST2_high_3_a2,P = T2?,Same,2,2,high,70,1.7,96,1.34,96,1.3,Yes,quiteSure,hit,0.9910168647766113,NA
245,v0sp6#5,False,230,1,equal,ST2_low_2_a1,P = T1?,Same,2,1,low,132,1.01,82,1.6,82,1.37,No,sure,cr,1.124040126800537,NA
246,v0sp6#5,False,231,1,equal,ST2_low_5_a2,P = T1?,Same,2,2,low,96,1.25,154,0.78,154,0.83,No,sure,cr,0.9887681007385254,NA
247,v0sp6#5,False,232,1,equal,STb_1_a1,P = T1?,Same,0,1,None,60,1.72,60,1.64,60,1.75,Yes,quiteSure,hit,2.1131248474121094,NA
248,v0sp6#5,False,233,1,equal,DT1_low_4_a1,P = T1?,Different,1,1,low,112,1.13,70,1.69,132,0.91,Yes,unsure,hit,1.418335199356079,NA
249,v0sp6#5,False,234,1,equal,ST2_low_3_a2,P = T2?,Same,2,2,low,70,1.55,112,1.06,112,1.11,No,quiteSure,miss,1.349456787109375,NA
250,v0sp6#5,False,235,1,equal,ST1_high_4_a2,P = T2?,Same,1,2,high,96,1.19,70,1.57,96,1.4,Yes,quiteSure,fa,1.2784361839294434,NA
251,v0sp6#5,False,236,1,equal,ST1_low_2_a2,P = T1?,Same,1,2,low,132,0.86,82,1.24,132,1.04,Yes,quiteSure,hit,1.034106731414795,NA
252,v0sp6#5,False,237,1,equal,ST1_low_6_a2,P = T1?,Same,1,2,low,154,0.77,96,1.21,154,0.74,Yes,quiteSure,hit,0.9905378818511963,NA
253,v0sp6#5,False,238,1,equal,ST1_low_6_a2,P = T1?,Same,1,2,low,154,0.83,96,1.21,154,0.77,Yes,quiteSure,hit,0.8390789031982422,NA
254,v0sp6#5,False,239,1,equal,ST1_low_5_a2,P = T1?,Same,1,2,low,96,1.26,154,0.81,96,1.28,No,quiteSure,miss,1.2845709323883057,NA
255,v0sp6#5,False,240,1,equal,ST1_high_5_a1,P = T1?,Same,1,1,high,96,1.26,132,0.79,96,1.1,Yes,quiteSure,hit,0.8540301322937012,NA
256,v0sp6#5,False,241,1,equal,ST2_low_6_a1,P = T2?,Same,2,1,low,154,0.94,96,1.14,96,1.43,Yes,quiteSure,hit,1.129621982574463,NA
257,v0sp6#5,False,242,1,equal,ST1_low_2_a1,P = T2?,Same,1,1,low,132,0.98,82,1.43,132,0.93,No,sure,cr,1.3326950073242188,NA
258,v0sp6#5,False,243,1,equal,ST1_low_4_a2,P = T2?,Same,1,2,low,112,1.01,70,1.47,112,1.23,Yes,quiteSure,fa,1.6989848613739014,NA
259,v0sp6#5,False,244,1,equal,ST2_high_5_a1,P = T2?,Same,2,1,high,96,1.21,132,0.97,132,0.89,No,unsure,miss,1.1910467147827148,NA
260,v0sp6#5,False,245,1,equal,ST1_low_5_a2,P = T1?,Same,1,2,low,96,1.29,154,0.73,96,1.26,Yes,quiteSure,hit,1.0354092121124268,NA
261,v0sp6#5,False,246,1,equal,ST1_low_2_a1,P = T1?,Same,1,1,low,132,0.91,82,1.37,132,0.96,Yes,quiteSure,hit,0.8805570602416992,NA
262,v0sp6#5,False,247,1,equal,ST2_high_5_a2,P = T1?,Same,2,2,high,96,1.37,132,0.8,132,0.95,No,sure,cr,1.2130827903747559,NA
263,v0sp6#5,False,248,1,equal,ST1_high_5_a1,P = T1?,Same,1,1,high,96,1.35,132,0.92,96,1.42,Yes,unsure,hit,1.5943570137023926,NA
264,v0sp6#5,False,249,1,equal,ST2_low_4_a2,P = T2?,Same,2,2,low,112,1.2,70,1.78,70,1.63,Yes,quiteSure,hit,1.148832082748413,NA
265,v0sp6#5,False,250,1,equal,DT1_low_5_a1,P = T1?,Different,1,1,low,96,1.1,154,0.94,82,1.39,Yes,quiteSure,hit,2.43277907371521,NA
266,v0sp6#5,False,251,1,equal,ST2_high_6_a2,P = T1?,Same,2,2,high,132,1.02,96,1.17,96,1.19,No,quiteSure,cr,1.1704719066619873,NA
267,v0sp6#5,False,252,1,equal,ST2_low_3_a1,P = T2?,Same,2,1,low,70,1.58,112,1.13,112,1.08,Yes,quiteSure,hit,1.0347180366516113,NA
268,v0sp6#5,False,253,1,equal,STb_5_a1,P = T1?,Same,0,1,None,112,1.0,112,0.94,112,1.19,Yes,quiteSure,hit,1.9384918212890625,NA
269,v0sp6#5,False,254,1,equal,ST2_high_6_a2,P = T2?,Same,2,2,high,132,0.82,96,1.13,96,1.26,Yes,quiteSure,hit,0.9400391578674316,NA
270,v0sp6#5,False,255,1,equal,ST2_high_6_a2,P = T2?,Same,2,2,high,132,0.99,96,1.19,96,1.13,No,quiteSure,miss,1.398974895477295,NA
271,v0sp6#5,False,256,1,equal,ST1_high_3_a1,P = T2?,Same,1,1,high,70,1.49,96,1.32,70,1.72,Yes,quiteSure,fa,1.1468679904937744,NA
272,v0sp6#5,False,257,1,equal,ST1_high_2_a1,P = T2?,Same,1,1,high,112,1.11,82,1.39,112,1.01,No,quiteSure,cr,1.1478047370910645,NA
273,v0sp6#5,False,258,1,equal,ST1_low_3_a2,P = T2?,Same,1,2,low,70,1.66,112,0.95,70,1.44,No,quiteSure,cr,0.9655251502990723,NA
274,v0sp6#5,False,259,1,equal,ST1_high_4_a1,P = T1?,Same,1,1,high,96,1.15,70,1.78,96,1.34,No,quiteSure,miss,2.045868158340454,NA
275,v0sp6#5,False,260,1,equal,ST2_high_2_a2,P = T2?,Same,2,2,high,112,1.18,82,1.59,82,1.56,Yes,quiteSure,hit,0.9705002307891846,NA
276,v0sp6#5,False,261,1,equal,DT2_low_1_a1,P = T2?,Different,2,1,low,82,1.35,132,0.96,154,0.74,Yes,quiteSure,hit,1.2599167823791504,NA
277,v0sp6#5,False,262,1,equal,ST2_low_6_a2,P = T2?,Same,2,2,low,154,0.76,96,1.11,96,1.23,Yes,quiteSure,hit,0.9633588790893555,NA
278,v0sp6#5,False,263,1,equal,ST2_high_2_a1,P = T1?,Same,2,1,high,112,1.19,82,1.36,82,1.5,No,quiteSure,cr,1.099621057510376,NA
279,v0sp6#5,False,264,1,equal,ST1_low_3_a2,P = T2?,Same,1,2,low,70,1.79,112,0.93,70,1.42,No,quiteSure,cr,1.0376989841461182,NA
280,v0sp6#5,False,265,1,equal,ST1_low_3_a1,P = T1?,Same,1,1,low,70,1.49,112,1.17,70,1.63,Yes,quiteSure,hit,3.143984794616699,NA
281,v0sp6#5,False,266,1,equal,ST2_high_2_a2,P = T2?,Same,2,2,high,112,1.16,82,1.39,82,1.42,Yes,quiteSure,hit,0.8330140113830566,NA
282,v0sp6#5,False,267,1,equal,ST2_high_5_a1,P = T1?,Same,2,1,high,96,1.12,132,0.94,132,0.87,No,quiteSure,cr,1.0401999950408936,NA
283,v0sp6#5,False,268,1,equal,ST2_low_6_a2,P = T1?,Same,2,2,low,154,0.84,96,1.38,96,1.26,No,sure,cr,0.9429466724395752,NA
284,v0sp6#5,False,269,1,equal,ST1_low_3_a2,P = T1?,Same,1,2,low,70,1.83,112,0.97,70,1.37,Yes,quiteSure,hit,1.3061060905456543,NA
285,v0sp6#5,False,270,1,equal,ST2_high_2_a1,P = T1?,Same,2,1,high,112,1.03,82,1.44,82,1.54,No,quiteSure,cr,1.0334138870239258,NA
286,v0sp6#5,False,271,1,equal,ST1_high_3_a1,P = T1?,Same,1,1,high,70,1.85,96,1.21,70,1.54,Yes,quiteSure,hit,1.058264970779419,NA
287,v0sp6#5,False,272,1,equal,ST1_high_2_a2,P = T2?,Same,1,2,high,112,1.05,82,1.29,112,0.92,No,quiteSure,cr,1.0791230201721191,NA
288,v0sp6#5,False,273,1,equal,ST1_high_6_a1,P = T1?,Same,1,1,high,132,0.92,96,1.16,132,0.98,Yes,quiteSure,hit,1.5098109245300293,NA
289,v0sp6#5,False,274,1,equal,ST2_low_6_a2,P = T1?,Same,2,2,low,154,0.74,96,1.21,96,1.11,No,quiteSure,cr,0.9240338802337646,NA
290,v0sp6#5,False,275,1,equal,ST1_high_6_a2,P = T1?,Same,1,2,high,132,0.94,96,1.36,132,1.05,Yes,quiteSure,hit,0.9186286926269531,NA
291,v0sp6#5,False,276,1,equal,ST2_high_5_a1,P = T1?,Same,2,1,high,96,1.14,132,1.06,132,1.03,No,quiteSure,cr,1.0307600498199463,NA
292,v0sp6#5,False,277,1,equal,ST2_low_2_a2,P = T1?,Same,2,2,low,132,0.85,82,1.62,82,1.49,No,quiteSure,cr,1.0123229026794434,NA
293,v0sp6#5,False,278,1,equal,ST2_low_3_a2,P = T2?,Same,2,2,low,70,1.77,112,1.2,112,1.04,Yes,quiteSure,hit,1.0359742641448975,NA
294,v0sp6#5,False,279,1,equal,DT1_low_6_a1,P = T1?,Different,1,1,low,154,0.86,96,1.39,180,0.93,Yes,quiteSure,hit,1.0602760314941406,NA
295,v0sp6#5,False,280,1,equal,ST2_high_2_a2,P = T2?,Same,2,2,high,112,0.99,82,1.59,82,1.36,Yes,quiteSure,hit,0.9231181144714355,NA
296,v0sp6#5,False,281,1,equal,ST1_low_6_a1,P = T2?,Same,1,1,low,154,0.85,96,1.31,154,0.75,No,quiteSure,cr,1.0142171382904053,NA
297,v0sp6#5,False,282,1,equal,ST1_high_4_a1,P = T2?,Same,1,1,high,96,1.43,70,1.53,96,1.16,Yes,unsure,fa,2.2484941482543945,NA
298,v0sp6#5,False,283,1,equal,DT2_high_1_a2,P = T2?,Different,2,2,high,82,1.63,112,0.92,132,1.05,Yes,quiteSure,hit,0.9438159465789795,NA
299,v0sp6#5,False,284,1,equal,ST1_low_4_a1,P = T1?,Same,1,1,low,112,1.2,70,1.64,112,1.09,Yes,quiteSure,hit,0.9636459350585938,NA
300,v0sp6#5,False,285,1,equal,ST1_high_5_a2,P = T1?,Same,1,2,high,96,1.11,132,0.79,96,1.25,Yes,quiteSure,hit,0.9918010234832764,NA
301,v0sp6#5,False,286,1,equal,ST1_high_3_a2,P = T2?,Same,1,2,high,70,1.49,96,1.18,70,1.61,No,quiteSure,cr,5.623528003692627,NA
302,v0sp6#5,False,287,1,equal,ST2_high_5_a1,P = T2?,Same,2,1,high,96,1.14,132,0.88,132,0.93,Yes,unsure,hit,2.6991560459136963,NA
303,v0sp6#5,False,288,1,equal,ST1_low_3_a2,P = T1?,Same,1,2,low,70,1.43,112,1.03,70,1.81,Yes,unsure,hit,2.6565089225769043,NA
304,v0sp6#5,False,289,1,equal,ST1_low_2_a1,P = T2?,Same,1,1,low,132,1.0,82,1.6,132,1.05,No,quiteSure,cr,1.306595802307129,NA
305,v0sp6#5,False,290,1,equal,ST1_high_5_a1,P = T2?,Same,1,1,high,96,1.25,132,0.98,96,1.3,No,quiteSure,cr,1.077895164489746,NA
306,v0sp6#5,False,291,1,equal,ST2_high_6_a2,P = T1?,Same,2,2,high,132,0.8,96,1.37,96,1.06,No,quiteSure,cr,2.227993965148926,NA
307,v0sp6#5,False,292,1,equal,ST1_low_4_a2,P = T2?,Same,1,2,low,112,0.93,70,1.77,112,1.11,No,unsure,cr,1.1872410774230957,NA
308,v0sp6#5,False,293,1,equal,ST1_low_6_a2,P = T2?,Same,1,2,low,154,0.94,96,1.31,154,0.9,No,quiteSure,cr,0.9866988658905029,NA
309,v0sp6#5,False,294,1,equal,DT2_high_5_a2,P = T1?,Different,2,2,high,96,1.4,132,1.06,154,0.9,Yes,quiteSure,fa,3.629497766494751,NA
310,v0sp6#5,False,295,1,equal,ST2_high_3_a1,P = T2?,Same,2,1,high,70,1.38,96,1.28,96,1.14,Yes,quiteSure,hit,0.9676012992858887,NA
311,v0sp6#5,False,296,1,equal,DT2_low_4_a1,P = T2?,Different,2,1,low,112,1.17,70,1.65,60,1.66,Yes,quiteSure,hit,0.8972599506378174,NA
312,v0sp6#5,False,297,1,equal,ST2_high_1_a2,P = T1?,Same,2,2,high,82,1.39,112,1.22,112,1.04,No,quiteSure,cr,2.0541179180145264,NA
313,v0sp6#5,False,298,1,equal,ST2_high_1_a1,P = T2?,Same,2,1,high,82,1.37,112,1.09,112,1.22,Yes,quiteSure,hit,0.9439518451690674,NA
314,v0sp6#5,False,299,1,equal,ST2_low_3_a2,P = T1?,Same,2,2,low,70,1.78,112,1.13,112,0.99,Yes,quiteSure,fa,0.9905519485473633,NA
315,v0sp6#5,False,300,1,equal,ST2_high_2_a1,P = T1?,Same,2,1,high,112,0.95,82,1.32,82,1.47,Yes,quiteSure,fa,1.1037957668304443,NA
316,v0sp6#5,False,301,1,equal,ST1_high_6_a2,P = T1?,Same,1,2,high,132,0.81,96,1.1,132,0.81,Yes,quiteSure,hit,0.9867701530456543,NA
317,v0sp6#5,False,302,1,equal,DT1_high_6_a2,P = T1?,Different,1,2,high,132,0.82,96,1.39,154,0.75,Yes,quiteSure,hit,0.9692409038543701,NA
318,v0sp6#5,False,303,1,equal,ST1_low_6_a2,P = T2?,Same,1,2,low,154,0.81,96,1.4,154,0.91,No,quiteSure,cr,1.1043550968170166,NA
319,v0sp6#5,False,304,1,equal,DT2_low_3_a1,P = T1?,Different,2,1,low,70,1.66,112,0.98,132,1.03,No,quiteSure,cr,1.0997161865234375,NA
320,v0sp6#5,False,305,1,equal,ST1_high_1_a1,P = T1?,Same,1,1,high,82,1.51,112,1.18,82,1.44,Yes,quiteSure,hit,1.7802479267120361,NA
321,v0sp6#5,False,306,1,equal,ST1_high_1_a1,P = T2?,Same,1,1,high,82,1.28,112,1.2,82,1.38,Yes,quiteSure,fa,0.9217948913574219,NA
322,v0sp6#5,False,307,1,equal,ST1_low_5_a2,P = T2?,Same,1,2,low,96,1.38,154,0.81,96,1.33,No,quiteSure,cr,0.8976500034332275,NA
323,v0sp6#5,False,308,1,equal,STb_1_a1,P = T2?,Same,0,1,None,60,1.57,60,1.95,60,1.58,Yes,quiteSure,hit,1.5924019813537598,NA
324,v0sp6#5,False,309,1,equal,ST1_low_3_a1,P = T1?,Same,1,1,low,70,1.39,112,1.05,70,1.55,Yes,quiteSure,hit,1.118454933166504,NA
325,v0sp6#5,False,310,1,equal,ST2_low_5_a1,P = T2?,Same,2,1,low,96,1.26,154,0.74,154,0.81,Yes,quiteSure,hit,0.9177348613739014,NA
326,v0sp6#5,False,311,1,equal,ST1_high_2_a2,P = T2?,Same,1,2,high,112,0.92,82,1.46,112,1.12,Yes,quiteSure,fa,0.9187140464782715,NA
327,v0sp6#5,False,312,1,equal,ST2_low_2_a2,P = T2?,Same,2,2,low,132,0.94,82,1.6,82,1.22,Yes,quiteSure,hit,1.1918339729309082,NA
328,v0sp6#5,False,313,1,equal,ST1_high_5_a2,P = T1?,Same,1,2,high,96,1.39,132,0.81,96,1.14,Yes,unsure,hit,2.1573140621185303,NA
329,v0sp6#5,False,314,1,equal,ST2_low_1_a1,P = T1?,Same,2,1,low,82,1.47,132,0.86,132,1.03,No,quiteSure,cr,1.1697289943695068,NA
330,v0sp6#5,False,315,1,equal,ST1_high_6_a2,P = T2?,Same,1,2,high,132,0.84,96,1.25,132,0.93,No,quiteSure,cr,1.1671538352966309,NA
331,v0sp6#5,False,316,1,equal,ST2_low_2_a2,P = T2?,Same,2,2,low,132,1.02,82,1.55,82,1.49,Yes,quiteSure,hit,0.8578708171844482,NA
332,v0sp6#5,False,317,1,equal,ST2_low_1_a2,P = T1?,Same,2,2,low,82,1.38,132,0.93,132,0.82,No,quiteSure,cr,0.9662389755249023,NA
333,v0sp6#5,False,318,1,equal,ST2_low_4_a2,P = T1?,Same,2,2,low,112,1.08,70,1.76,70,1.38,No,quiteSure,cr,1.0352418422698975,NA
334,v0sp6#5,False,319,1,equal,ST1_low_1_a2,P = T1?,Same,1,2,low,82,1.28,132,0.8,82,1.23,Yes,quiteSure,hit,0.9673211574554443,NA
335,v0sp6#5,False,320,1,equal,ST1_low_4_a1,P = T2?,Same,1,1,low,112,1.17,70,1.54,112,0.93,Yes,unsure,fa,2.0211260318756104,0.75
